trialType,cndTyp,lag,T1_loc,T2_loc,stimLen,isi,skipProb,phase,trials.thisRepN,trials.thisTrialN,trials.thisN,trials.thisIndex,trials2.thisRepN,trials2.thisTrialN,trials2.thisN,trials2.thisIndex,key_resp_4.keys,key_resp_4.rt,key_resp_4.started,key_resp_4.stopped,textbox.started,textbox.stopped,img0,img1,img2,img3,img4,img5,img6,img7,img8,img9,img10,img11,img12,img13,img14,img15,img16,option1.started,option1.stopped,text_2.started,text_2.stopped,skip1,skip2,lastPresent,displayPicture.started,displayPicture.stopped,polygon_2.started,polygon_2.stopped,opt1_t1,polygon_4.started,polygon_4.stopped,cor1,option1_t1.started,option1_t1.stopped,key_resp.keys,key_resp.rt,key_resp.started,key_resp.stopped,polygon_5.started,polygon_5.stopped,cor2,key_resp_2.keys,key_resp_2.rt,key_resp_2.started,key_resp_2.stopped,textbox_2.started,textbox_2.stopped,textbox_3.started,textbox_3.stopped,key_resp_3.keys,key_resp_3.started,key_resp_3.stopped,textbox_6.started,textbox_6.stopped,key_resp_7.keys,key_resp_7.rt,key_resp_7.started,key_resp_7.stopped,textbox_4.started,textbox_4.stopped,option1_3.started,option1_3.stopped,text_7.started,text_7.stopped,curStimTim,stimOFF0,stimON0,stimOFF1,stimON1,stimOFF2,stimON2,stimOFF3,stimON3,stimOFF4,stimON4,stimOFF5,stimON5,stimOFF6,stimON6,stimOFF7,stimON7,stimOFF8,stimON8,stimOFF9,stimON9,stimOFF10,stimON10,stimOFF11,stimON11,stimOFF12,stimON12,stimOFF13,stimON13,displayPicture_4.started,displayPicture_4.stopped,polygon_16.started,polygon_16.stopped,polygon_7.started,polygon_7.stopped,option1_t1_2.started,option1_t1_2.stopped,key_resp_6.keys,key_resp_6.rt,key_resp_6.started,key_resp_6.stopped,polygon_17.started,polygon_17.stopped,key_resp_8.keys,key_resp_8.rt,key_resp_8.started,key_resp_8.stopped,textbox_5.started,textbox_5.stopped,B0,B1,stimOFF14,stimON14,key_resp_3.rt,participant,session,date,expName,psychopyVersion,frameRate,
,,,,,,,,,,,,,,,,,space,2.97740500000009,25.1114563000001,None,,,,,,,,,,,,,,,,,,,,,,,,,,,,,,,,,,,,,,,,,,,,,,,,,,,,,,,,,,,,,,,,,,,,,,,,,,,,,,,,,,,,,,,,,,,,,,,,,,,,,,,,,,,,,,,,,,,,,,,,,10,001,2021_Apr_09_1054,AB_pic_singleT2,2021.1.2,60.00996165378676,
AB,lag7,7,4,11,0.2,0.05,0.5,,0,0,0,2,,,,,,,,,25.1114563000001,None,snowman.jpg,rooster.jpg,smokingpipe.jpg,pig.jpg,seagull.jpg,candycane01a.jpg,mailbox02.jpg,bathtub.jpg,church.jpg,jellybean.jpg,triangle.jpg,beaver.jpg,cross01.jpg,platypus.jpg,granolabar01.jpg,crab01.jpg,motorcycle.jpg,28.144940300000144,30.895251599999938,30.628445700000157,None,0,1,13,31.145255500000076,None,31.145255500000076,None,.\resources\triangle.jpg,34.64459249999982,None,1,34.64459249999982,None,right,1.0044401000000107,34.64459249999982,None,35.69449540000005,None,1,left,2.8184055000001536,35.69449540000005,None,35.69449540000005,None,38.56135559999984,None,None,39.561294219999944,None,39.561294219999944,None,,,,,,,,,,,,,,,,,,,,,,,,,,,,,,,,,,,,,,,,,,,,,,,,,,,,,,,,,,,,,,,,,10,001,2021_Apr_09_1054,AB_pic_singleT2,2021.1.2,60.00996165378676,
AB,lag3,3,3,6,0.2,0.05,0.5,,0,1,1,5,,,,,,,,,,,stool01.jpg,cigar.jpg,pirateflag.jpg,motorcycle.jpg,honeybee.jpg,ladder.jpg,lizard.jpg,drumstick.jpg,telescope.jpg,brownsugar.jpg,cloud.jpg,bumpercar.jpg,electricguitar01.jpg,tarantula.jpg,bluecheese.jpg,scorpion.jpg,badmintonracket.jpg,39.56144839999979,42.311087699999916,42.044439299999794,None,1,0,8,42.544002999999975,None,42.544002999999975,None,.\resources\ladder.jpg,44.81049989999974,None,1,44.81049989999974,None,left,1.4784113999999136,44.81049989999974,None,46.32706869999993,None,1,right,0.8178642000002583,46.32706869999993,None,46.32706869999993,None,47.16033160000006,None,None,48.1602928199999,None,48.1602928199999,None,,,,,,,,,,,,,,,,,,,,,,,,,,,,,,,,,,,,,,,,,,,,,,,,,,,,,,,,,,,,,,,,,10,001,2021_Apr_09_1054,AB_pic_singleT2,2021.1.2,60.00996165378676,
AB,lag1,1,4,5,0.2,0.05,0.5,,0,2,2,12,,,,,,,,,,,christmastree.jpg,swordfish.jpg,ostrich.jpg,shower.jpg,basketball01.jpg,bench01.jpg,foot.jpg,saxophone.jpg,accordion01.jpg,chainsaw.jpg,totempole.jpg,electricguitar01.jpg,greathornowl.jpg,uprightpiano01.jpg,brownsugar.jpg,fishingrod.jpg,rose.jpg,48.17694459999984,50.927129199999854,50.66048860000001,None,0,1,7,51.16009290000011,None,51.16009290000011,None,.\resources\basketball01.jpg,53.176642699999775,None,1,53.176642699999775,None,right,1.080216500000006,53.176642699999775,None,54.29315659999975,None,1,left,1.5239496999997755,54.29315659999975,None,54.29315659999975,None,55.86010660000011,None,None,56.86008522000011,None,56.86008522000011,None,,,,,,,,,,,,,,,,,,,,,,,,,,,,,,,,,,,,,,,,,,,,,,,,,,,,,,,,,,,,,,,,,10,001,2021_Apr_09_1054,AB_pic_singleT2,2021.1.2,60.00996165378676,
AB,lag6,6,5,11,0.2,0.05,0.5,,0,3,3,0,,,,,,,,,,,hotdogweiner.jpg,tie02.jpg,birthdaycandle.jpg,scooter.jpg,steeringwheel.jpg,panda.jpg,horseshoe.jpg,granolabar01.jpg,well.jpg,tent.jpg,rubikcube.jpg,seal.jpg,lawnmower.jpg,arrow02.jpg,badmintonracket.jpg,pigeon.jpg,greathornowl.jpg,56.87672650000013,59.626502399999936,59.343235899999854,None,1,0,13,59.842750499999966,None,59.842750499999966,None,.\resources\rubikcube.jpg,63.35916989999987,None,1,63.35916989999987,None,left,1.8417113000000427,63.35916989999987,None,65.24237289999974,None,1,right,1.0544662000002063,65.24237289999974,None,65.24237289999974,None,66.34229700000014,None,None,67.34261641999993,None,67.34261641999993,None,,,,,,,,,,,,,,,,,,,,,,,,,,,,,,,,,,,,,,,,,,,,,,,,,,,,,,,,,,,,,,,,,10,001,2021_Apr_09_1054,AB_pic_singleT2,2021.1.2,60.00996165378676,
AB,lag3,3,5,8,0.2,0.05,0.5,,0,4,4,10,,,,,,,,,,,mattress.jpg,guitarcase.jpg,snowshoe.jpg,motorcycle.jpg,chainsaw.jpg,cork02.jpg,microphone01.jpg,makiroll.jpg,daddylonglegs.jpg,dolphin01.jpg,golfball.jpg,bull.jpg,penguin.jpg,horse.jpg,bowlingpin.jpg,frisbee.jpg,skippingrope.jpg,67.35931829999981,70.1090807999999,69.84254959999998,None,0,1,10,70.34199200000012,None,70.34199200000012,None,.\resources\makiroll.jpg,73.10846469999979,None,1,73.10846469999979,None,right,1.028462799999943,73.10846469999979,None,74.17505089999986,None,1,left,1.4898396000003231,74.17505089999986,None,74.17505089999986,None,75.70827950000012,None,None,76.70861202000006,None,76.70861202000006,None,,,,,,,,,,,,,,,,,,,,,,,,,,,,,,,,,,,,,,,,,,,,,,,,,,,,,,,,,,,,,,,,,10,001,2021_Apr_09_1054,AB_pic_singleT2,2021.1.2,60.00996165378676,
AB,lag4,4,3,7,0.2,0.05,0.5,,0,5,5,1,,,,,,,,,,,acousticguitar02.jpg,birdnest.jpg,lion.jpg,bull.jpg,sheep.jpg,ladybug03.jpg,knee.jpg,ladder.jpg,motorcycle.jpg,electrictoothbrush01c.jpg,firehydrant.jpg,cocktailshrimp02.jpg,mattress.jpg,dragonfly01.jpg,dartboard.jpg,seal.jpg,duck01.jpg,76.70865129999993,79.45850410000003,79.19174359999988,None,0,1,9,79.69135849999975,None,79.69135849999975,None,.\resources\knee.jpg,82.20783449999999,None,1,82.20783449999999,None,right,1.0891404999997576,82.20783449999999,None,83.34105060000002,None,1,left,0.9559093999996549,83.34105060000002,None,83.34105060000002,None,84.32472599999983,None,None,85.3242835199998,None,85.3242835199998,None,,,,,,,,,,,,,,,,,,,,,,,,,,,,,,,,,,,,,,,,,,,,,,,,,,,,,,,,,,,,,,,,,10,001,2021_Apr_09_1054,AB_pic_singleT2,2021.1.2,60.00996165378676,
AB,lag5,5,4,9,0.2,0.05,0.5,,0,6,6,6,,,,,,,,,,,uprightpiano01.jpg,whiteout.jpg,popcorn.jpg,volleyball.jpg,toad.jpg,rooster.jpg,bumpercar.jpg,bullet.jpg,calendar.jpg,banjo.jpg,masquerademask01.jpg,birdnest.jpg,church.jpg,athleticsock.jpg,baseballbat.jpg,noparkingsign.jpg,slug.jpg,85.34131500000012,88.09110090000013,87.80739270000004,None,0,0,11,88.32444009999972,None,88.32444009999972,None,.\resources\calendar.jpg,91.32381350000014,None,1,91.32381350000014,None,right,1.2611064999996415,91.32381350000014,None,92.60704970000006,None,1,right,1.20980980000013,92.60704970000006,None,92.60704970000006,None,93.84029409999994,None,None,94.84062871999996,None,94.84062871999996,None,,,,,,,,,,,,,,,,,,,,,,,,,,,,,,,,,,,,,,,,,,,,,,,,,,,,,,,,,,,,,,,,,10,001,2021_Apr_09_1054,AB_pic_singleT2,2021.1.2,60.00996165378676,
AB,lag5,5,4,9,0.2,0.05,0.5,,0,7,7,11,,,,,,,,,,,microphone01.jpg,moose.jpg,knee.jpg,pingpongtable.jpg,showerhead01.jpg,swing.jpg,sandcastle.jpg,boxingglove01.jpg,mouse.jpg,table01.jpg,snowshovel.jpg,barrel01.jpg,banjo.jpg,squid.jpg,licenseplate.jpg,redfox.jpg,kneepad01c.jpg,94.85732199999984,97.60709409999981,97.34044760000006,None,1,1,11,97.84001059999991,None,97.84001059999991,None,.\resources\mouse.jpg,100.85645560000012,None,1,100.85645560000012,None,left,1.248708699999952,100.85645560000012,None,102.1397066999998,None,1,left,0.8771478000003299,102.1397066999998,None,102.1397066999998,None,103.03963759999988,None,None,104.03956041999973,None,104.03956041999973,None,,,,,,,,,,,,,,,,,,,,,,,,,,,,,,,,,,,,,,,,,,,,,,,,,,,,,,,,,,,,,,,,,10,001,2021_Apr_09_1054,AB_pic_singleT2,2021.1.2,60.00996165378676,
AB,lag2,2,5,7,0.2,0.05,0.5,,0,8,8,9,,,,,,,,,,,bowlingpin.jpg,foldingchair.jpg,rose.jpg,apron.jpg,lizard.jpg,toilet.jpg,humanskeleton.jpg,tricycle.jpg,urinal.jpg,locker.jpg,snowboard.jpg,table01.jpg,kite.jpg,bow.jpg,kneepad01c.jpg,beerbottle.jpg,fishskeleton.jpg,104.05623019999985,106.80642970000008,106.52316199999996,None,0,1,9,107.03934849999996,None,107.03934849999996,None,.\resources\humanskeleton.jpg,109.53917090000004,None,1,109.53917090000004,None,right,1.4857193999996525,109.53917090000004,None,111.05572500000017,None,1,left,1.329120299999886,111.05572500000017,None,111.05572500000017,None,112.40562409999984,None,None,113.40555612000017,None,113.40555612000017,None,,,,,,,,,,,,,,,,,,,,,,,,,,,,,,,,,,,,,,,,,,,,,,,,,,,,,,,,,,,,,,,,,10,001,2021_Apr_09_1054,AB_pic_singleT2,2021.1.2,60.00996165378676,
AB,lag6,6,5,11,0.2,0.05,0.5,,0,9,9,8,,,,,,,,,,,smokingpipe.jpg,firehydrant.jpg,shower.jpg,cobra.jpg,horse.jpg,bench01.jpg,punchingbag.jpg,parkfountain.jpg,kiwi03.jpg,ladder.jpg,mouse.jpg,saxophone.jpg,chair.jpg,dartboard.jpg,windshieldwiper02.jpg,cymbal.jpg,electrictoothbrush01c.jpg,113.42222140000013,116.1724221999998,115.88873319999993,None,1,1,13,116.40573929999982,None,116.40573929999982,None,.\resources\mouse.jpg,119.90507810000008,None,1,119.90507810000008,None,left,0.9837892000000465,119.90507810000008,None,120.92167740000014,None,1,left,0.22318600000016886,120.92167740000014,None,120.92167740000014,None,121.18833249999989,None,None,122.18824511999983,None,122.18824511999983,None,,,,,,,,,,,,,,,,,,,,,,,,,,,,,,,,,,,,,,,,,,,,,,,,,,,,,,,,,,,,,,,,,10,001,2021_Apr_09_1054,AB_pic_singleT2,2021.1.2,60.00996165378676,
AB,lag2,2,3,5,0.2,0.05,0.5,,0,10,10,4,,,,,,,,,,,turnstile.jpg,cigar.jpg,pooltable.jpg,trampoline.jpg,totempole.jpg,calendar.jpg,magneticcompass.jpg,hockeystick.jpg,accordion01.jpg,masquerademask01.jpg,bat.jpg,kite.jpg,lawnmower.jpg,cork02.jpg,cocktailshrimp02.jpg,nosmokingsign.jpg,beerbottle.jpg,122.20492039999999,124.9551222,124.6887357999999,None,0,1,7,125.20470419999992,None,125.20470419999992,None,.\resources\totempole.jpg,127.20458250000001,None,1,127.20458250000001,None,right,0.9962851000000228,127.20458250000001,None,128.23784549999982,None,1,left,0.49899539999978515,128.23784549999982,None,128.23784549999982,None,128.7544769000001,None,None,129.75483621999993,None,129.75483621999993,None,,,,,,,,,,,,,,,,,,,,,,,,,,,,,,,,,,,,,,,,,,,,,,,,,,,,,,,,,,,,,,,,,10,001,2021_Apr_09_1054,AB_pic_singleT2,2021.1.2,60.00996165378676,
AB,lag7,7,5,12,0.2,0.05,0.5,,0,11,11,7,,,,,,,,,,,fortunecookie.jpg,arrow02.jpg,footballhelmet.jpg,volleyball.jpg,tire.jpg,beerbottle.jpg,swordfish.jpg,leafrake.jpg,snowboard.jpg,tulip02.jpg,parrot01.jpg,pokerchips.jpg,hulahoop.jpg,uprightpiano01.jpg,giraffe.jpg,curtain.jpg,tortoise01.jpg,129.77148320000015,132.52089620000015,132.23758480000015,None,1,1,14,132.73754770000005,None,132.73754770000005,None,.\resources\pokerchips.jpg,136.50391039999977,None,1,136.50391039999977,None,left,1.1529975999997077,136.50391039999977,None,137.70383059999995,None,1,left,0.22509290000016335,137.70383059999995,None,137.70383059999995,None,137.9538066,None,None,138.95416461999994,None,138.95416461999994,None,,,,,,,,,,,,,,,,,,,,,,,,,,,,,,,,,,,,,,,,,,,,,,,,,,,,,,,,,,,,,,,,,10,001,2021_Apr_09_1054,AB_pic_singleT2,2021.1.2,60.00996165378676,
AB,lag4,4,4,8,0.2,0.05,0.5,,0,12,12,13,,,,,,,,,,,acousticguitar02.jpg,tulip02.jpg,ladder.jpg,englishcucumber.jpg,bathtub.jpg,bumpercar.jpg,mouse.jpg,soccerball.jpg,noparkingsign.jpg,slug.jpg,fortunecookie.jpg,guitarcase.jpg,callbell.jpg,accordion01.jpg,statue.jpg,redfox.jpg,kite.jpg,138.97082909999972,141.72021570000015,141.43689059999997,None,0,1,10,141.93686660000003,None,141.93686660000003,None,.\resources\soccerball.jpg,144.70333459999983,None,1,144.70333459999983,None,right,0.8415482000000338,144.70333459999983,None,145.56991770000013,None,1,left,0.4149438999997983,145.56991770000013,None,145.56991770000013,None,146.03698359999999,None,None,147.03704401999985,None,147.03704401999985,None,,,,,,,,,,,,,,,,,,,,,,,,,,,,,,,,,,,,,,,,,,,,,,,,,,,,,,,,,,,,,,,,,10,001,2021_Apr_09_1054,AB_pic_singleT2,2021.1.2,60.00996165378676,
AB,lag1,1,3,4,0.2,0.05,0.5,,0,13,13,3,,,,,,,,,,,holdfast.jpg,bathtub.jpg,greywolf.jpg,bluejay.jpg,boat.jpg,tank.jpg,dormer.jpg,kiwi03.jpg,toilet.jpg,stool01.jpg,sword01.jpg,discoball.jpg,ipad02.jpg,wallclock.jpg,key07.jpg,swing.jpg,baseballbat.jpg,147.03648280000016,149.78628690000005,149.51964199999975,None,0,0,6,150.01964839999982,None,150.01964839999982,None,.\resources\bluejay.jpg,151.78614229999994,None,1,151.78614229999994,None,right,1.1267235000000255,151.78614229999994,None,152.95270429999982,None,1,right,0.1922088999999687,152.95270429999982,None,152.95270429999982,None,153.16976369999975,None,None,154.16927372,None,154.16927372,None,,,,,,,,,,,,,,,,,,,,,,,,,,,,,,,,,,,,,,,,,,,,,,,,,,,,,,,,,,,,,,,,,10,001,2021_Apr_09_1054,AB_pic_singleT2,2021.1.2,60.00996165378676,
,,,,,,,,,,,,,,,,,,,,,,,,,,,,,,,,,,,,,,,,,,,,,,,,,,,,,,,,,,,,,,,,,,,,,,,,,,,,,space,29.805599600000278,154.18594759999996,None,,,,,,,,,,,,,,,,,,,,,,,,,,,,,,,,,,,,,,,,,,,,,,,,,,,,,,,,,,,,,10,001,2021_Apr_09_1054,AB_pic_singleT2,2021.1.2,60.00996165378676,
AB,lag6,6,5,11,0.2,0.05,0.5,ramp,,,,,0,0,0,0,,,,,,,hulahoop.jpg,schoolbus.jpg,tire.jpg,foot.jpg,curtain.jpg,lightswitch01.jpg,noparkingsign.jpg,acorn.jpg,mrpotatohead.jpg,badmintonracket.jpg,zipper.jpg,stubbywrench01a.jpg,bowlingball.jpg,sheep.jpg,granolabar01.jpg,parrot01.jpg,chair.jpg,,,,,1,0,13,,,,,.\resources\zipper.jpg,,,1,,,,,,,,,1,,,,,,,,,None,195.30015461999974,None,195.30015461999974,None,,,,,154.18594759999996,None,184.11762989999988,186.86696459999985,186.60032180000007,None,0.2,0.2161825999996836,0.26618729999972857,0.4661641999996391,0.5161650000000009,0.7162349000000177,0.7661865999998554,0.9661344999999528,1.0161346999998386,1.2160893000000215,1.266114000000016,1.466157899999871,1.5161620999997467,1.7161170999997921,1.7660810999996102,1.9660604999999123,2.016056699999808,2.21610069999997,2.2660384999999224,2.466015999999854,2.5160117000000355,2.716003499999715,2.7660031000000345,2.965998299999683,3.0159807,3.2159709999996267,3.2659562999997434,3.4659507999999732,3.5159513999997216,187.0503051999999,None,187.0503051999999,None,190.56670369999983,None,190.56670369999983,None,left,3.3862942000000658,190.56670369999983,None,194.01690569999982,None,right,1.2400413000000299,194.01690569999982,None,194.01690569999982,None,,,,,,10,001,2021_Apr_09_1054,AB_pic_singleT2,2021.1.2,60.00996165378676,
AB,lag4,4,4,8,0.19066666667,0.046667,0.48,ramp,,,,,0,1,1,1,,,,,,,foosballtable.jpg,bed.jpg,microphone01.jpg,electrictoothbrush01c.jpg,skippingrope.jpg,tennisracket.jpg,bacon.jpg,spicerack.jpg,cymbal.jpg,popcorn.jpg,dartboard.jpg,waterfall.jpg,spiderweb.jpg,toolbox02.jpg,dromedary.jpg,icecube02.jpg,bluejay.jpg,,,,,1,1,10,,,,,.\resources\spicerack.jpg,,,1,,,,,,,,,1,,,,,,,,,None,202.66583751999988,None,202.66583751999988,None,,,,,,,195.31680920000008,198.06616609999992,197.7995449,None,0.19066666667,0.19738869999991948,0.24738620000016454,0.43064460000005056,0.4806164000001445,0.6806043999999929,0.7139475999997558,0.9139308999997411,0.963923899999827,1.1473126000000775,1.1972513000000617,1.3805796000001465,1.4305684999999357,1.6305308000000878,1.6638739999998506,1.863863499999752,1.9138520000001336,2.0972444999997606,2.147170599999754,2.330507900000157,2.380480400000124,2.58049149999988,2.6138043000000835,,,,,,,198.31615319999992,None,198.31615319999992,None,200.93262460000005,None,200.93262460000005,None,left,1.4842482999997628,200.93262460000005,None,202.44918199999984,None,left,0.17579410000007556,202.44918199999984,None,202.44918199999984,None,,,,,,10,001,2021_Apr_09_1054,AB_pic_singleT2,2021.1.2,60.00996165378676,
AB,lag7,7,4,11,0.18133333334,0.043334,0.45999999999999996,ramp,,,,,0,2,2,2,,,,,,,lollipop04.jpg,sword01.jpg,snowshoe.jpg,pirateflag.jpg,tank.jpg,nunchuk.jpg,cruiseship.jpg,cashregister01.jpg,urinal.jpg,surfboard.jpg,scooter.jpg,birdhouse.jpg,foot.jpg,kangaroo.jpg,discoball.jpg,locker.jpg,flag.jpg,,,,,1,0,13,,,,,.\resources\scooter.jpg,,,1,,,,,,,,,1,,,,,,,,,None,211.58226112000003,None,211.58226112000003,None,,,,,,,202.68250099999977,205.43233640000017,205.16564759999983,None,0.18133333334,0.19634140000016487,0.22967400000015914,0.41296020000027056,0.4629643000002943,0.6462919000000511,0.6796948000001066,0.8629323000000113,0.9129407000000356,1.0962627000003522,1.1295755000001009,1.3128973000002588,1.362890900000366,1.5295445000001564,1.57962950000001,1.7628856000001178,1.8128735000000233,1.9795321999999942,2.02951209999992,2.212836100000004,2.2628426000001127,2.429494700000305,2.4795610999999553,2.6627955000003567,2.696144400000321,2.8794542000000547,2.9294592000001103,3.112769500000013,3.1461146999999983,205.68227690000003,None,205.68227690000003,None,208.83202290000008,None,208.83202290000008,None,left,2.264812599999914,208.83202290000008,None,211.13230109999995,None,right,0.4206076000000394,211.13230109999995,None,211.13230109999995,None,-10.004054227649341,150.00000012691598,,,,10,001,2021_Apr_09_1054,AB_pic_singleT2,2021.1.2,60.00996165378676,
AB,lag5,5,5,10,0.17200000001000001,0.040000999999999995,0.43999999999999995,ramp,,,,,0,3,3,3,,,,,,,pokerchips.jpg,dandelion.jpg,beerbottle.jpg,flamingo.jpg,calendar.jpg,paperairplane.jpg,schoolbus.jpg,harmonica.jpg,butterfly.jpg,saxophone.jpg,birthdaycandle.jpg,magneticcompass.jpg,pigeon.jpg,tree.jpg,peacock.jpg,doghouse.jpg,snowshovel.jpg,,,,,0,1,12,,,,,.\resources\saxophone.jpg,,,1,,,,,,,,,1,,,,,,,,,None,218.89796861999994,None,218.89796861999994,None,,,,,,,211.5989611,214.3483382999998,214.0816476,None,0.17200000001000001,0.17974810000032448,0.2129939999999806,0.3963274000002457,0.42972469999995155,0.59630530000004,0.6462956000000304,0.8129541000002973,0.8629471000003832,1.0296769999999924,1.0629350000003797,1.2462604000002102,1.2796750000002248,1.4462623000003987,1.4962384000000384,1.6628888000000188,1.696229399999993,1.8795655000003535,1.9128660999999738,2.096203200000218,2.1296008000003894,2.2961967999999615,2.3461804000003212,2.512828200000058,2.5461653000002116,2.729570599999988,2.762811000000056,,,214.59828059999973,None,214.59828059999973,None,217.36474769999995,None,217.36474769999995,None,right,0.7722380999998677,217.36474769999995,None,218.18135940000002,None,left,0.6835918000001584,218.18135940000002,None,218.18135940000002,None,-10.008113728385394,150.0000004103055,,,,10,001,2021_Apr_09_1054,AB_pic_singleT2,2021.1.2,60.00996165378676,
AB,lag2,2,3,5,0.16266666668000002,0.03666799999999999,0.41999999999999993,ramp,,,,,0,4,4,4,,,,,,,daddylonglegs.jpg,cobra.jpg,skippingrope.jpg,fridge.jpg,cow.jpg,bluejay.jpg,corn02.jpg,helicopter.jpg,icecube02.jpg,jeans01.jpg,beerbottle.jpg,swordfish.jpg,soccerball.jpg,football.jpg,urinal.jpg,table01.jpg,callbell.jpg,,,,,0,0,7,,,,,.\resources\cow.jpg,,,1,,,,,,,,,1,,,,,,,,,None,224.63086551999996,None,224.63086551999996,None,,,,,,,218.91463889999977,221.66443549999985,221.38111960000015,None,0.16266666668000002,0.1634979000000385,0.21347479999985808,0.36346000000003187,0.41345659999979034,0.563475699999799,0.6134456999998292,0.7634296999999606,0.8134334999999737,0.9634175000001051,0.9967639999999847,1.1634072000001652,1.1967460000000756,1.3633922999997594,1.3967290999999022,1.5633953999999903,1.5967130999997607,,,,,,,,,,,,,221.88110289999986,None,221.88110289999986,None,223.49763789999997,None,223.49763789999997,None,right,0.8552291999999397,223.49763789999997,None,224.39754839999978,None,right,0.20332009999992806,224.39754839999978,None,224.39754839999978,None,-10.012131620863755,150.00000116619816,,,,10,001,2021_Apr_09_1054,AB_pic_singleT2,2021.1.2,60.00996165378676,
AB,lag3,3,5,8,0.15333333335000002,0.03333499999999999,0.3999999999999999,ramp,,,,,0,5,5,5,,,,,,,ipad02.jpg,zipper.jpg,mummy.jpg,jellyfish.jpg,greywolf.jpg,birthdaycandle.jpg,golfball.jpg,recyclingbin.jpg,nosmokingsign.jpg,dreamcatcher.jpg,saxophone.jpg,smokingpipe.jpg,ducttape.jpg,curtain.jpg,hockeypuck.jpg,fridge.jpg,funnel.jpg,,,,,0,1,10,,,,,.\resources\recyclingbin.jpg,,,1,,,,,,,,,1,,,,,,,,,None,231.48036581999978,None,231.48036581999978,None,,,,,,,224.6475230000001,227.39741749999985,227.1307397999999,None,0.15333333335000002,0.16324699999995573,0.1965983000000051,0.3465876999998727,0.37997790000008536,0.5299715999999535,0.5632181999999375,0.7299561999998332,0.7632011000000603,0.9131858999999167,0.9465227999999115,1.096511499999906,1.1299315999999635,1.2798296999999366,1.3131610000000364,1.4631491999998616,1.4965065999999752,1.6631314999999631,1.6964634000000842,1.8464700999998058,1.8798649000000296,2.0297780000000785,2.0631091999998716,,,,,,,227.64737079999986,None,227.64737079999986,None,229.7138884000001,None,229.7138884000001,None,right,1.3029652999998689,229.7138884000001,None,231.0641482000001,None,left,0.3926696000003176,231.0641482000001,None,231.0641482000001,None,-10.016146384586873,150.00000343954432,,,,10,001,2021_Apr_09_1054,AB_pic_singleT2,2021.1.2,60.00996165378676,
AB,lag1,1,4,5,0.14400000002000002,0.03000199999999999,0.3799999999999999,ramp,,,,,0,6,6,6,,,,,,,marble.jpg,guitarcase.jpg,bowtie.jpg,skippingrope.jpg,spicerack.jpg,fortunecookie.jpg,cannon.jpg,daddylonglegs.jpg,bacon.jpg,humanskeleton.jpg,fishskeleton.jpg,boat.jpg,seagull.jpg,bluecheese.jpg,slug.jpg,christmastree.jpg,floorlamp.jpg,,,,,0,0,7,,,,,.\resources\spicerack.jpg,,,1,,,,,,,,,1,,,,,,,,,None,237.37995102000005,None,237.37995102000005,None,,,,,,,231.49745299999995,234.24687379999978,233.96351419999974,None,0.14400000002000002,0.14630629999965095,0.17963549999967654,0.32962159999988216,0.36304189999964365,0.4962746999999581,0.5296169999996891,0.6795964999996613,0.696258399999806,0.846247499999663,0.8795892999996795,1.029569399999673,1.046242799999618,1.1962266999998974,1.229568499999914,1.3629705999996986,1.3962200999999368,,,,,,,,,,,,,234.48015810000015,None,234.48015810000015,None,235.8800470000001,None,235.8800470000001,None,right,1.232800700000098,235.8800470000001,None,237.14663380000002,None,right,0.19033680000029563,237.14663380000002,None,237.14663380000002,None,-10.020068800568316,150.0000105615477,,,,10,001,2021_Apr_09_1054,AB_pic_singleT2,2021.1.2,60.00996165378676,
AB,lag6,6,5,11,0.13466666669000002,0.02666899999999999,0.3599999999999999,ramp,,,,,0,7,7,7,,,,,,,snowboard.jpg,horse.jpg,turnstile.jpg,anchor.jpg,makiroll.jpg,doghouse.jpg,bowlingpin.jpg,raccoon.jpg,spicerack.jpg,popcorn.jpg,cat.jpg,corn02.jpg,africanelephant.jpg,jellybean.jpg,cactus.jpg,knee.jpg,harmonica.jpg,,,,,1,0,13,,,,,.\resources\cat.jpg,,,1,,,,,,,,,1,,,,,,,,,None,245.64601242000018,None,245.64601242000018,None,,,,,,,237.39661389999992,240.14640640000016,239.87976309999976,None,0.13466666669000002,0.1455175999999483,0.16219150000006266,0.31216440000025614,0.32884150000018053,0.46214720000034504,0.49557370000002265,0.6288076000000729,0.6455562000001009,0.7954561999999896,0.8121251000002303,0.9455288000003748,0.9787794000003487,1.112106400000357,1.1454475000000457,1.2787634999999682,1.2955025000001115,1.428750100000343,1.4620816000001469,1.5954853000002913,1.6287507000001824,1.7620619000003899,1.7787191000002167,1.9120452000001933,1.9454625000003034,2.0787015000000792,2.112034500000391,2.2453637000003255,2.262032200000249,240.39638960000002,None,240.39638960000002,None,242.66289229999984,None,242.66289229999984,None,left,2.618023799999719,242.66289229999984,None,245.32937279999987,None,right,0.27950639999971827,245.32937279999987,None,245.32937279999987,None,-10.023905675578504,150.0000341115442,,,,10,001,2021_Apr_09_1054,AB_pic_singleT2,2021.1.2,60.00996165378676,
AB,lag3,3,4,7,0.12533333336000002,0.023335999999999992,0.33999999999999986,ramp,,,,,0,8,8,8,,,,,,,kangaroo.jpg,mattress.jpg,worldmap.jpg,cashregister01.jpg,motorcycle.jpg,dalmatian.jpg,fortunecookie.jpg,mrpotatohead.jpg,ostrich.jpg,chefshat.jpg,raccoon.jpg,brownsugar.jpg,birdfeeder.jpg,wheelchair.jpg,kneepad01c.jpg,pirateflag.jpg,dormer.jpg,,,,,0,1,9,,,,,.\resources\fortunecookie.jpg,,,1,,,,,,,,,1,,,,,,,,,None,254.29540092000016,None,254.29540092000016,None,,,,,,,245.66267860000016,248.41251909999983,248.1458302000001,None,0.12533333336000002,0.129457900000034,0.16278849999980594,0.2795356999999967,0.3128363000000718,0.42943819999982225,0.44610419999980877,0.579507299999932,0.5960946000000149,0.7294957999997678,0.7460870999998406,0.879406999999901,0.8960722000001624,1.029475100000127,1.0460690999998405,1.1793861999999535,1.1960484000001088,1.329459499999757,1.3460509999999886,1.4793737999998484,1.496027199999844,,,,,,,,,248.64579279999998,None,248.64579279999998,None,250.16235060000008,None,250.16235060000008,None,right,3.454505600000175,250.16235060000008,None,253.64543839999988,None,left,0.6035197000001062,253.64543839999988,None,253.64543839999988,None,-10.027318572479201,150.00011256849675,,,,10,001,2021_Apr_09_1054,AB_pic_singleT2,2021.1.2,60.00996165378676,
AB,lag4,4,4,8,0.11600000003000002,0.020002999999999993,0.31999999999999984,ramp,,,,,0,9,9,9,,,,,,,birdhouse.jpg,well.jpg,tent.jpg,tree.jpg,exitsign.jpg,guitarcase.jpg,lawnmower.jpg,donut.jpg,volleyball.jpg,parkingmeter.jpg,fortunecookie.jpg,greywolf.jpg,birthdaycandle.jpg,africanelephant.jpg,bowtie.jpg,chair.jpg,dartboard.jpg,,,,,0,0,10,,,,,.\resources\donut.jpg,,,1,,,,,,,,,1,,,,,,,,,None,259.9950112199998,None,259.9950112199998,None,,,,,,,254.31206539999994,257.0618494,256.7952028999998,None,0.11600000003000002,0.1296744999999646,0.146338100000321,0.26297500000009677,0.27973229999997784,0.3963941000001796,0.41297090000034586,0.5296231000002081,0.5462883000000147,0.6629643000001124,0.6962978000001385,0.7963517000002867,0.8296268000003693,0.9463468000003559,0.9629402000000482,1.0796030000001338,1.0962655000002997,1.2129143000001932,1.2295693000000938,1.3463189000003695,1.3629049000001032,1.4795517000002292,1.4963040000002366,,,,,,,257.2951678999998,None,257.2951678999998,None,258.8117268000001,None,258.8117268000001,None,right,0.9251334000000497,258.8117268000001,None,259.7783334999999,None,right,0.1985090000002856,259.7783334999999,None,259.7783334999999,None,-10.02923253253817,150.0003767974606,,,,10,001,2021_Apr_09_1054,AB_pic_singleT2,2021.1.2,60.00996165378676,
AB,lag5,5,4,9,0.10666666670000002,0.016669999999999994,0.2999999999999998,ramp,,,,,0,10,10,10,,,,,,,redfox.jpg,ironingboard01.jpg,tortoise01.jpg,lighthouse.jpg,key07.jpg,escalator.jpg,wallclock.jpg,worldmap.jpg,shovel01.jpg,swordfish.jpg,pokerchips.jpg,spear02.jpg,greywolf.jpg,flag.jpg,showerhead01.jpg,cactus.jpg,nosmokingsign.jpg,,,,,0,0,11,,,,,.\resources\shovel01.jpg,,,1,,,,,,,,,1,,,,,,,,,None,265.29460191999976,None,265.29460191999976,None,,,,,,,260.0116469999998,262.7614445999998,262.4948005000001,None,0.10666666670000002,0.11146049999979368,0.12813329999971756,0.24488719999999375,0.2614592999998422,0.3614517999999407,0.3781096999996407,0.4781043999996655,0.4947696999997788,0.611434499999632,0.6280931999999666,0.7280889999997271,0.7448362000000088,0.8614080999996077,0.878078799999912,0.978065499999957,0.9948176999996576,1.0947260999996615,1.1114040999996178,1.2280502999997225,1.2448038999996243,1.3447931000000608,1.3613790999997946,1.4780335000000377,1.4947766000000229,,,,,263.0114229999999,None,263.0114229999999,None,264.51131410000016,None,264.51131410000016,None,right,0.5216107999999622,264.51131410000016,None,265.07794079999985,None,right,0.17899400000032983,265.07794079999985,None,265.07794079999985,None,-10.025706741115878,150.0012698415876,,,,10,001,2021_Apr_09_1054,AB_pic_singleT2,2021.1.2,60.00996165378676,
AB,lag2,2,3,5,0.09733333337000002,0.013336999999999995,0.3,ramp,,,,,0,11,11,11,,,,,,,corn02.jpg,safe.jpg,sausage.jpg,bluecheese.jpg,arrow02.jpg,bridge.jpg,birthdaycandle.jpg,ironingboard01.jpg,greathornowl.jpg,cashregister01.jpg,smokingpipe.jpg,jeans01.jpg,electrictoothbrush01c.jpg,fortunecookie.jpg,drumset.jpg,panda.jpg,vulture.jpg,,,,,0,0,7,,,,,.\resources\arrow02.jpg,,,1,,,,,,,,,1,,,,,,,,,None,269.89426042,None,269.89426042,None,,,,,,,265.31126700000004,268.0610564999997,267.79441270000007,None,0.09733333337000002,0.11115560000007463,0.12782430000015665,0.21115159999999378,0.22781840000016018,0.3278062999997928,0.3445521999997254,0.4444604000000254,0.46113070000001244,0.544539900000018,0.5611291999998684,0.6611268999999993,0.6777791999998044,0.7777725000000828,0.7945221999998466,0.8777651999998852,0.8945195000001149,,,,,,,,,,,,,268.3110422,None,268.3110422,None,269.21097899999995,None,269.21097899999995,None,right,0.501904100000047,269.21097899999995,None,269.7609416999999,None,right,0.11192499999970096,269.7609416999999,None,269.7609416999999,None,-10.00249856630692,150.00425848696634,,,,10,001,2021_Apr_09_1054,AB_pic_singleT2,2021.1.2,60.00996165378676,
AB,lag1,1,4,5,0.08800000004000003,0.010003999999999996,0.3,ramp,,,,,0,12,12,12,,,,,,,horseshoe.jpg,bowlingball.jpg,parkfountain.jpg,pokerchips.jpg,key07.jpg,saxophone.jpg,swordfish.jpg,toucan.jpg,humanskeleton.jpg,licenseplate.jpg,fingerprint.jpg,penguin.jpg,armadillo.jpg,platypus.jpg,frisbee.jpg,sausage.jpg,windmill.jpg,,,,,1,0,7,,,,,.\resources\key07.jpg,,,1,,,,,,,,,1,,,,,,,,,None,276.3276316199998,None,276.3276316199998,None,,,,,,,269.9109281000001,272.6607822000001,272.3940862999998,None,0.08800000004000003,0.09421079999992799,0.11088029999973514,0.1942903999997725,0.2108805999996548,0.2942910999995547,0.31087339999976393,0.3942713999999796,0.41086429999995744,0.49417769999990924,0.5108470999998644,0.5942635999999766,0.6108542999995734,0.677507599999899,0.6942493999999897,0.7774959999997009,0.7942446999995809,,,,,,,,,,,,,272.9107614999998,None,272.9107614999998,None,273.7107025,None,273.7107025,None,left,2.3061202999997477,273.7107025,None,276.06098699999984,None,right,0.22785849999991115,276.06098699999984,None,276.06098699999984,None,-9.911760661403989,150.01379788098834,,,,10,001,2021_Apr_09_1054,AB_pic_singleT2,2021.1.2,60.00996165378676,
AB,lag7,7,5,12,0.07866666671000003,0.0066709999999999955,0.3,ramp,,,,,0,13,13,13,,,,,,,cupcake.jpg,golfball.jpg,beerbottle.jpg,alligator.jpg,rollerblade.jpg,horse.jpg,parkfountain.jpg,bull.jpg,locker.jpg,guitarcase.jpg,lollipop04.jpg,cactus.jpg,licenseplate.jpg,lawnmower.jpg,toolbox02.jpg,fireplace.jpg,dartboard.jpg,,,,,0,1,14,,,,,.\resources\cactus.jpg,,,1,,,,,,,,,0,,,,,,,,,None,281.92739512000014,None,281.92739512000014,None,,,,,,,276.3443035,279.0936683,278.8270179000001,None,0.07866666671000003,0.079902100000254,0.09655010000005859,0.17989089999991847,0.19655899999997928,0.26321180000013555,0.27986730000020543,0.346534100000099,0.36320019999993747,0.42989299999999275,0.4465264999998908,0.513249800000267,0.5298527999998441,0.5965224999999919,0.613195899999937,0.6798546999998507,0.6965457000001152,0.763204400000177,0.7798393000002761,0.863211500000034,0.8798359000002165,0.9465316999999231,0.963162999999895,1.0298258000002534,1.0465371999998752,1.1131593000000066,1.1298224000001937,1.1964812999999594,1.213145700000041,279.34366950000003,None,279.34366950000003,None,280.64356880000014,None,280.64356880000014,None,right,1.0772251000003052,280.64356880000014,None,281.76062539999975,None,right,0.14425829999981943,281.76062539999975,None,281.76062539999975,None,-9.62852326038188,150.04007886186594,1.2798129000002518,1.2964829000002283,,10,001,2021_Apr_09_1054,AB_pic_singleT2,2021.1.2,60.00996165378676,
AB,lag1,1,3,4,0.06933333338000003,0.0033379999999999955,0.3,ramp,,,,,0,14,14,14,,,,,,,coffeemaker.jpg,humanskeleton.jpg,cross01.jpg,saltshaker03a.jpg,lily.jpg,floorlamp.jpg,daddylonglegs.jpg,baseballbat.jpg,rollerblade.jpg,pooltable.jpg,guitarcase.jpg,chair.jpg,banjo.jpg,acousticguitar02.jpg,wallclock.jpg,ant.jpg,mrpotatohead.jpg,,,,,0,0,6,,,,,.\resources\saltshaker03a.jpg,,,1,,,,,,,,,1,,,,,,,,,None,286.6102406200001,None,286.6102406200001,None,,,,,,,281.943945,284.6932870999999,284.40997579999976,None,0.06933333338000003,0.0794568999999683,0.09612470000001849,0.14611500000000888,0.1627745999999206,0.22945200000003751,0.24610829999983252,0.2961055999999189,0.3128094999997302,0.3627622999997584,0.37942999999995664,0.4460917999999765,0.4627707999998165,0.512795399999959,0.5294266999999309,,,,,,,,,,,,,,,284.92661369999996,None,284.92661369999996,None,285.4599094,None,285.4599094,None,right,0.9569867000000158,285.4599094,None,286.46029180000005,None,right,0.13253769999982978,286.46029180000005,None,286.46029180000005,None,-8.991275330917167,150.09295283556207,,,,10,001,2021_Apr_09_1054,AB_pic_singleT2,2021.1.2,60.00996165378676,
AB,lag6,6,5,11,0.06000000005000003,0,0.3,main,,,,,0,15,15,15,,,,,,,frisbee.jpg,bullet.jpg,windmill.jpg,exitsign.jpg,wallclock.jpg,seagull.jpg,coffeemaker.jpg,cannon.jpg,cheetah.jpg,pooltable.jpg,fridge.jpg,witchhat.jpg,chainsaw.jpg,church.jpg,toolbox02.jpg,nosmokingsign.jpg,crosscountryski.jpg,,,,,1,0,13,,,,,.\resources\fridge.jpg,,,0,,,,,,,,,1,,,,,,,,,None,292.2932405199998,None,292.2932405199998,None,,,,,,,286.62693379999973,289.3762948999997,289.1096398999998,None,0.05923770901373492,0.0626511999998911,0.07930820000001404,0.12937539999984438,0.14597679999997126,0.17930489999980637,0.19598129999985758,0.24597659999972166,0.2626298999998653,0.31265159999975367,0.329299600000013,0.36262959999976374,0.3792945999998665,0.4292886999996881,0.44596069999988686,0.4792808999995941,0.495960699999614,0.5459486999998262,0.5626514999999017,0.5959626999997454,0.6126113999998779,0.6626075999997738,0.6792680999997174,0.7126010999995742,0.7292718999997305,0.7792638999999326,0.7959232999996857,0.845927799999572,0.8626024999998663,289.6262769,None,289.6262769,None,290.4928795999999,None,290.4928795999999,None,right,1.5879227000000355,290.4928795999999,None,292.1265411999998,None,right,0.13838570000007167,292.1265411999998,None,292.1265411999998,None,-7.999913325538949,150.16649192854933,,,,10,001,2021_Apr_09_1054,AB_pic_singleT2,2021.1.2,60.00996165378676,
AB,lag1,1,5,6,0.06000000005000003,0,0.3,main,,,,,0,16,16,16,,,,,,,tiger02.jpg,spicerack.jpg,floorlamp.jpg,swordfish.jpg,grizzly.jpg,bed.jpg,cloud.jpg,mailbox02.jpg,bow.jpg,church.jpg,fishskeleton.jpg,licenseplate.jpg,tent.jpg,totempole.jpg,bowlingpin.jpg,nunchuk.jpg,bat.jpg,,,,,0,1,8,,,,,.\resources\bed.jpg,,,1,,,,,,,,,1,,,,,,,,,None,298.1594576199999,None,298.1594576199999,None,,,,,,,292.3098654999999,295.05923059999986,294.79256320000013,None,0.06713085685379419,0.07900959999960833,0.09568239999998696,0.14567859999988286,0.16236690000005183,0.21233249999977488,0.22901329999967857,0.27900369999997565,0.29565869999987626,0.3456677999997737,0.3623242999997274,0.4123338999997941,0.4289989999997488,0.4789832999999817,0.4956942999997409,0.5456343999999262,0.5623115999997026,0.6123013999999785,0.6289786999996068,,,,,,,,,,,295.3092077000001,None,295.3092077000001,None,295.942493,None,295.942493,None,right,1.9383426999997937,295.942493,None,297.92613010000014,None,left,0.18682760000001508,297.92613010000014,None,297.92613010000014,None,-9.313898813025414,150.10957987864342,,,,10,001,2021_Apr_09_1054,AB_pic_singleT2,2021.1.2,60.00996165378676,
AB,lag5,5,3,8,0.06000000005000003,0,0.3,main,,,,,0,17,17,17,,,,,,,sandcastle.jpg,cannon.jpg,bow.jpg,well.jpg,kiwi03.jpg,donut.jpg,jeep.jpg,cigar.jpg,windshieldwiper02.jpg,sledgehammer.jpg,turnstile.jpg,bowtie.jpg,eyepatch.jpg,nunchuk.jpg,lizard.jpg,tennisracket.jpg,crosscountryski.jpg,,,,,0,0,10,,,,,.\resources\cigar.jpg,,,1,,,,,,,,,1,,,,,,,,,None,302.82532772,None,302.82532772,None,,,,,,,298.17611050000005,300.9254796,300.65881660000014,None,0.06738887635257933,0.0791798000000199,0.09586179999996602,0.1458674999998948,0.1625586000000112,0.21252529999992475,0.2291986000000179,0.27917710000019724,0.29583820000016203,0.34584610000001703,0.3625191999999515,0.4125194000002921,0.4291791999999077,0.479164899999887,0.4958308999998735,0.5458254000000125,0.5624867000001359,0.6124746000000414,0.629149100000177,0.6791527000000315,0.695820299999923,0.7458111000000827,0.762496000000283,,,,,,,301.1754453999997,None,301.1754453999997,None,301.9420627999998,None,301.9420627999998,None,right,0.6987626000000091,301.9420627999998,None,302.67531689999987,None,right,0.13365469999962443,302.67531689999987,None,302.67531689999987,None,-8.93611412137872,150.16362746494474,,,,10,001,2021_Apr_09_1054,AB_pic_singleT2,2021.1.2,60.00996165378676,
AB,lag3,3,4,7,0.06000000005000003,0,0.3,main,,,,,0,18,18,18,,,,,,,hockeystick.jpg,zebra.jpg,dartboard.jpg,snowshovel.jpg,lizard.jpg,duck01.jpg,dragonfly01.jpg,coffeemaker.jpg,ladybug03.jpg,chefshat.jpg,whiteout.jpg,baseballbat.jpg,footballhelmet.jpg,ducttape.jpg,rooster.jpg,fingerprint.jpg,smokingpipe.jpg,,,,,0,0,9,,,,,.\resources\dragonfly01.jpg,,,1,,,,,,,,,1,,,,,,,,,None,307.4089987199999,None,307.4089987199999,None,,,,,,,302.8420077999999,305.5917958,305.32514219999985,None,0.06835213289429089,0.07846100000006118,0.09513040000001638,0.1451756999999816,0.1617762999999286,0.21177639999996245,0.22847300000012183,0.2784397000000354,0.2950984999997672,0.34510339999997086,0.3617675999998937,0.4117734000001292,0.428430699999808,0.4951071000000411,0.5117562000000362,0.5617551000000276,0.5784150999998019,0.6284522000000834,0.6450881000000663,0.6950941000000057,0.7117394000001696,,,,,,,,,305.8417733000001,None,305.8417733000001,None,306.55839639999976,None,306.55839639999976,None,right,0.642445299999963,306.55839639999976,None,307.24212279999983,None,right,0.13485190000028524,307.24212279999983,None,307.24212279999983,None,-8.637231262605047,150.21244608914668,,,,10,001,2021_Apr_09_1054,AB_pic_singleT2,2021.1.2,60.00996165378676,
AB,lag2,2,5,7,0.06000000005000003,0,0.3,main,,,,,0,19,19,19,,,,,,,pig.jpg,rose.jpg,motorcycle.jpg,pumpkin.jpg,chefshat.jpg,apron.jpg,tennisracket.jpg,candycane01a.jpg,bat.jpg,squid.jpg,accordion01.jpg,parrot01.jpg,nunchuk.jpg,floorlamp.jpg,seal.jpg,ducttape.jpg,ladder.jpg,,,,,0,1,9,,,,,.\resources\tennisracket.jpg,,,0,,,,,,,,,1,,,,,,,,,None,313.75832191999996,None,313.75832191999996,None,,,,,,,307.4254815999998,310.1748026,309.9081465999998,None,0.06996275334215515,0.07906019999973068,0.09569519999968179,0.1457007999997586,0.16237839999985226,0.21237449999989622,0.22902569999996558,0.29567790000010064,0.31237830000009126,0.36234269999977187,0.379038799999762,0.4290089999999509,0.44568189999972674,0.49572649999981877,0.5123313999997663,0.5623372000000018,0.5790091999997458,0.6456736999998611,0.6623375999997734,0.7123188999999002,0.7289953999998033,,,,,,,,,310.42478759999995,None,310.42478759999995,None,311.15806059999977,None,311.15806059999977,None,left,2.402798399999938,311.15806059999977,None,313.62504469999976,None,left,0.08778729999994539,313.62504469999976,None,313.62504469999976,None,-8.43876110253425,150.25507806491697,,,,10,001,2021_Apr_09_1054,AB_pic_singleT2,2021.1.2,60.00996165378676,
AB,lag4,4,3,7,0.06000000005000003,0,0.3,main,,,,,0,20,20,20,,,,,,,pingpongtable.jpg,baseballbat.jpg,arrow02.jpg,bull.jpg,lightswitch01.jpg,calendar.jpg,totempole.jpg,skippingrope.jpg,zipper.jpg,hammerheadshark.jpg,granolabar01.jpg,foosballtable.jpg,bacon.jpg,dalmatian.jpg,stubbywrench01a.jpg,treadmill.jpg,tiger02.jpg,,,,,0,0,9,,,,,.\resources\totempole.jpg,,,1,,,,,,,,,1,,,,,,,,,None,319.37458232000006,None,319.37458232000006,None,,,,,,,313.77500280000004,316.52434129999983,316.2576832999998,None,0.07168401631634545,0.07883870000023308,0.09550110000009226,0.14552380000031917,0.16216000000031272,0.2288221000003432,0.24550390000013067,0.29548390000036306,0.3121456000003491,0.36215230000016163,0.3788045000001148,0.44549400000005335,0.46215840000013486,0.512141100000008,0.5288193999999748,0.5787927999999738,0.5955304000003707,0.6454766000001655,0.6621219000003293,0.7287910000000011,0.7454768000002332,,,,,,,,,316.77433029999975,None,316.77433029999975,None,317.5242662999999,None,317.5242662999999,None,right,1.636624700000084,317.5242662999999,None,319.22459879999997,None,right,0.10423960000025545,319.22459879999997,None,319.22459879999997,None,-9.245036625708748,150.21674857199307,,,,10,001,2021_Apr_09_1054,AB_pic_singleT2,2021.1.2,60.00996165378676,
AB,lag7,7,5,12,0.06000000005000003,0,0.3,main,,,,,0,21,21,21,,,,,,,dormer.jpg,lightswitch01.jpg,rose.jpg,bull.jpg,jackrabbit.jpg,hockeystick.jpg,baseballbat.jpg,cobra.jpg,toilet.jpg,nose.jpg,redfox.jpg,scooter.jpg,recyclingbin.jpg,tulip02.jpg,spicerack.jpg,bridge.jpg,swing.jpg,,,,,0,0,14,,,,,.\resources\scooter.jpg,,,1,,,,,,,,,1,,,,,,,,,None,324.32423861999985,None,324.32423861999985,None,,,,,,,319.3912464,322.1406057999998,321.8739470999999,None,0.07452047131295446,0.07901070000025356,0.09566679999988992,0.16234269999995377,0.1790288000001965,0.22900860000027023,0.24567720000004556,0.3123315000002549,0.3290369000001192,0.3790367999999944,0.39564670000027036,0.46232830000008107,0.47898010000017166,0.5289738999999827,0.5456465000002026,0.6122933999999987,0.6289821000000302,0.678973600000063,0.6956669000001057,0.7456271999999444,0.7623029999999744,0.8289718000000903,0.8456317000000126,0.8956785000000309,0.9122841000003064,0.9789326000000074,0.9956268999999338,1.045599300000049,1.0622650000000249,322.3906004999999,None,322.3906004999999,None,323.5404989999997,None,323.5404989999997,None,right,0.5803319999999985,323.5404989999997,None,324.1742497,None,right,0.12257379999982732,324.1742497,None,324.1742497,None,-9.122721059642926,150.24311744572128,1.1289397999998982,1.1456037000002652,,10,001,2021_Apr_09_1054,AB_pic_singleT2,2021.1.2,60.00996165378676,
AB,lag6,6,5,11,0.06000000005000003,0,0.3,main,,,,,0,22,22,22,,,,,,,cow.jpg,dreamcatcher.jpg,tortoise01.jpg,snowshoe.jpg,anchor.jpg,crown.jpg,ducttape.jpg,spear02.jpg,scorpion.jpg,lily.jpg,alligator.jpg,waterfountain02.jpg,bench01.jpg,makiroll.jpg,sausage.jpg,locker.jpg,brownsugar.jpg,,,,,0,0,13,,,,,.\resources\alligator.jpg,,,1,,,,,,,,,0,,,,,,,,,None,330.32383112000014,None,330.32383112000014,None,,,,,,,324.3408939000001,327.0902523999998,326.82361489999994,None,0.07201528339408877,0.07864819999986139,0.09536439999965296,0.14531579999993482,0.16198279999980514,0.2286655999996583,0.24530229999982112,0.29530419999991864,0.3119683999998415,0.3619595999998637,0.3786533999996209,0.4452937999999449,0.4619511999999304,0.5119381999998041,0.5286206999999195,0.578611699999783,0.595273399999769,0.6619728999999097,0.6786048999997547,0.728611699999874,0.7452815999999984,0.7952613999996174,0.811924099999942,0.8786159999999654,0.8952733999999509,0.9452637999997933,0.9619262999999592,1.011912499999653,1.0285909999997784,327.34023819999993,None,327.34023819999993,None,328.3734921999999,None,328.3734921999999,None,right,1.6273246000000654,328.3734921999999,None,330.04047919999994,None,left,0.25643970000010086,330.04047919999994,None,330.04047919999994,None,-9.047157390321605,150.26847315343923,,,,10,001,2021_Apr_09_1054,AB_pic_singleT2,2021.1.2,60.00996165378676,
AB,lag7,7,5,12,0.06000000005000003,0,0.3,main,,,,,0,23,23,23,,,,,,,urinal.jpg,greathornowl.jpg,safe.jpg,duck01.jpg,fireplace.jpg,mouse.jpg,bow.jpg,trumpet.jpg,armadillo.jpg,mailbox02.jpg,horseshoe.jpg,electrictoothbrush01c.jpg,ear.jpg,lollipop04.jpg,bacon.jpg,hulahoop.jpg,raccoon.jpg,,,,,1,0,14,,,,,.\resources\electrictoothbrush01c.jpg,,,1,,,,,,,,,1,,,,,,,,,None,336.97332491999975,None,336.97332491999975,None,,,,,,,330.34049619999996,333.0898029,332.8231434999998,None,0.07080313192989447,0.07889119999981631,0.09555649999992966,0.14553769999974975,0.16220260000000053,0.2288696999999047,0.2455190999999104,0.2955317999999352,0.31219459999965693,0.3621917000000394,0.37883489999967424,0.42884890000004816,0.44551549999960116,0.5121866999998019,0.5288430999999036,0.5788113999997222,0.5955071999997017,0.6454942999998821,0.6621620999999323,0.7121643999998923,0.7288533999999345,0.7954737000000023,0.8121547999999166,0.862130900000011,0.8788179999996828,0.9288149999997586,0.9454795999999988,0.9954844999997476,1.0121344999997746,333.3397973000001,None,333.3397973000001,None,334.4230560000001,None,334.4230560000001,None,left,2.2737730000003467,334.4230560000001,None,336.74000049999995,None,right,0.18883370000003197,336.74000049999995,None,336.74000049999995,None,-8.952967771619248,150.29637478884578,1.0621720999997706,1.0788015999996787,,10,001,2021_Apr_09_1054,AB_pic_singleT2,2021.1.2,60.00996165378676,
AB,lag5,5,3,8,0.06000000005000003,0,0.3,main,,,,,0,24,24,24,,,,,,,moon.jpg,surfboard.jpg,tie02.jpg,scooter.jpg,eyepatch.jpg,musicsheet.jpg,athleticsock.jpg,sausage.jpg,shovel01.jpg,escalator.jpg,cupcake.jpg,bull.jpg,toad.jpg,greywolf.jpg,skunk.jpg,snowboard.jpg,skippingrope.jpg,,,,,1,0,10,,,,,.\resources\sausage.jpg,,,0,,,,,,,,,0,,,,,,,,,None,342.30627821999985,None,342.30627821999985,None,,,,,,,336.99002329999985,339.73932669999976,339.4726870999998,None,0.07279103703596634,0.07829259999971327,0.09495059999972,0.1616306999999324,0.17827489999990576,0.2282759999998234,0.2449423999996725,0.2949525999997604,0.3116112999996403,0.37827359999982946,0.3949260999997932,0.44494229999963864,0.46158809999997175,0.5115888000000268,0.5282579999998234,0.5949213999997482,0.6115775999996913,0.6615890999996736,0.6782358000000386,0.728248099999746,0.7449056000000382,0.811562800000047,0.8282352999999603,,,,,,,339.98934439999994,None,339.98934439999994,None,340.8225975999999,None,340.8225975999999,None,right,1.2821880999999848,340.8225975999999,None,342.1396031999998,None,left,0.14125089999970442,342.1396031999998,None,342.1396031999998,None,-8.854964278746523,150.32511245304917,,,,10,001,2021_Apr_09_1054,AB_pic_singleT2,2021.1.2,60.00996165378676,
AB,lag3,3,3,6,0.06000000005000003,0,0.3,main,,,,,0,25,25,25,,,,,,,redfox.jpg,mattress.jpg,sandcastle.jpg,leafrake.jpg,sword01.jpg,humanskeleton.jpg,trampoline.jpg,stubbywrench01a.jpg,flamingo.jpg,tricycle.jpg,chimney.jpg,cruiseship.jpg,callbell.jpg,rollerblade.jpg,moon.jpg,guitarcase.jpg,eye.jpg,,,,,0,0,8,,,,,.\resources\humanskeleton.jpg,,,1,,,,,,,,,1,,,,,,,,,None,347.08878322,None,347.08878322,None,,,,,,,342.3229338000001,345.0722786000001,344.80562370000007,None,0.06901020469592538,0.0780958999998802,0.09474319999981162,0.14476289999993242,0.1614095999998426,0.21143399999982648,0.2280955000001086,0.2780926999998883,0.2947418999997353,0.36140179999983957,0.3780753000000914,0.4280562999997528,0.4447337999999945,0.49474430000009306,0.5113922000000457,0.5614126000000397,0.578063999999813,0.628056199999719,0.6447312000000238,,,,,,,,,,,345.3222691000001,None,345.3222691000001,None,345.9722204999998,None,345.9722204999998,None,right,0.9486215000001721,345.9722204999998,None,346.95548359999975,None,right,0.11731589999999414,346.95548359999975,None,346.95548359999975,None,-9.335985094893728,150.3006344627672,,,,10,001,2021_Apr_09_1054,AB_pic_singleT2,2021.1.2,60.00996165378676,
AB,lag2,2,3,5,0.06000000005000003,0,0.3,main,,,,,0,26,26,26,,,,,,,scorpion.jpg,fortunecookie.jpg,curtain.jpg,moose.jpg,bat.jpg,snowshoe.jpg,greatwhiteshark.jpg,horseshoe.jpg,skunk.jpg,hockeypuck.jpg,accordion01.jpg,flag.jpg,firehydrant.jpg,pirateflag.jpg,microphone01.jpg,stubbywrench01a.jpg,greathornowl.jpg,,,,,0,1,7,,,,,.\resources\bat.jpg,,,1,,,,,,,,,1,,,,,,,,,None,352.1555852199998,None,352.1555852199998,None,,,,,,,347.10546680000016,349.8552519,349.58863489999976,None,0.07530392061621283,0.07855079999990267,0.0952212000001964,0.16189310000027035,0.17857150000008915,0.22855620000018462,0.24521379999987403,0.31187210000007326,0.3285378000000492,0.3785355999998501,0.39519620000010036,0.4618884999999864,0.47854880000022604,0.5285456000001432,0.5452091000001928,0.6118658000000323,0.6285390000002735,,,,,,,,,,,,,350.1052657,None,350.1052657,None,350.73854679999977,None,350.73854679999977,None,right,1.1502513000000363,350.73854679999977,None,351.9218056999998,None,left,0.20703279999997903,351.9218056999998,None,351.9218056999998,None,-9.218574612197482,150.3170610644145,,,,10,001,2021_Apr_09_1054,AB_pic_singleT2,2021.1.2,60.00996165378676,
AB,lag1,1,5,6,0.06000000005000003,0,0.3,main,,,,,0,27,27,27,,,,,,,hand01b.jpg,pigeon.jpg,bat.jpg,uprightpiano01.jpg,kangaroo.jpg,bow.jpg,squirrel.jpg,pirateflag.jpg,cannon.jpg,exitsign.jpg,cheetah.jpg,cruiseship.jpg,kite.jpg,knee.jpg,cocktailshrimp02.jpg,worldmap.jpg,punchingbag.jpg,,,,,0,0,8,,,,,.\resources\bow.jpg,,,1,,,,,,,,,1,,,,,,,,,None,356.92146592000006,None,356.92146592000006,None,,,,,,,352.17221100000006,354.9215651999998,354.6549187999999,None,0.07267343934163206,0.07843219999995199,0.09509209999987434,0.16176550000000134,0.1784336999999141,0.22842930000024353,0.24508650000007037,0.295086000000083,0.311749399999826,0.3784106000002794,0.3950776000001497,0.445068099999844,0.4617392000000109,0.5117369999998118,0.5283998000004431,0.5950560999999652,0.6117000000003827,0.6617033000002266,0.678388399999676,,,,,,,,,,,355.17157,None,355.17157,None,355.85480970000026,None,355.85480970000026,None,right,0.8979990000007092,355.85480970000026,None,356.7880973000001,None,right,0.11669870000059746,356.7880973000001,None,356.7880973000001,None,-9.17017610945421,150.33062489285587,,,,10,001,2021_Apr_09_1054,AB_pic_singleT2,2021.1.2,60.00996165378676,
AB,lag4,4,5,9,0.06000000005000003,0,0.3,main,,,,,0,28,28,28,,,,,,,rose.jpg,electricguitar01.jpg,dalmatian.jpg,wallclock.jpg,africanelephant.jpg,englishcucumber.jpg,cashregister01.jpg,bridge.jpg,microwave.jpg,lightswitch01.jpg,electrictoothbrush01c.jpg,dormer.jpg,xylophone.jpg,jeep.jpg,stool01.jpg,alligator.jpg,dolphin01.jpg,,,,,1,0,11,,,,,.\resources\microwave.jpg,,,1,,,,,,,,,1,,,,,,,,,None,362.3048187199996,None,362.3048187199996,None,,,,,,,356.93809020000026,359.68787989999964,359.4212544000002,None,0.06886074174919335,0.07860310000069148,0.09526420000020153,0.14525959999991755,0.1618967000003977,0.21190170000045327,0.2285691000006409,0.2785706000004211,0.2952253000003111,0.3452320000005784,0.3619029999999839,0.42854870000064693,0.4452203999999256,0.49523279999993974,0.5119178000004467,0.5618904000002658,0.578571600000032,0.6285298000002513,0.6452014000005875,0.695197900000494,0.7118617000005543,0.7618766000005053,0.778544800000418,0.8285677000003489,0.8452163000001747,,,,,359.93789279999964,None,359.93789279999964,None,360.78782200000023,None,360.78782200000023,None,left,1.228998099999444,360.78782200000023,None,362.0715293000003,None,right,0.18529419999958918,362.0715293000003,None,362.0715293000003,None,-9.106340401505651,150.3464716034029,,,,10,001,2021_Apr_09_1054,AB_pic_singleT2,2021.1.2,60.00996165378676,
AB,lag3,3,4,7,0.06000000005000003,0,0.3,main,,,,,0,29,29,29,,,,,,,anchor.jpg,giraffe.jpg,telescope.jpg,doghouse.jpg,ant.jpg,treadmill.jpg,wheelbarrow01.jpg,fortunecookie.jpg,trumpet.jpg,crab01.jpg,tie02.jpg,cannon.jpg,ceilingfan01.jpg,cymbal.jpg,birthdaycandle.jpg,foldingchair.jpg,bluecheese.jpg,,,,,1,1,9,,,,,.\resources\wheelbarrow01.jpg,,,0,,,,,,,,,0,,,,,,,,,None,370.2542850200001,None,370.2542850200001,None,,,,,,,362.3214974000002,365.0708318999996,364.80417880000005,None,0.07119023665296631,0.07813980000082665,0.0948355000000447,0.1448277000008602,0.1615138000006482,0.22815610000088782,0.24480940000012197,0.2948031000005358,0.3114831000002596,0.361515500000678,0.3781683000006524,0.42811360000087006,0.4448078000004898,0.5114699000005203,0.5281228000003466,0.5781234000005497,0.5948027000004004,0.6447806000005585,0.6614434000002802,0.7281206000006932,0.7447766000004776,,,,,,,,,365.3208414999999,None,365.3208414999999,None,366.0707719000002,None,366.0707719000002,None,right,1.6420351000006121,366.0707719000002,None,367.7710975,None,right,2.4537464000004547,367.7710975,None,367.7710975,None,-9.012254827261192,150.36369299954805,,,,10,001,2021_Apr_09_1054,AB_pic_singleT2,2021.1.2,60.00996165378676,
AB,lag1,1,4,5,0.06000000005000003,0,0.3,main,,,,,0,30,30,30,,,,,,,snowshovel.jpg,jellybean.jpg,steeringwheel.jpg,recyclingbin.jpg,hulahoop.jpg,parachute.jpg,porcupine.jpg,uprightpiano01.jpg,vacuumcleaner01.jpg,surfboard.jpg,cork02.jpg,kite.jpg,birdhouse.jpg,ironingboard01.jpg,toyanimal05.jpg,mrpotatohead.jpg,nosmokingsign.jpg,,,,,0,0,7,,,,,.\resources\hulahoop.jpg,,,1,,,,,,,,,0,,,,,,,,,None,375.33674912000004,None,375.33674912000004,None,,,,,,,370.27090659999976,373.0202583,372.7536146000002,None,0.07232776535753041,0.07847250000031636,0.095131200000651,0.14512310000009165,0.1618004000001747,0.22846090000075492,0.245121900000413,0.2951226000004681,0.31177350000052684,0.3617846000006466,0.3784273999999641,0.4450936000002912,0.4617895999999746,0.5118068000001585,0.5284115000004022,0.5950936000008369,0.6117645000003904,,,,,,,,,,,,,373.27025460000004,None,373.27025460000004,None,373.88688939999975,None,373.88688939999975,None,right,1.1939253999998982,373.88688939999975,None,375.13726210000004,None,left,0.18356479999965813,375.13726210000004,None,375.13726210000004,None,-9.33167826248244,150.34757988760472,,,,10,001,2021_Apr_09_1054,AB_pic_singleT2,2021.1.2,60.00996165378676,
AB,lag4,4,5,9,0.06000000005000003,0,0.3,main,,,,,0,31,31,31,,,,,,,safe.jpg,golfball.jpg,waterfountain02.jpg,peacock.jpg,eye.jpg,nosmokingsign.jpg,car.jpg,parrot01.jpg,sink.jpg,lollipop04.jpg,skateboard.jpg,church.jpg,horseshoe.jpg,daddylonglegs.jpg,polarbear.jpg,lily.jpg,eyepatch.jpg,,,,,0,0,11,,,,,.\resources\sink.jpg,,,1,,,,,,,,,1,,,,,,,,,None,380.12020512000015,None,380.12020512000015,None,,,,,,,375.35389269999996,378.1032113000001,377.83657700000003,None,0.07319641030854376,0.07797240000036254,0.09462320000056934,0.16128240000034566,0.17791870000019117,0.22793450000062876,0.2446324000002278,0.2946043000001737,0.31122289999984787,0.3779018000004726,0.3945909000003667,0.4446256999999605,0.46125690000008035,0.5279160999998567,0.5445976000000883,0.5945753000005425,0.6112475999998424,0.661247099999855,0.6778836000003139,0.744582199999968,0.761259500000051,0.8112228999998479,0.8278910999997606,0.8945467000003191,0.9112251000005926,,,,,378.3532484999996,None,378.3532484999996,None,379.26982580000004,None,379.26982580000004,None,right,0.6749964999999065,379.26982580000004,None,380.0035802000002,None,right,0.10125150000021677,380.0035802000002,None,380.0035802000002,None,-9.273023718134995,150.35890568897392,,,,10,001,2021_Apr_09_1054,AB_pic_singleT2,2021.1.2,60.00996165378676,
AB,lag6,6,3,9,0.06000000005000003,0,0.3,main,,,,,0,32,32,32,,,,,,,callbell.jpg,polarbear.jpg,paperairplane.jpg,bed.jpg,skippingrope.jpg,pigeon.jpg,motorcycle.jpg,christmastree.jpg,grizzly.jpg,surfboard.jpg,wheelchair.jpg,worldmap.jpg,lizard.jpg,bullet.jpg,badmintonracket.jpg,tie02.jpg,duck01.jpg,,,,,0,0,11,,,,,.\resources\grizzly.jpg,,,1,,,,,,,,,1,,,,,,,,,None,384.83609362000004,None,384.83609362000004,None,,,,,,,380.13683299999957,382.8862210999996,382.61956889999965,None,0.06727366521272127,0.07861969999976282,0.09531040000001667,0.14532820000022184,0.1619410000002972,0.2119660999996995,0.22862720000011905,0.27860359999976936,0.29532430000017484,0.3453036000000793,0.3619347000003472,0.41191929999968124,0.4285890000001018,0.4786383000000569,0.49529770000026474,0.5452641000001677,0.5619270999995933,0.6119221999997535,0.6285838000003423,0.6786124999998719,0.6952645000001212,0.7452561999998579,0.7619133999996848,0.8119039000002886,0.8285659000002852,,,,,383.13621109999985,None,383.13621109999985,None,383.9694876000003,None,383.9694876000003,None,right,0.6633329000005688,383.9694876000003,None,384.6694475000004,None,right,0.1393737999997029,384.6694475000004,None,384.6694475000004,None,-9.223839959322879,150.37081718417,,,,10,001,2021_Apr_09_1054,AB_pic_singleT2,2021.1.2,60.00996165378676,
AB,lag2,2,3,5,0.06000000005000003,0,0.3,main,,,,,0,33,33,33,,,,,,,polarbear.jpg,dragonfly01.jpg,tank.jpg,turnstile.jpg,beerbottle.jpg,frisbee.jpg,wheelbarrow01.jpg,smokingpipe.jpg,sledgehammer.jpg,elbow.jpg,bridge.jpg,paperairplane.jpg,beaver.jpg,squirrel.jpg,chainsaw.jpg,lion.jpg,flag.jpg,,,,,1,0,7,,,,,.\resources\beerbottle.jpg,,,0,,,,,,,,,1,,,,,,,,,None,390.65282091999995,None,390.65282091999995,None,,,,,,,384.8527445999998,387.60253959999955,387.3358976999998,None,0.06976784497579977,0.0778651999999056,0.09452009999949951,0.14453059999959805,0.16121060000023135,0.21117549999962648,0.22783540000000357,0.2945107999994434,0.3111994999999297,0.36118549999991956,0.3778492000001279,0.42782619999979943,0.4445162000001801,0.4944951999996192,0.511151499999869,0.5611580999993748,0.577826400000049,,,,,,,,,,,,,387.8525317000003,None,387.8525317000003,None,388.43582890000016,None,388.43582890000016,None,right,1.9649473999998008,388.43582890000016,None,390.4361305000002,None,right,0.18067139999948267,390.4361305000002,None,390.4361305000002,None,-9.130775309363113,150.38367805857337,,,,10,001,2021_Apr_09_1054,AB_pic_singleT2,2021.1.2,60.00996165378676,
AB,lag5,5,4,9,0.06000000005000003,0,0.3,main,,,,,0,34,34,34,,,,,,,firehydrant.jpg,urinal.jpg,ducttape.jpg,saxophone.jpg,nunchuk.jpg,motorcycle.jpg,fingerprint.jpg,vulture.jpg,crown.jpg,cruiseship.jpg,tortoise01.jpg,eye.jpg,bowlingball.jpg,chimney.jpg,birthdaycandle.jpg,hockeystick.jpg,punchingbag.jpg,,,,,0,0,11,,,,,.\resources\crown.jpg,,,1,,,,,,,,,1,,,,,,,,,None,395.15200221999964,None,395.15200221999964,None,,,,,,,390.6694615999995,393.41879960000006,393.15214259999993,None,0.06915573220430589,0.07816200000070239,0.09485710000080871,0.14483090000067023,0.16149100000075123,0.21151090000057593,0.2281581000006554,0.2781633000004149,0.29482460000053834,0.36145610000039596,0.37818290000086563,0.42813120000027993,0.4447968000004039,0.49481270000069344,0.5114963000005446,0.5614830000004076,0.5781235000004017,0.6281135000008362,0.6447790000001987,0.694785800000318,0.7114573000008022,0.7614603000001807,0.7781192000002193,0.8447788000003129,0.8614376000004995,,,,,393.6688145999997,None,393.6688145999997,None,394.53539,None,394.53539,None,right,0.433538000000226,394.53539,None,395.0019976000003,None,right,0.1347671999992599,395.0019976000003,None,395.0019976000003,None,-9.365350776041705,150.37333159831363,,,,10,001,2021_Apr_09_1054,AB_pic_singleT2,2021.1.2,60.00996165378676,
AB,lag7,7,5,12,0.06000000005000003,0,0.3,main,,,,,0,35,35,35,,,,,,,windshieldwiper02.jpg,pingpongtable.jpg,cobra.jpg,humanskeleton.jpg,mouse.jpg,bluecheese.jpg,schoolbus.jpg,guitarcase.jpg,drumstick.jpg,mummy.jpg,barrel01.jpg,showerhead01.jpg,bluejay.jpg,scooter.jpg,flamingo.jpg,worldmap.jpg,ladder.jpg,,,,,1,0,14,,,,,.\resources\showerhead01.jpg,,,1,,,,,,,,,1,,,,,,,,,None,402.13529022,None,402.13529022,None,,,,,,,395.16866930000015,397.91846369999985,397.6518342999998,None,0.07566635521684231,0.07805540000026667,0.0947970000006535,0.16140290000021196,0.17806340000061027,0.22806000000036875,0.24473020000004908,0.31138470000041707,0.3280495000008159,0.39472250000017084,0.4113623000002917,0.461374500000602,0.4780362999999852,0.5447044000002279,0.5613677000001189,0.6113592000001518,0.6280338000005941,0.6946959000006245,0.7113562000004094,0.7613309000007575,0.7779889000003095,0.8446760000006179,0.8613217000001896,0.9113311000000976,0.9279849000004106,0.9946582000002309,1.0113296000008631,1.0613147000003664,1.077994100000069,398.16848130000017,None,398.16848130000017,None,399.33504449999964,None,399.33504449999964,None,left,2.0417530000004263,399.33504449999964,None,401.43534230000023,None,right,0.6534653999997317,401.43534230000023,None,401.43534230000023,None,-9.295552899060134,150.38369620211563,1.1446551000008185,1.1613136000005397,,10,001,2021_Apr_09_1054,AB_pic_singleT2,2021.1.2,60.00996165378676,
AB,lag5,5,5,10,0.06000000005000003,0,0.3,main,,,,,0,36,36,36,,,,,,,guitarcase.jpg,ladybug03.jpg,totempole.jpg,tiger02.jpg,bumpercar.jpg,tank.jpg,scorpion.jpg,ostrich.jpg,crab01.jpg,horse.jpg,horseshoe.jpg,safe.jpg,funnel.jpg,chainsaw.jpg,noparkingsign.jpg,fishskeleton.jpg,eye.jpg,,,,,1,0,12,,,,,.\resources\horse.jpg,,,1,,,,,,,,,1,,,,,,,,,None,409.4014212200003,None,409.4014212200003,None,,,,,,,402.1519750999996,404.9013157999998,404.6346400000002,None,0.07333386988037871,0.0775868000000628,0.0942629000001034,0.1609362000008332,0.17760460000044986,0.22761410000020987,0.2442499000007956,0.2942847000003894,0.3109338000003845,0.3775489000008747,0.3942038000004686,0.4442054000001008,0.4608772000001409,0.5275764000007257,0.5441912000005686,0.594201000000794,0.6108662000006007,0.6608573000003162,0.6775247000005038,0.7441975000001548,0.7608750000008513,0.8108374000003096,0.8275195000005624,0.8941658000003372,0.9108293000008416,0.9608381000007284,0.9775040000004083,,,405.15129139999954,None,405.15129139999954,None,406.1345160999999,None,406.1345160999999,None,left,2.570279199999277,406.1345160999999,None,408.75150229999963,None,right,0.6333075000002282,408.75150229999963,None,408.75150229999963,None,-9.266445846359911,150.3926628565896,,,,10,001,2021_Apr_09_1054,AB_pic_singleT2,2021.1.2,60.00996165378676,
AB,lag7,7,3,10,0.06000000005000003,0,0.3,main,,,,,0,37,37,37,,,,,,,tire.jpg,soccerball.jpg,statue.jpg,bowlingball.jpg,leafblower01.jpg,stubbywrench01a.jpg,accordion01.jpg,corn02.jpg,toyanimal05.jpg,bathtub.jpg,microphone01.jpg,bullet.jpg,eyepatch.jpg,apron.jpg,ladder.jpg,rose.jpg,tennisracket.jpg,,,,,0,0,12,,,,,.\resources\bathtub.jpg,,,1,,,,,,,,,1,,,,,,,,,None,414.1673226199995,None,414.1673226199995,None,,,,,,,409.4180918000002,412.1674360999996,411.90078689999973,None,0.07023882942197174,0.07742359999974724,0.09402609999960987,0.1440081000000646,0.16067699999985052,0.22736739999982092,0.24399819999962347,0.29404299999987416,0.31068880000020727,0.3606780999998591,0.3773500999996031,0.42732450000039535,0.4440284000002066,0.4939833999997063,0.5106355999996595,0.5773163000003478,0.5939701999996032,0.6439909999999145,0.6606298999995488,0.7106615000002421,0.7273097999996025,0.7773010000000795,0.7939562999999907,0.8439605000003212,0.8606320999997479,0.927312300000267,0.9439400000001115,,,412.4174310999997,None,412.4174310999997,None,413.3673894000003,None,413.3673894000003,None,right,0.6336202000002231,413.3673894000003,None,414.03397829999994,None,right,0.10285759999987931,414.03397829999994,None,414.03397829999994,None,-9.228452051891836,150.40328912571508,,,,10,001,2021_Apr_09_1054,AB_pic_singleT2,2021.1.2,60.00996165378676,
AB,lag4,4,3,7,0.06000000005000003,0,0.3,main,,,,,0,38,38,38,,,,,,,dormer.jpg,donut.jpg,basketball01.jpg,moon.jpg,duck01.jpg,sheep.jpg,bullet.jpg,tree.jpg,kite.jpg,tire.jpg,bow.jpg,eyepatch.jpg,jeans01.jpg,callbell.jpg,africanelephant.jpg,bluejay.jpg,firehydrant.jpg,,,,,0,1,9,,,,,.\resources\bullet.jpg,,,1,,,,,,,,,1,,,,,,,,,None,419.2173797199997,None,419.2173797199997,None,,,,,,,414.1839637000003,416.9337593999999,416.6671129999995,None,0.06997478352194439,0.0781870999999228,0.09484780000002502,0.14485939999940456,0.1615203000001202,0.2115309000000707,0.2281873000001724,0.29483280000022205,0.31149769999956334,0.361511199999768,0.37815929999942455,0.4281714999997348,0.4448253999998997,0.4948465999996188,0.5114804999993794,0.5614847999995618,0.5781526999999187,0.6448107999995045,0.6614809000002424,0.7114713000000847,0.7281560000001264,,,,,,,,,417.18375039999955,None,417.18375039999955,None,417.9170607999995,None,417.9170607999995,None,right,1.1157486000001882,417.9170607999995,None,419.0673939999997,None,left,0.11739940000006754,419.0673939999997,None,419.0673939999997,None,-9.17519760424246,150.4150002932718,,,,10,001,2021_Apr_09_1054,AB_pic_singleT2,2021.1.2,60.00996165378676,
AB,lag3,3,5,8,0.06000000005000003,0,0.3,main,,,,,0,39,39,39,,,,,,,nunchuk.jpg,marble.jpg,stool01.jpg,kiwi03.jpg,flamingo.jpg,fishskeleton.jpg,chainsaw.jpg,tree.jpg,dreamcatcher.jpg,footballhelmet.jpg,waterfall.jpg,dandelion.jpg,volleyball.jpg,waterfountain02.jpg,parachute.jpg,microwave.jpg,polarbear.jpg,,,,,1,1,10,,,,,.\resources\tree.jpg,,,1,,,,,,,,,1,,,,,,,,,None,424.7331942200002,None,424.7331942200002,None,,,,,,,419.23405120000007,421.9833963000001,421.71676279999974,None,0.06821857367893555,0.07802410000022064,0.09470500000043103,0.1446992000001046,0.16139269999985117,0.21137559999988298,0.22804340000038792,0.27803490000042075,0.29470130000026984,0.34469090000038705,0.3613689000003433,0.4113681999997425,0.42808899999999994,0.4780289999998786,0.49466260000008333,0.5613378999996712,0.5780174000001352,0.6280104999996183,0.6447018999997454,0.694655899999816,0.7113288000000466,0.7613327999997637,0.7780002999998032,,,,,,,422.2333950000002,None,422.2333950000002,None,423.01666790000036,None,423.01666790000036,None,left,1.5043115999997099,423.01666790000036,None,424.5665570000001,None,left,0.1382677000001422,424.5665570000001,None,424.5665570000001,None,-9.123203991888499,150.42644930509644,,,,10,001,2021_Apr_09_1054,AB_pic_singleT2,2021.1.2,60.00996165378676,
AB,lag2,2,4,6,0.06000000005000003,0,0.3,main,,,,,0,40,40,40,,,,,,,dalmatian.jpg,swing.jpg,firehydrant.jpg,snowshoe.jpg,rubikcube.jpg,brownsugar.jpg,barrel01.jpg,basketball01.jpg,schoolbus.jpg,corn02.jpg,bench01.jpg,mailbox02.jpg,englishcucumber.jpg,xylophone.jpg,mattress.jpg,jeans01.jpg,cat.jpg,,,,,1,0,8,,,,,.\resources\brownsugar.jpg,,,0,,,,,,,,,1,,,,,,,,,None,434.46629082000015,None,434.46629082000015,None,,,,,,,424.7498735999998,427.4996645000001,427.2330321999998,None,0.07154151789425549,0.0779222999999547,0.09458679999988817,0.14459790000000794,0.1612241000002541,0.22792370000024675,0.24457499999971333,0.29456500000014785,0.311225899999954,0.3612358000000313,0.3778870999994979,0.4445577999995294,0.46122289999948407,0.5112184999998135,0.5278696999994281,0.5778786000000764,0.5945366999994803,0.644538399999874,0.6612113999999565,,,,,,,,,,,427.74970550000035,None,427.74970550000035,None,428.41629159999957,None,428.41629159999957,None,right,5.112487399999736,428.41629159999957,None,433.5830242000002,None,right,0.8417636000003768,433.5830242000002,None,433.5830242000002,None,-9.06265463328998,150.43753177415246,,,,10,001,2021_Apr_09_1054,AB_pic_singleT2,2021.1.2,60.00996165378676,
AB,lag1,1,4,5,0.06000000005000003,0,0.3,main,,,,,0,41,41,41,,,,,,,dormer.jpg,bluecheese.jpg,spear02.jpg,popcorn.jpg,cigar.jpg,pooltable.jpg,escalator.jpg,harmonica.jpg,callbell.jpg,ear.jpg,fortunecookie.jpg,chair.jpg,dreamcatcher.jpg,skateboard.jpg,sausage.jpg,totempole.jpg,skippingrope.jpg,,,,,0,0,7,,,,,.\resources\cigar.jpg,,,1,,,,,,,,,0,,,,,,,,,None,439.56541512,None,439.56541512,None,,,,,,,434.4829872999999,437.2322647000001,436.96561349999956,None,0.06578173802272194,0.07798129999991943,0.09507759999996779,0.1451465999998618,0.16175860000021203,0.21177190000071278,0.22853380000015022,0.2785472000005029,0.29504980000001524,0.3450289000002158,0.3616992000006576,0.41167740000037156,0.42837930000041524,0.46169559999998455,0.4783490999998321,0.5283709000004819,0.5450184999999692,,,,,,,,,,,,,437.48270950000006,None,437.48270950000006,None,438.03261980000025,None,438.03261980000025,None,right,1.3521719000000303,438.03261980000025,None,439.4153871999997,None,left,0.12941270000010263,439.4153871999997,None,439.4153871999997,None,-9.260878713152607,150.427207640594,,,,10,001,2021_Apr_09_1054,AB_pic_singleT2,2021.1.2,60.00996165378676,
AB,lag6,6,5,11,0.06000000005000003,0,0.3,main,,,,,0,42,42,42,,,,,,,pooltable.jpg,mummy.jpg,knee.jpg,skateboard.jpg,cross01.jpg,moose.jpg,squid.jpg,cannon.jpg,microwave.jpg,popcorn.jpg,hotdogweiner.jpg,licenseplate.jpg,callbell.jpg,wheelbarrow01.jpg,jellybean.jpg,ladybug03.jpg,trumpet.jpg,,,,,0,0,13,,,,,.\resources\hotdogweiner.jpg,,,0,,,,,,,,,1,,,,,,,,,None,447.0315516200002,None,447.0315516200002,None,,,,,,,439.5820623999998,442.3318614,442.0485499999995,None,0.06865646630277297,0.07605969999985973,0.09274470000036672,0.14273150000008172,0.15939690000050177,0.20939480000015465,0.22608860000036657,0.2760534999997617,0.2927392999999938,0.3593908000002557,0.376045900000463,0.426060900000266,0.4427629000001616,0.49270849999993516,0.5093812000004618,0.5593970999998419,0.576042800000323,0.6260442000002513,0.6426904999998442,0.6927173000003677,0.7093676000004052,0.7593683000004603,0.7760282999997798,0.8260279000005539,0.8426962000003186,0.8926854000001185,0.9093591999999262,0.9760075000003781,0.9926548000003095,442.56518380000034,None,442.56518380000034,None,443.56527840000035,None,443.56527840000035,None,left,3.2115891000003103,443.56527840000035,None,446.79818290000003,None,right,0.21061240000017278,446.79818290000003,None,446.79818290000003,None,-9.186377208154092,150.43297149919977,,,,10,001,2021_Apr_09_1054,AB_pic_singleT2,2021.1.2,60.00996165378676,
AB,lag5,5,5,10,0.06000000005000003,0,0.3,main,,,,,0,43,43,43,,,,,,,snowshovel.jpg,polarbear.jpg,stubbywrench01a.jpg,popcorn.jpg,cupcake.jpg,coffeemaker.jpg,flag.jpg,windmill.jpg,bowlingpin.jpg,squirrel.jpg,zebra.jpg,waterfountain02.jpg,boat.jpg,bluejay.jpg,crab01.jpg,acousticguitar02.jpg,bluecheese.jpg,,,,,1,0,12,,,,,.\resources\squirrel.jpg,,,1,,,,,,,,,1,,,,,,,,,None,453.19828342000017,None,453.19828342000017,None,,,,,,,447.04822109999986,449.79807379999966,449.53134950000003,None,0.07430487405101864,0.07720359999984794,0.09386549999999261,0.16053120000015042,0.17721749999964231,0.22720879999997123,0.24385410000013508,0.31053309999970224,0.32721889999993437,0.377179399999477,0.3938540999997713,0.4604952999998204,0.47719059999963065,0.5271857999996428,0.5438499000001684,0.6105035999999018,0.6271805999995195,0.6771578999996564,0.6938497000001007,0.7438358999997945,0.7605039000000033,0.8271479999993971,0.8438324999997349,0.8937984999993205,0.9104895999998917,0.9771388999997725,0.9938268999994762,,,450.0480709000003,None,450.0480709000003,None,451.0479789000001,None,451.0479789000001,None,left,1.6169841000000815,451.0479789000001,None,452.69786699999986,None,right,0.4629045000001497,452.69786699999986,None,452.69786699999986,None,-9.340139234457734,150.42445207442782,,,,10,001,2021_Apr_09_1054,AB_pic_singleT2,2021.1.2,60.00996165378676,
AB,lag7,7,5,12,0.06000000005000003,0,0.3,main,,,,,0,44,44,44,,,,,,,eye.jpg,fishskeleton.jpg,wheelchair.jpg,electrictoothbrush01c.jpg,dandelion.jpg,lightswitch01.jpg,curtain.jpg,cashregister01.jpg,boat.jpg,mouse.jpg,football.jpg,cactus.jpg,brownsugar.jpg,kneepad01c.jpg,fingerprint.jpg,christmastree.jpg,nunchuk.jpg,,,,,0,0,14,,,,,.\resources\cactus.jpg,,,1,,,,,,,,,1,,,,,,,,,None,460.16395411999963,None,460.16395411999963,None,,,,,,,453.21495849999974,455.9642823000004,455.68097080000007,None,0.0709930845663993,0.0774569999994128,0.09404999999969732,0.14405749999968975,0.16074729999945703,0.22737909999978,0.24404649999996764,0.294017399999575,0.3106677999994645,0.36069859999952314,0.3773375999999189,0.4273353999997198,0.4440054999995482,0.5106422999997449,0.5273535999995147,0.5773313999998209,0.5939873999996053,0.643983500000104,0.6606827999994493,0.7106420999998591,0.7273058999999193,0.7940041000001656,0.810620100000051,0.8602198999997199,0.8768727999995463,0.9269566000002669,0.9435486000002129,1.0101911000001564,1.0268940999994811,456.1981218000001,None,456.1981218000001,None,457.29751209999995,None,457.29751209999995,None,right,1.0712639000003037,457.29751209999995,None,458.3973771000001,None,right,1.7394597999991674,458.3973771000001,None,458.3973771000001,None,-9.314021754043111,150.4292193883028,1.0768915999997262,1.0935130999996545,,10,001,2021_Apr_09_1054,AB_pic_singleT2,2021.1.2,60.00996165378676,
AB,lag3,3,4,7,0.06000000005000003,0,0.3,main,,,,,0,45,45,45,,,,,,,wheelbarrow01.jpg,snowshovel.jpg,fishskeleton.jpg,mailbox02.jpg,tulip02.jpg,ladybug03.jpg,curtain.jpg,microphone01.jpg,saltshaker03a.jpg,birdhouse.jpg,musicsheet.jpg,chair.jpg,duck01.jpg,boxingglove01.jpg,greywolf.jpg,sandcastle.jpg,flamingo.jpg,,,,,1,1,9,,,,,.\resources\curtain.jpg,,,1,,,,,,,,,1,,,,,,,,,None,466.61350032000007,None,466.61350032000007,None,,,,,,,460.1806061999996,462.93040930000006,462.6637383999996,None,0.07084119563231243,0.07722850000027393,0.09386889999950654,0.14389180000034685,0.16059059999952296,0.2272026000000551,0.24388689999977942,0.29385720000027504,0.310532599999533,0.36054559999956837,0.37718649999987974,0.427190000000337,0.44388830000025337,0.5105148000002373,0.5271880000000237,0.577166799999759,0.5938834999997198,0.6438532000001942,0.6605835000000297,0.7104984999996304,0.7271780999999464,,,,,,,,,463.1804000000002,None,463.1804000000002,None,463.9136827000002,None,463.9136827000002,None,left,1.2390949999999066,463.9136827000002,None,465.18022440000004,None,left,1.404564900000878,465.18022440000004,None,465.18022440000004,None,-9.2758699977939,150.43570697766353,,,,10,001,2021_Apr_09_1054,AB_pic_singleT2,2021.1.2,60.00996165378676,
AB,lag2,2,5,7,0.06000000005000003,0,0.3,main,,,,,0,46,46,46,,,,,,,frisbee.jpg,mummy.jpg,hotdogweiner.jpg,tricycle.jpg,mattress.jpg,rooster.jpg,toolbox02.jpg,bow.jpg,corn02.jpg,lawnmower.jpg,mailbox02.jpg,panda.jpg,candycane01a.jpg,drumset.jpg,swordfish.jpg,porcupine.jpg,waterfountain02.jpg,,,,,1,0,9,,,,,.\resources\toolbox02.jpg,,,1,,,,,,,,,1,,,,,,,,,None,472.31305892000034,None,472.31305892000034,None,,,,,,,466.63015240000004,469.3799339999996,469.09661140000026,None,0.06859872295913493,0.07671409999966272,0.09337719999984984,0.1433588999998392,0.16004330000032496,0.21003949999976612,0.22670079999988957,0.2767211000000316,0.29335330000049,0.3433636999998271,0.3600146999997378,0.4266862000004039,0.44333780000033585,0.4933375000000524,0.5100054000004093,0.5600236000000223,0.5766749000003983,0.6266759999998612,0.6433481000003667,0.693358100000296,0.7100083000004815,,,,,,,,,469.6132588999999,None,469.6132588999999,None,470.3299022000001,None,470.3299022000001,None,left,1.7108424999996714,470.3299022000001,None,472.0630688000001,None,right,0.2336843000002773,472.0630688000001,None,472.0630688000001,None,-9.238611276337345,150.44243175047134,,,,10,001,2021_Apr_09_1054,AB_pic_singleT2,2021.1.2,60.00996165378676,
AB,lag6,6,5,11,0.06000000005000003,0,0.3,main,,,,,0,47,47,47,,,,,,,recyclingbin.jpg,escalator.jpg,tiger02.jpg,electrictoothbrush01c.jpg,steeringwheel.jpg,birthdaycandle.jpg,bed.jpg,popcorn.jpg,corn02.jpg,frisbee.jpg,eiffeltower.jpg,dolphin01.jpg,dreamcatcher.jpg,porcupine.jpg,horse.jpg,toolbox02.jpg,fishskeleton.jpg,,,,,0,0,13,,,,,.\resources\eiffeltower.jpg,,,1,,,,,,,,,1,,,,,,,,,None,477.56270282,None,477.56270282,None,,,,,,,472.3297444,475.07952879999993,474.81287840000005,None,0.07211174169540752,0.07706879999932426,0.09370829999988928,0.16036720000010973,0.17704529999991792,0.2270327999995061,0.2437208000001192,0.29370810000000347,0.3103985999996439,0.3770438000001377,0.39371409999967,0.4436955000001035,0.46037449999948876,0.5103565999997954,0.5270449999998164,0.577025099999446,0.5936944999994012,0.6603557999997065,0.6770391999998537,0.7270218999992721,0.743686499999967,0.7936915000000226,0.8103210999997827,0.8770099999992453,0.8937175999999454,0.9436517999993157,0.9603330999998434,1.010332500000004,1.0269909999997253,475.32952339999974,None,475.32952339999974,None,476.3627816999997,None,476.3627816999997,None,right,0.9900806000005105,476.3627816999997,None,477.37934479999967,None,right,0.15744230000018433,477.37934479999967,None,477.37934479999967,None,-9.192106847864084,150.44918098228834,,,,10,001,2021_Apr_09_1054,AB_pic_singleT2,2021.1.2,60.00996165378676,
AB,lag1,1,4,5,0.06000000005000003,0,0.3,main,,,,,0,48,48,48,,,,,,,barrel01.jpg,dandelion.jpg,skateboard.jpg,telescope.jpg,volleyball.jpg,nose.jpg,lawnmower.jpg,uprightpiano01.jpg,dalmatian.jpg,pumpkin.jpg,duck01.jpg,lip.jpg,spiderweb.jpg,athleticsock.jpg,honeybee.jpg,daddylonglegs.jpg,dartboard.jpg,,,,,0,0,7,,,,,.\resources\volleyball.jpg,,,1,,,,,,,,,1,,,,,,,,,None,482.0957195200002,None,482.0957195200002,None,,,,,,,477.5793506,480.3291614,480.0458245,None,0.07285591521917842,0.07718610000029003,0.09385840000049939,0.16054000000076485,0.17717560000073718,0.2271734000005381,0.24385740000070655,0.29384440000012546,0.31049590000020544,0.37718410000070435,0.39384270000027755,0.4438131000006251,0.46052380000037374,0.5105319000003874,0.5271784000005937,0.5938238000007914,0.6104934000004505,,,,,,,,,,,,,480.5624786999997,None,480.5624786999997,None,481.17910120000033,None,481.17910120000033,None,right,0.7336540000005698,481.17910120000033,None,481.9290430000001,None,right,0.14371460000074876,481.9290430000001,None,481.9290430000001,None,-9.162940970482701,150.45533506679658,,,,10,001,2021_Apr_09_1054,AB_pic_singleT2,2021.1.2,60.00996165378676,
AB,lag4,4,3,7,0.06000000005000003,0,0.3,main,,,,,0,49,49,49,,,,,,,birdnest.jpg,table01.jpg,cruiseship.jpg,microphone01.jpg,cheetah.jpg,chefshat.jpg,cow.jpg,sheep.jpg,crown.jpg,alligator.jpg,mrpotatohead.jpg,punchingbag.jpg,schoolbus.jpg,rollerblade.jpg,panda.jpg,tarantula.jpg,daddylonglegs.jpg,,,,,0,1,9,,,,,.\resources\cow.jpg,,,1,,,,,,,,,1,,,,,,,,,None,489.57850392000034,None,489.57850392000034,None,,,,,,,482.1123571999997,484.86216799999966,484.5955034999997,None,0.07445998615147278,0.07731490000060148,0.09396840000044904,0.1606682000001456,0.1772740000005797,0.22731410000051255,0.24396820000038133,0.31067330000041693,0.32727320000049076,0.3773266000007425,0.39397380000082194,0.4606028000007427,0.4772694000002957,0.5272552000005817,0.5439421000000948,0.6106031000008443,0.6272648000003755,0.6772453000003225,0.6938953000008041,0.7605723000006037,0.7772555999999895,,,,,,,,,485.11214310000014,None,485.11214310000014,None,485.8954236999998,None,485.8954236999998,None,right,2.8974936000004163,485.8954236999998,None,488.81185970000024,None,left,0.7489315000002534,488.81185970000024,None,488.81185970000024,None,-9.137341681891606,150.46197990945677,,,,10,001,2021_Apr_09_1054,AB_pic_singleT2,2021.1.2,60.00996165378676,
AB,lag3,3,4,7,0.06000000005000003,0,0.3,main,,,,,0,50,50,50,,,,,,,bridge.jpg,frenchfries.jpg,ant.jpg,squid.jpg,microwave.jpg,saltshaker03a.jpg,tricycle.jpg,swordfish.jpg,tarantula.jpg,butterfly.jpg,bluejay.jpg,bench01.jpg,punchingbag.jpg,musicsheet.jpg,ironingboard01.jpg,snowshovel.jpg,horseshoe.jpg,,,,,0,0,9,,,,,.\resources\tricycle.jpg,,,1,,,,,,,,,0,,,,,,,,,None,495.8280659200003,None,495.8280659200003,None,,,,,,,489.5951570999996,492.34494799999993,492.06161840000004,None,0.0680378701787796,0.07713819999935367,0.09379989999979443,0.14377969999986817,0.16046000000005733,0.21046119999937218,0.22712109999974928,0.2771480999999767,0.2937843999998222,0.3437764000000243,0.36042120000001887,0.4104920999998285,0.4271279999993567,0.47709579999991547,0.49376329999995505,0.5604340999998385,0.5770978999998988,0.6270844999999099,0.6437548999992941,0.6937496999998984,0.7104364999995596,,,,,,,,,492.5782865000001,None,492.5782865000001,None,493.2948977999995,None,493.2948977999995,None,right,2.1298541999994995,493.2948977999995,None,495.44472769999993,None,left,0.3641278000004604,495.44472769999993,None,495.44472769999993,None,-9.117304659767225,150.46904381977657,,,,10,001,2021_Apr_09_1054,AB_pic_singleT2,2021.1.2,60.00996165378676,
AB,lag7,7,5,12,0.06000000005000003,0,0.3,main,,,,,0,51,51,51,,,,,,,beerbottle.jpg,bridge.jpg,fireplace.jpg,foosballtable.jpg,ostrich.jpg,toucan.jpg,moon.jpg,frisbee.jpg,moose.jpg,leafblower01.jpg,mummy.jpg,cat.jpg,ipad02.jpg,bow.jpg,drumstick.jpg,athleticsock.jpg,masquerademask01.jpg,,,,,0,0,14,,,,,.\resources\cat.jpg,,,0,,,,,,,,,0,,,,,,,,,None,502.76088472000026,None,502.76088472000026,None,,,,,,,495.84470150000016,498.59453310000026,498.3278962000004,None,0.0671897683623342,0.07726989999991929,0.09394319999955769,0.14395079999940208,0.1606037000001379,0.21103099999982078,0.22776559999965684,0.27770999999938795,0.2945946999998341,0.3443244999998569,0.361001700000088,0.41098890000012034,0.42764050000005227,0.47763299999951414,0.4943171999993865,0.544304000000011,0.5609795000000304,0.6109834999997474,0.6276454999997441,0.6776379000002635,0.6942821000002368,0.7443023999994693,0.7609857999996166,0.8109599999997954,0.82765339999969,0.8776234999995722,0.89427650000016,0.9442680000001928,0.960951500000192,498.84454410000035,None,498.84454410000035,None,499.87821600000007,None,499.87821600000007,None,left,1.3225490000004356,499.87821600000007,None,501.2276321999998,None,left,1.509143799999947,501.2276321999998,None,501.2276321999998,None,-9.073591826230897,150.4768121193008,1.010954700000184,1.0276045999999042,,10,001,2021_Apr_09_1054,AB_pic_singleT2,2021.1.2,60.00996165378676,
AB,lag1,1,5,6,0.06000000005000003,0,0.3,main,,,,,0,52,52,52,,,,,,,basketball01.jpg,pig.jpg,tulip02.jpg,doghouse.jpg,crab01.jpg,sheep.jpg,mailbox02.jpg,dreamcatcher.jpg,grizzly.jpg,dartboard.jpg,mouse.jpg,nose.jpg,toyanimal05.jpg,motorcycle.jpg,ipad02.jpg,slug.jpg,soccerball.jpg,,,,,0,1,8,,,,,.\resources\sheep.jpg,,,0,,,,,,,,,1,,,,,,,,,None,512.7435063199995,None,512.7435063199995,None,,,,,,,502.77754670000013,505.5273506000003,505.2606834999997,None,0.07485651805141372,0.07645769999999175,0.0932039999997869,0.15976189999946655,0.1764328999997815,0.2264327000002595,0.24312620000000607,0.3097637000000759,0.3264480999996522,0.3764415999994526,0.3931187999996837,0.4597691999997551,0.4764310000000478,0.5264135999996142,0.5430847999996331,0.6097493999996004,0.6264218999995137,0.6764450000000579,0.6930680999994365,,,,,,,,,,,505.7773304000002,None,505.7773304000002,None,506.4772804000004,None,506.4772804000004,None,left,5.219485200000236,506.4772804000004,None,511.7268760999996,None,left,0.9859019000004992,511.7268760999996,None,511.7268760999996,None,-9.198965685793965,150.47608615466322,,,,10,001,2021_Apr_09_1054,AB_pic_singleT2,2021.1.2,60.00996165378676,
AB,lag4,4,4,8,0.06000000005000003,0,0.3,main,,,,,0,53,53,53,,,,,,,cocktailshrimp02.jpg,trophy01.jpg,safe.jpg,leafrake.jpg,boxingglove01.jpg,curtain.jpg,swordfish.jpg,daddylonglegs.jpg,shower.jpg,saltshaker03a.jpg,lighthouse.jpg,toolbox02.jpg,lizard.jpg,parrot01.jpg,skateboard.jpg,tie02.jpg,wallclock.jpg,,,,,1,0,10,,,,,.\resources\daddylonglegs.jpg,,,1,,,,,,,,,1,,,,,,,,,None,518.5597446200003,None,518.5597446200003,None,,,,,,,512.7601617999999,515.5099528000001,515.2433058999995,None,0.07488852910540726,0.07692789999964589,0.09294890000001033,0.16002089999983582,0.1766832000002978,0.226684700000078,0.24341030000050523,0.30958410000039294,0.3266694000003554,0.3762569999998959,0.3933788000003915,0.4595953999996709,0.47680529999979626,0.526676999999836,0.5428942999997162,0.609559900000022,0.6266404999996666,0.6766255000002275,0.6929067000000941,0.7600774000002275,0.7762099000001399,0.8262216000002809,0.8432836000001771,,,,,,,515.7603704000003,None,515.7603704000003,None,516.6102768999999,None,516.6102768999999,None,left,0.8624935999996524,516.6102768999999,None,517.4931252999995,None,right,1.0437126999995598,517.4931252999995,None,517.4931252999995,None,-9.336338903384515,150.4669359221705,,,,10,001,2021_Apr_09_1054,AB_pic_singleT2,2021.1.2,60.00996165378676,
AB,lag6,6,5,11,0.06000000005000003,0,0.3,main,,,,,0,54,54,54,,,,,,,cannon.jpg,frisbee.jpg,fingerprint.jpg,discoball.jpg,ironingboard01.jpg,cigar.jpg,penguin.jpg,squid.jpg,chimney.jpg,toad.jpg,turnstile.jpg,lily.jpg,snowshovel.jpg,pumpkin.jpg,ostrich.jpg,drumset.jpg,cruiseship.jpg,,,,,0,0,13,,,,,.\resources\turnstile.jpg,,,1,,,,,,,,,1,,,,,,,,,None,523.6760134199998,None,523.6760134199998,None,,,,,,,518.5764036999999,521.3261945000004,521.0595414,None,0.07370282454427886,0.07725899999968533,0.09390189999976428,0.16067130000010366,0.17683649999980844,0.2268224999997983,0.24391359999935958,0.3105580999999802,0.32721679999940534,0.37718929999937245,0.393464199999471,0.444055699999808,0.46012599999994563,0.5267870999996376,0.5434415999998237,0.5934321999993699,0.6101252999997087,0.6767878999999084,0.6934547999999268,0.7434425999999803,0.7601214999995136,0.8267767999996067,0.8434379000000263,0.8934410000001662,0.9101198999996996,0.9601034999996045,0.9767846999993708,1.0434445999999298,1.0600987999996505,521.5766117000003,None,521.5766117000003,None,522.6427826999998,None,522.6427826999998,None,right,0.8619851999992534,522.6427826999998,None,523.5260213000001,None,right,0.1307606999998825,523.5260213000001,None,523.5260213000001,None,-9.317790220840307,150.46971652052105,,,,10,001,2021_Apr_09_1054,AB_pic_singleT2,2021.1.2,60.00996165378676,
AB,lag2,2,4,6,0.06000000005000003,0,0.3,main,,,,,0,55,55,55,,,,,,,noparkingsign.jpg,ostrich.jpg,safe.jpg,helicopter.jpg,mummy.jpg,holdfast.jpg,bowtie.jpg,whiteout.jpg,triangle.jpg,bowlingpin.jpg,sledgehammer.jpg,skateboard.jpg,rollerblade.jpg,ant.jpg,schoolbus.jpg,saltshaker03a.jpg,kiwi03.jpg,,,,,0,0,8,,,,,.\resources\holdfast.jpg,,,1,,,,,,,,,1,,,,,,,,,None,528.7590268199996,None,528.7590268199996,None,,,,,,,523.6927312999997,526.4424945000001,526.1758375,None,0.07507778640176023,0.07687609999993583,0.09313739999925019,0.15977719999955298,0.17684929999995802,0.2268687999994654,0.2435215999994398,0.31025580000004993,0.3264216999996279,0.37641619999976683,0.3930752999995093,0.4597995999993145,0.47644279999985883,0.5264294999997219,0.5430894999999509,0.6097547999997914,0.6264129999999568,0.6764070999997784,0.6930722999995851,,,,,,,,,,,526.6929032999997,None,526.6929032999997,None,527.3924465,None,527.3924465,None,right,1.1523375000006126,527.3924465,None,528.5756628999998,None,right,0.15311370000017632,528.5756628999998,None,528.5756628999998,None,-9.296705175038447,150.47351441522912,,,,10,001,2021_Apr_09_1054,AB_pic_singleT2,2021.1.2,60.00996165378676,
AB,lag5,5,4,9,0.06000000005000003,0,0.3,main,,,,,0,56,56,56,,,,,,,peacock.jpg,kite.jpg,wallclock.jpg,cross01.jpg,key07.jpg,calendar.jpg,well.jpg,brownsugar.jpg,butterfly.jpg,leafblower01.jpg,redfox.jpg,tennisracket.jpg,urinal.jpg,basketball01.jpg,cruiseship.jpg,englishcucumber.jpg,church.jpg,,,,,1,0,11,,,,,.\resources\butterfly.jpg,,,1,,,,,,,,,1,,,,,,,,,None,534.05865502,None,534.05865502,None,,,,,,,528.7756800999996,531.525466,531.2588047999998,None,0.07448669069867013,0.0766139999996085,0.0938466999996308,0.15994139999929757,0.17703589999928226,0.2270273999993151,0.24368289999983972,0.31035069999961706,0.32699109999975917,0.377019399999881,0.393656799999917,0.460338299999421,0.47698989999935293,0.5270213999992848,0.5436743000000206,0.6103157999996256,0.6269844999997076,0.6769820999998046,0.6936405999995259,0.7603085000000647,0.7769640999995318,0.826962199999798,0.8436235999997734,0.9103172999994058,0.9269559999993362,,,,,531.7758735999996,None,531.7758735999996,None,532.7091381,None,532.7091381,None,left,1.067779299999529,532.7091381,None,533.7919867999999,None,right,0.24080320000030042,533.7919867999999,None,533.7919867999999,None,-9.279592224491276,150.47794416061956,,,,10,001,2021_Apr_09_1054,AB_pic_singleT2,2021.1.2,60.00996165378676,
AB,lag2,2,3,5,0.06000000005000003,0,0.3,main,,,,,0,57,57,57,,,,,,,saltshaker03a.jpg,bluecheese.jpg,lollipop04.jpg,dalmatian.jpg,hockeystick.jpg,crosscountryski.jpg,telescope.jpg,slug.jpg,zipper.jpg,parachute.jpg,parrot01.jpg,funnel.jpg,moose.jpg,boxingglove01.jpg,worldmap.jpg,kneepad01c.jpg,well.jpg,,,,,1,0,7,,,,,.\resources\hockeystick.jpg,,,1,,,,,,,,,1,,,,,,,,,None,542.09136652,None,542.09136652,None,,,,,,,534.0752931999996,536.8250703000003,536.5417558999998,None,0.06703289032986406,0.07706779999989521,0.09363159999975323,0.1436108999996577,0.1602841999992961,0.21032649999960995,0.22692469999947207,0.27693189999990864,0.293596599999546,0.3436009999995804,0.3602603999997882,0.4102501999996093,0.4269243999997343,0.4769028000000617,0.49358529999972234,0.5435714999994161,0.5602562999993097,,,,,,,,,,,,,537.0588480999995,None,537.0588480999995,None,537.6254440000002,None,537.6254440000002,None,left,1.7673238999996101,537.6254440000002,None,539.4082232999999,None,right,2.6645675999998275,539.4082232999999,None,539.4082232999999,None,-9.261530833217742,150.48322674335884,,,,10,001,2021_Apr_09_1054,AB_pic_singleT2,2021.1.2,60.00996165378676,
AB,lag6,6,5,11,0.06000000005000003,0,0.3,main,,,,,0,58,58,58,,,,,,,nose.jpg,windmill.jpg,ipad02.jpg,vulture.jpg,ostrich.jpg,kite.jpg,church.jpg,tree.jpg,squirrel.jpg,whiteout.jpg,toucan.jpg,football.jpg,jellyfish.jpg,skippingrope.jpg,well.jpg,chefshat.jpg,birdnest.jpg,,,,,1,0,13,,,,,.\resources\toucan.jpg,,,1,,,,,,,,,1,,,,,,,,,space,547.9909785,None,547.9909785,None,,,,,,,542.1080233000002,544.8745226000001,544.5912046000003,None,0.07091183090077999,0.07710779999979422,0.09375480000016978,0.14376609999999346,0.16044500000043627,0.2270871000000625,0.24373780000041734,0.2937480000000505,0.31040870000015275,0.36041910000039934,0.37707659999978205,0.4270945999996911,0.4437417999997706,0.5103970999998637,0.5270657000000938,0.5770468000000619,0.5938405999995666,0.6437863999999536,0.6604147999996712,0.7103843000004417,0.7270949000003384,0.7936994000001505,0.8103809000003821,0.8604217000001881,0.8770457000000533,0.9268732000000455,0.9432858999998643,0.9932854999997289,1.0099257000001671,545.1082911000003,None,545.1082911000003,None,546.1244569,None,546.1244569,None,left,1.1243178000004264,546.1244569,None,547.2743326,None,right,0.6704427000004216,547.2743326,None,547.2743326,None,-9.218261958845057,150.48868856638381,,,10.425771399999576,10,001,2021_Apr_09_1054,AB_pic_singleT2,2021.1.2,60.00996165378676,
AB,lag7,7,4,11,0.06000000005000003,0,0.3,main,,,,,0,59,59,59,,,,,,,cow.jpg,locker.jpg,dartboard.jpg,lighthouse.jpg,redfox.jpg,porcupine.jpg,baseballbat.jpg,ducttape.jpg,volleyball.jpg,moon.jpg,marble.jpg,microwave.jpg,horse.jpg,hotdogweiner.jpg,cashregister01.jpg,swing.jpg,dalmatian.jpg,,,,,0,0,13,,,,,.\resources\marble.jpg,,,1,,,,,,,,,1,,,,,,,,,None,563.3898723200003,None,563.3898723200003,None,,,,,,,558.4568761999999,561.2066524000002,560.9233344000004,None,0.06937147982283935,0.07659980000062205,0.0936931000005643,0.1436656000005314,0.15990940000028786,0.21036390000062966,0.22702040000058332,0.2932287000003271,0.3103283000000374,0.3599365999998554,0.37700480000057723,0.4270142000004853,0.44323630000053527,0.4936496000000261,0.510315399999854,0.5602955000003931,0.5770334999997431,0.6265725000002931,0.6432552000005671,0.7098897000005309,0.7265661000001273,0.7765362999998615,0.7932052000005569,0.8432420999997703,0.8599045999999362,0.9098541000003024,0.9265578000004098,0.9765547000006336,0.9932016000002477,561.4404175999998,None,561.4404175999998,None,562.4399167000001,None,562.4399167000001,None,right,0.7449129000005996,562.4399167000001,None,563.2065065999996,None,right,0.15429060000042227,563.2065065999996,None,563.2065065999996,None,-9.191479609942864,150.49328216710407,,,,10,001,2021_Apr_09_1054,AB_pic_singleT2,2021.1.2,60.00996165378676,
AB,lag5,5,3,8,0.06000000005000003,0,0.3,main,,,,,0,60,60,60,,,,,,,recyclingbin.jpg,witchhat.jpg,mouse.jpg,soccerball.jpg,bacon.jpg,dragonfly01.jpg,spear02.jpg,honeybee.jpg,microwave.jpg,elbow.jpg,squirrel.jpg,porcupine.jpg,bull.jpg,cupcake.jpg,urinal.jpg,schoolbus.jpg,rollerblade.jpg,,,,,0,1,10,,,,,.\resources\honeybee.jpg,,,0,,,,,,,,,0,,,,,,,,,None,570.33937852,None,570.33937852,None,,,,,,,563.4065134000002,566.1562953000002,565.8896561000001,None,0.06884264123611918,0.07658119999996416,0.09324629999991885,0.1432278000002043,0.15989280000030703,0.2099035000001095,0.2265744000005725,0.2765928000007989,0.2932286000004751,0.359889800000019,0.3765441000005012,0.42655009999998583,0.44321790000049077,0.4932126000003336,0.5099034000004394,0.5598831000006612,0.5765332999999373,0.6265395000000353,0.6428038000003653,0.6927820999999312,0.7094401000003927,0.7594606000002386,0.7761201000002984,,,,,,,566.4067120999998,None,566.4067120999998,None,567.1895777999998,None,567.1895777999998,None,left,2.2271776000006867,567.1895777999998,None,569.4394083999996,None,right,0.8813737999998921,569.4394083999996,None,569.4394083999996,None,-9.16017367515463,150.49793002020368,,,,10,001,2021_Apr_09_1054,AB_pic_singleT2,2021.1.2,60.00996165378676,
AB,lag3,3,5,8,0.06000000005000003,0,0.3,main,,,,,0,61,61,61,,,,,,,volleyball.jpg,bluejay.jpg,cigar.jpg,drumset.jpg,dartboard.jpg,mouse.jpg,wheelbarrow01.jpg,frisbee.jpg,handcuffs.jpg,trophy01.jpg,tire.jpg,fishskeleton.jpg,sledgehammer.jpg,spicerack.jpg,ear.jpg,dolphin01.jpg,squid.jpg,,,,,0,0,10,,,,,.\resources\frisbee.jpg,,,1,,,,,,,,,1,,,,,,,,,None,574.9223747199998,None,574.9223747199998,None,,,,,,,570.3560193000003,573.1062018000002,572.8391632000003,None,0.06845215320277667,0.07704499999999825,0.0937285999998494,0.14370850000068458,0.1603928000004089,0.2103744000005463,0.22704239999984566,0.2770442999999432,0.29370400000061636,0.3437182000006942,0.360372200000711,0.4270334000002549,0.4437130000005709,0.4936723999999231,0.5103679000003467,0.5603639999999359,0.5770103000004383,0.6270245000005161,0.6437054000007265,0.693275700000413,0.7099424000007275,0.7599503000001278,0.7766013999998904,,,,,,,573.3562082999997,None,573.3562082999997,None,574.1390805999999,None,574.1390805999999,None,right,0.5737019999996846,574.1390805999999,None,574.7390190999995,None,right,0.16575210000064544,574.7390190999995,None,574.7390190999995,None,-9.264156691603663,150.49442742476813,,,,10,001,2021_Apr_09_1054,AB_pic_singleT2,2021.1.2,60.00996165378676,
AB,lag4,4,5,9,0.06000000005000003,0,0.3,main,,,,,0,62,62,62,,,,,,,musicsheet.jpg,fortunecookie.jpg,tent.jpg,cork02.jpg,electrictoothbrush01c.jpg,vacuumcleaner01.jpg,shovel01.jpg,drumstick.jpg,zebra.jpg,tarantula.jpg,humanskeleton.jpg,firehydrant.jpg,toolbox02.jpg,makiroll.jpg,fridge.jpg,witchhat.jpg,horseshoe.jpg,,,,,0,0,11,,,,,.\resources\zebra.jpg,,,1,,,,,,,,,1,,,,,,,,,None,579.65529542,None,579.65529542,None,,,,,,,574.9390235000001,577.6888036,577.4221541999996,None,0.07535682624736977,0.07620930000030057,0.09330250000039086,0.15994450000016514,0.17660950000026787,0.22661730000072566,0.24328740000055404,0.30993320000015956,0.3266252000003078,0.3932741000007809,0.40992280000045866,0.45992050000040763,0.4766085999999632,0.5432801000006293,0.5599287000004551,0.6099050000002535,0.6265822000004846,0.6932386000007682,0.709929500000726,0.7598911000004591,0.77656560000014,0.8432181000007404,0.8598897000001671,0.9099081000003935,0.9265369000004284,,,,,577.9392039000004,None,577.9392039000004,None,578.8725005999995,None,578.8725005999995,None,right,0.5922718000001623,578.8725005999995,None,579.4886625999998,None,right,0.14421080000010988,579.4886625999998,None,579.4886625999998,None,-9.230632121431755,150.49992751836385,,,,10,001,2021_Apr_09_1054,AB_pic_singleT2,2021.1.2,60.00996165378676,
AB,lag1,1,3,4,0.06000000005000003,0,0.3,main,,,,,0,63,63,63,,,,,,,raccoon.jpg,fingerprint.jpg,church.jpg,pirateflag.jpg,englishcucumber.jpg,cheetah.jpg,athleticsock.jpg,bowtie.jpg,christmastree.jpg,statue.jpg,hockeystick.jpg,cannon.jpg,greathornowl.jpg,granolabar01.jpg,fireplace.jpg,motorcycle.jpg,car.jpg,,,,,1,1,6,,,,,.\resources\pirateflag.jpg,,,1,,,,,,,,,1,,,,,,,,,None,584.3883547199997,None,584.3883547199997,None,,,,,,,579.6720235000003,582.4217986000003,582.1551572999997,None,0.0725324921846864,0.07623510000030365,0.09288560000004509,0.15971540000009554,0.17581299999983457,0.22579750000022614,0.24288640000031592,0.2924579000000449,0.30953709999994317,0.37578080000002956,0.3924587999999858,0.4424519000003784,0.4591202000001431,0.5091025000001537,0.525766200000362,,,,,,,,,,,,,,,582.6722225000003,None,582.6722225000003,None,583.2050953999997,None,583.2050953999997,None,left,0.9796791000007943,583.2050953999997,None,584.2049784999999,None,left,0.16377060000013444,584.2049784999999,None,584.2049784999999,None,-9.216952703371973,150.5047472597963,,,,10,001,2021_Apr_09_1054,AB_pic_singleT2,2021.1.2,60.00996165378676,
AB,lag5,5,4,9,0.06000000005000003,0,0.3,main,,,,,0,64,64,64,,,,,,,lighthouse.jpg,jeep.jpg,chimney.jpg,recyclingbin.jpg,funnel.jpg,whiteout.jpg,football.jpg,accordion01.jpg,birdnest.jpg,christmaslights.jpg,microphone01.jpg,electricguitar01.jpg,drumstick.jpg,mrpotatohead.jpg,lion.jpg,zipper.jpg,crosscountryski.jpg,,,,,0,1,11,,,,,.\resources\birdnest.jpg,,,1,,,,,,,,,1,,,,,,,,,None,589.5046588199997,None,589.5046588199997,None,,,,,,,584.4050006999996,587.1547801999995,586.8714695999997,None,0.06741537971475069,0.07650709999961691,0.09315019999939977,0.14316559999952005,0.15981309999915538,0.20981149999988702,0.2264852999996947,0.2764915999996447,0.2931886999995186,0.3431504000000132,0.3598168999997142,0.40981429999919783,0.42647609999949054,0.476483499999631,0.4931548999993538,0.5431245999998282,0.5598041999992347,0.6098083999995652,0.6264916999998604,0.6760732999991887,0.6927124999992884,0.7427201999998942,0.7593876999999338,0.8093880999995235,0.826052699999309,,,,,587.3885301999999,None,587.3885301999999,None,588.2213908000003,None,588.2213908000003,None,right,1.0113951000002999,588.2213908000003,None,589.2546315,None,left,0.2261951999998928,589.2546315,None,589.2546315,None,-9.197456164205738,150.51044191632153,,,,10,001,2021_Apr_09_1054,AB_pic_singleT2,2021.1.2,60.00996165378676,
AB,lag4,4,3,7,0.06000000005000003,0,0.3,main,,,,,0,65,65,65,,,,,,,trampoline.jpg,toolbox02.jpg,volleyball.jpg,parachute.jpg,donut.jpg,urinal.jpg,schoolbus.jpg,polarbear.jpg,fortunecookie.jpg,firehydrant.jpg,fingerprint.jpg,cupcake.jpg,beaver.jpg,cymbal.jpg,dalmatian.jpg,pokerchips.jpg,duck01.jpg,,,,,0,0,9,,,,,.\resources\schoolbus.jpg,,,1,,,,,,,,,1,,,,,,,,,None,593.9047593199997,None,593.9047593199997,None,,,,,,,589.5213029999995,592.2711149999996,592.0215875000004,None,0.06667748285742432,0.0828401999997368,0.0995028999996066,0.14950669999961974,0.16618389999985084,0.2162415000002511,0.23282149999977264,0.2828114000003552,0.2995026999997208,0.3494991999996273,0.36615340000025753,0.4161631999995734,0.4328082000001814,0.48281669999960286,0.49947340000016993,0.5495099999998274,0.5661348000003272,0.6161726000000272,0.6328076999998302,0.6828033000001597,0.6994613999995636,,,,,,,,,592.5381835999997,None,592.5381835999997,None,593.2548268,None,593.2548268,None,right,0.4339190000000599,593.2548268,None,593.7214800000002,None,right,0.16731509999954142,593.7214800000002,None,593.7214800000002,None,-9.1622780405486,150.51596326138147,,,,10,001,2021_Apr_09_1054,AB_pic_singleT2,2021.1.2,60.00996165378676,
AB,lag7,7,3,10,0.06000000005000003,0,0.3,main,,,,,0,66,66,66,,,,,,,hotdogweiner.jpg,pooltable.jpg,sink.jpg,pig.jpg,rose.jpg,birthdaycandle.jpg,badmintonracket.jpg,guitarcase.jpg,coffeemaker.jpg,beaver.jpg,beerbottle.jpg,armadillo.jpg,dromedary.jpg,bed.jpg,chair.jpg,cat.jpg,foosballtable.jpg,,,,,0,0,12,,,,,.\resources\beaver.jpg,,,1,,,,,,,,,1,,,,,,,,,None,598.67061082,None,598.67061082,None,,,,,,,593.9214484000004,596.6879202999999,596.4212797999999,None,0.07161155410758897,0.08283010000013746,0.099508500000411,0.14953150000019377,0.16614990000016405,0.21617560000049707,0.23282879999987927,0.2994461999996929,0.31612370000038936,0.366145900000447,0.3827733999996781,0.43279809999967256,0.4494192000001931,0.5161055999997188,0.5327984000005017,0.5827475000005506,0.599417600000379,0.6494111000001794,0.6661030000004757,0.7327788000002329,0.7494327000003977,0.7994094000005134,0.8161476000004768,0.8660802000003969,0.8827363999998852,0.9327384999996866,0.9493899999997666,,,596.9378920999998,None,596.9378920999998,None,597.9044641,None,597.9044641,None,right,0.5602744999996503,597.9044641,None,598.4872792999995,None,right,0.16145510000023933,598.4872792999995,None,598.4872792999995,None,-9.12528205213302,150.5197261967742,,,,10,001,2021_Apr_09_1054,AB_pic_singleT2,2021.1.2,60.00996165378676,
