trialType,cndTyp,lag,T1_loc,T2_loc,stimLen,isi,skipProb,phase,trials.thisRepN,trials.thisTrialN,trials.thisN,trials.thisIndex,trials2.thisRepN,trials2.thisTrialN,trials2.thisN,trials2.thisIndex,key_resp_4.keys,key_resp_4.rt,key_resp_4.started,key_resp_4.stopped,textbox.started,textbox.stopped,img0,img1,img2,img3,img4,img5,img6,img7,img8,img9,img10,img11,img12,img13,img14,img15,img16,option1.started,option1.stopped,text_2.started,text_2.stopped,skip1,skip2,lastPresent,displayPicture.started,displayPicture.stopped,polygon_2.started,polygon_2.stopped,opt1_t1,polygon_4.started,polygon_4.stopped,cor1,option1_t1.started,option1_t1.stopped,key_resp.keys,key_resp.rt,key_resp.started,key_resp.stopped,polygon_5.started,polygon_5.stopped,cor2,key_resp_2.keys,key_resp_2.rt,key_resp_2.started,key_resp_2.stopped,textbox_2.started,textbox_2.stopped,textbox_3.started,textbox_3.stopped,key_resp_3.keys,key_resp_3.started,key_resp_3.stopped,textbox_6.started,textbox_6.stopped,key_resp_7.keys,key_resp_7.rt,key_resp_7.started,key_resp_7.stopped,textbox_4.started,textbox_4.stopped,option1_3.started,option1_3.stopped,text_7.started,text_7.stopped,curStimTim,stimOFF0,stimON0,stimOFF1,stimON1,stimOFF2,stimON2,stimOFF3,stimON3,stimOFF4,stimON4,stimOFF5,stimON5,stimOFF6,stimON6,stimOFF7,stimON7,stimOFF8,stimON8,stimOFF9,stimON9,stimOFF10,stimON10,stimOFF11,stimON11,stimOFF12,stimON12,stimOFF13,stimON13,displayPicture_4.started,displayPicture_4.stopped,polygon_16.started,polygon_16.stopped,polygon_7.started,polygon_7.stopped,option1_t1_2.started,option1_t1_2.stopped,key_resp_6.keys,key_resp_6.rt,key_resp_6.started,key_resp_6.stopped,polygon_17.started,polygon_17.stopped,key_resp_8.keys,key_resp_8.rt,key_resp_8.started,key_resp_8.stopped,textbox_5.started,textbox_5.stopped,B0,B1,stimOFF14,stimON14,key_resp_3.rt,participant,session,date,expName,psychopyVersion,frameRate,
,,,,,,,,,,,,,,,,,space,7.375950200000261,13.962068399999225,None,,,,,,,,,,,,,,,,,,,,,,,,,,,,,,,,,,,,,,,,,,,,,,,,,,,,,,,,,,,,,,,,,,,,,,,,,,,,,,,,,,,,,,,,,,,,,,,,,,,,,,,,,,,,,,,,,,,,,,,,,11,001,2021_Apr_09_1119,AB_pic_singleT2,2021.1.2,59.981273846533774,
AB,lag2,2,3,5,0.2,0.05,0.5,,0,0,0,4,,,,,,,,,13.962068399999225,None,granolabar01.jpg,greatwhiteshark.jpg,steeringwheel.jpg,cheetah.jpg,birthdaycandle.jpg,polarbear.jpg,chimney.jpg,grizzly.jpg,kite.jpg,parkingmeter.jpg,trumpet.jpg,cork02.jpg,microphone01.jpg,bat.jpg,noparkingsign.jpg,drumset.jpg,lollipop04.jpg,21.4086170999999,24.15796979999959,23.891321299999618,None,1,1,7,24.40794839999944,None,24.40794839999944,None,.\resources\birthdaycandle.jpg,26.407780499999717,None,1,26.407780499999717,None,left,2.2262658999998166,26.407780499999717,None,28.674658899999486,None,1,left,2.6633166999999958,28.674658899999486,None,28.674658899999486,None,31.37448469999981,None,None,32.37401643999929,None,32.37401643999929,None,,,,,,,,,,,,,,,,,,,,,,,,,,,,,,,,,,,,,,,,,,,,,,,,,,,,,,,,,,,,,,,,,11,001,2021_Apr_09_1119,AB_pic_singleT2,2021.1.2,59.981273846533774,
AB,lag1,1,4,5,0.2,0.05,0.5,,0,1,1,12,,,,,,,,,,,lighthouse.jpg,corn02.jpg,ladder.jpg,ladybug03.jpg,cloud.jpg,moose.jpg,lip.jpg,polarbear.jpg,doghouse.jpg,greatwhiteshark.jpg,steeringwheel.jpg,lizard.jpg,witchhat.jpg,kite.jpg,saltshaker03a.jpg,tarantula.jpg,barrel01.jpg,32.3910537999991,35.14086269999916,34.85717349999959,None,0,1,7,35.37418499999967,None,35.37418499999967,None,.\resources\cloud.jpg,37.37363639999967,None,1,37.37363639999967,None,right,2.0923377999997683,37.37363639999967,None,39.50681199999963,None,1,left,1.2231842999999571,39.50681199999963,None,39.50681199999963,None,40.756722699999955,None,None,41.75705113999957,None,41.75705113999957,None,,,,,,,,,,,,,,,,,,,,,,,,,,,,,,,,,,,,,,,,,,,,,,,,,,,,,,,,,,,,,,,,,11,001,2021_Apr_09_1119,AB_pic_singleT2,2021.1.2,59.981273846533774,
AB,lag1,1,3,4,0.2,0.05,0.5,,0,2,2,3,,,,,,,,,,,elbow.jpg,basketball01.jpg,nunchuk.jpg,shovel01.jpg,chainsaw.jpg,mouse.jpg,electricguitar01.jpg,wheelchair.jpg,penguin.jpg,grizzly.jpg,shower.jpg,flamingo.jpg,tennisracket.jpg,brownsugar.jpg,pokerchips.jpg,candycane01a.jpg,platypus.jpg,41.77371879999919,44.52351539999927,44.25692069999968,None,1,1,6,44.773500199999944,None,44.773500199999944,None,.\resources\shovel01.jpg,46.522973599999204,None,1,46.522973599999204,None,left,3.55102480000005,46.522973599999204,None,50.1060581999991,None,1,left,1.343963000000258,50.1060581999991,None,50.1060581999991,None,51.48928629999955,None,None,52.48961093999933,None,52.48961093999933,None,,,,,,,,,,,,,,,,,,,,,,,,,,,,,,,,,,,,,,,,,,,,,,,,,,,,,,,,,,,,,,,,,11,001,2021_Apr_09_1119,AB_pic_singleT2,2021.1.2,59.981273846533774,
AB,lag3,3,5,8,0.2,0.05,0.5,,0,3,3,10,,,,,,,,,,,tiger02.jpg,tire.jpg,surfboard.jpg,trumpet.jpg,showerhead01.jpg,mattress.jpg,cigar.jpg,guitarcase.jpg,ear.jpg,tank.jpg,skateboard.jpg,tree.jpg,drumset.jpg,flag.jpg,chair.jpg,greatwhiteshark.jpg,mrpotatohead.jpg,52.48960939999961,55.2390420999991,54.97241499999927,None,1,0,10,55.48905339999965,None,55.48905339999965,None,.\resources\guitarcase.jpg,58.238853499999095,None,1,58.238853499999095,None,left,1.1391046000007918,58.238853499999095,None,59.422103299999435,None,1,right,1.6518887000001996,59.422103299999435,None,59.422103299999435,None,61.12242259999948,None,None,62.12191133999986,None,62.12191133999986,None,,,,,,,,,,,,,,,,,,,,,,,,,,,,,,,,,,,,,,,,,,,,,,,,,,,,,,,,,,,,,,,,,11,001,2021_Apr_09_1119,AB_pic_singleT2,2021.1.2,59.981273846533774,
AB,lag7,7,5,12,0.2,0.05,0.5,,0,4,4,7,,,,,,,,,,,chefshat.jpg,lizard.jpg,anchor.jpg,hockeypuck.jpg,jeep.jpg,coffeemaker.jpg,corn02.jpg,acousticguitar02.jpg,skunk.jpg,locker.jpg,apron.jpg,dolphin01.jpg,firehydrant.jpg,marble.jpg,arrow02.jpg,lightswitch01.jpg,cow.jpg,62.139039099999536,64.88837799999965,64.62172809999993,None,0,0,14,65.13836099999935,None,65.13836099999935,None,.\resources\dolphin01.jpg,68.88808589999917,None,0,68.88808589999917,None,left,1.2978888000006918,68.88808589999917,None,70.23844759999974,None,0,left,0.7635522999999012,70.23844759999974,None,70.23844759999974,None,71.03837779999958,None,None,72.03785423999997,None,72.03785423999997,None,,,,,,,,,,,,,,,,,,,,,,,,,,,,,,,,,,,,,,,,,,,,,,,,,,,,,,,,,,,,,,,,,11,001,2021_Apr_09_1119,AB_pic_singleT2,2021.1.2,59.981273846533774,
AB,lag4,4,4,8,0.2,0.05,0.5,,0,5,5,13,,,,,,,,,,,statue.jpg,cashregister01.jpg,pooltable.jpg,spiderweb.jpg,birdnest.jpg,lily.jpg,zipper.jpg,tie02.jpg,eiffeltower.jpg,uprightpiano01.jpg,recyclingbin.jpg,skateboard.jpg,tire.jpg,duck01.jpg,tiger02.jpg,curtain.jpg,lizard.jpg,72.03789669999969,74.7876641999992,74.52101439999933,None,0,0,10,75.02097839999988,None,75.02097839999988,None,.\resources\tie02.jpg,77.78742179999972,None,0,77.78742179999972,None,left,7.046535899999981,77.78742179999972,None,84.85409019999952,None,1,right,1.20407029999933,84.85409019999952,None,84.85409019999952,None,86.10386359999939,None,None,87.10342783999985,None,87.10342783999985,None,,,,,,,,,,,,,,,,,,,,,,,,,,,,,,,,,,,,,,,,,,,,,,,,,,,,,,,,,,,,,,,,,11,001,2021_Apr_09_1119,AB_pic_singleT2,2021.1.2,59.981273846533774,
AB,lag6,6,5,11,0.2,0.05,0.5,,0,6,6,0,,,,,,,,,,,doghouse.jpg,fishskeleton.jpg,dolphin01.jpg,golfball.jpg,ceilingfan01.jpg,armadillo.jpg,pirateflag.jpg,polarbear.jpg,duck01.jpg,windmill.jpg,cross01.jpg,brownsugar.jpg,firehydrant.jpg,bench01.jpg,church.jpg,bridge.jpg,kite.jpg,87.12047489999986,89.86986109999998,89.58658969999942,None,0,1,13,90.10359799999969,None,90.10359799999969,None,.\resources\cross01.jpg,93.60292369999934,None,1,93.60292369999934,None,right,2.4151308000000427,93.60292369999934,None,96.03608049999912,None,1,left,1.709901500000342,96.03608049999912,None,96.03608049999912,None,97.78596909999942,None,None,98.78630043999928,None,98.78630043999928,None,,,,,,,,,,,,,,,,,,,,,,,,,,,,,,,,,,,,,,,,,,,,,,,,,,,,,,,,,,,,,,,,,11,001,2021_Apr_09_1119,AB_pic_singleT2,2021.1.2,59.981273846533774,
AB,lag2,2,5,7,0.2,0.05,0.5,,0,7,7,9,,,,,,,,,,,ipad02.jpg,birthdaycandle.jpg,dreamcatcher.jpg,cactus.jpg,zebra.jpg,witchhat.jpg,scooter.jpg,polarbear.jpg,microphone01.jpg,alligator.jpg,zipper.jpg,bathtub.jpg,squirrel.jpg,foldingchair.jpg,sheep.jpg,hotdogweiner.jpg,acorn.jpg,98.80295419999948,101.55285019999974,101.28619929999968,None,1,0,9,101.80282989999978,None,101.80282989999978,None,.\resources\scooter.jpg,104.30220869999994,None,1,104.30220869999994,None,left,1.4997623999997813,104.30220869999994,None,105.8521026999997,None,1,right,1.4139004000007844,105.8521026999997,None,105.8521026999997,None,107.30245209999975,None,None,108.3023744399994,None,108.3023744399994,None,,,,,,,,,,,,,,,,,,,,,,,,,,,,,,,,,,,,,,,,,,,,,,,,,,,,,,,,,,,,,,,,,11,001,2021_Apr_09_1119,AB_pic_singleT2,2021.1.2,59.981273846533774,
AB,lag7,7,4,11,0.2,0.05,0.5,,0,8,8,2,,,,,,,,,,,crosscountryski.jpg,flag.jpg,rose.jpg,trumpet.jpg,fireplace.jpg,alligator.jpg,safe.jpg,tree.jpg,squid.jpg,brownsugar.jpg,apron.jpg,bow.jpg,banjo.jpg,bluecheese.jpg,moon.jpg,icecube02.jpg,kangaroo.jpg,108.31902769999942,111.06839169999967,110.78507219999938,None,1,1,13,111.28503379999984,None,111.28503379999984,None,.\resources\apron.jpg,114.80146269999932,None,1,114.80146269999932,None,left,1.408493300000373,114.80146269999932,None,116.25130419999914,None,1,left,0.558728500000143,116.25130419999914,None,116.25130419999914,None,116.8345864999992,None,None,117.83451643999942,None,117.83451643999942,None,,,,,,,,,,,,,,,,,,,,,,,,,,,,,,,,,,,,,,,,,,,,,,,,,,,,,,,,,,,,,,,,,11,001,2021_Apr_09_1119,AB_pic_singleT2,2021.1.2,59.981273846533774,
AB,lag5,5,4,9,0.2,0.05,0.5,,0,9,9,11,,,,,,,,,,,ladybug03.jpg,cork02.jpg,panda.jpg,stool01.jpg,hockeystick.jpg,grizzly.jpg,guitarcase.jpg,ear.jpg,polarbear.jpg,scorpion.jpg,boxingglove01.jpg,chainsaw.jpg,bullet.jpg,pokerchips.jpg,punchingbag.jpg,eiffeltower.jpg,platypus.jpg,117.85118609999972,120.60139059999983,120.33472399999937,None,0,1,11,120.83429309999974,None,120.83429309999974,None,.\resources\polarbear.jpg,123.85074839999925,None,1,123.85074839999925,None,right,1.6712182000001121,123.85074839999925,None,125.56729769999947,None,1,left,0.8347040999997262,125.56729769999947,None,125.56729769999947,None,126.43388919999961,None,None,127.43425433999946,None,127.43425433999946,None,,,,,,,,,,,,,,,,,,,,,,,,,,,,,,,,,,,,,,,,,,,,,,,,,,,,,,,,,,,,,,,,,11,001,2021_Apr_09_1119,AB_pic_singleT2,2021.1.2,59.981273846533774,
AB,lag5,5,4,9,0.2,0.05,0.5,,0,10,10,6,,,,,,,,,,,crab01.jpg,tank.jpg,brownsugar.jpg,mattress.jpg,jellyfish.jpg,bacon.jpg,beerbottle.jpg,cow.jpg,bridge.jpg,witchhat.jpg,sledgehammer.jpg,paperairplane.jpg,nunchuk.jpg,trampoline.jpg,surfboard.jpg,dolphin01.jpg,cloud.jpg,127.45092879999993,130.20069149999927,129.93364559999918,None,1,0,11,130.4336119999998,None,130.4336119999998,None,.\resources\bridge.jpg,133.45006319999993,None,1,133.45006319999993,None,left,7.175862999999481,133.45006319999993,None,140.6661884999994,None,1,right,0.41573349999998754,140.6661884999994,None,140.6661884999994,None,141.11615899999924,None,None,142.11607233999948,None,142.11607233999948,None,,,,,,,,,,,,,,,,,,,,,,,,,,,,,,,,,,,,,,,,,,,,,,,,,,,,,,,,,,,,,,,,,11,001,2021_Apr_09_1119,AB_pic_singleT2,2021.1.2,59.981273846533774,
AB,lag3,3,3,6,0.2,0.05,0.5,,0,11,11,5,,,,,,,,,,,pokerchips.jpg,saxophone.jpg,snowboard.jpg,tire.jpg,cupcake.jpg,daddylonglegs.jpg,sausage.jpg,butterfly.jpg,helicopter.jpg,dalmatian.jpg,fireplace.jpg,totempole.jpg,birdhouse.jpg,dartboard.jpg,donut.jpg,tent.jpg,pigeon.jpg,142.13275299999987,144.88292139999976,144.6163190999996,None,0,1,8,145.11585419999938,None,145.11585419999938,None,.\resources\daddylonglegs.jpg,147.38236729999971,None,1,147.38236729999971,None,right,0.7877018999997745,147.38236729999971,None,148.19897069999934,None,1,left,0.771026499999607,148.19897069999934,None,148.19897069999934,None,149.0156212999991,None,None,150.01553593999924,None,150.01553593999924,None,,,,,,,,,,,,,,,,,,,,,,,,,,,,,,,,,,,,,,,,,,,,,,,,,,,,,,,,,,,,,,,,,11,001,2021_Apr_09_1119,AB_pic_singleT2,2021.1.2,59.981273846533774,
AB,lag6,6,5,11,0.2,0.05,0.5,,0,12,12,8,,,,,,,,,,,mattress.jpg,telescope.jpg,eyepatch.jpg,hand01b.jpg,bowtie.jpg,anchor.jpg,exitsign.jpg,eye.jpg,motorcycle.jpg,toad.jpg,porcupine.jpg,dandelion.jpg,hotdogweiner.jpg,crab01.jpg,bench01.jpg,frenchfries.jpg,hulahoop.jpg,150.01553479999984,152.76538939999955,152.49874379999983,None,0,0,13,152.99870759999976,None,152.99870759999976,None,.\resources\porcupine.jpg,156.51511499999924,None,1,156.51511499999924,None,right,0.6228689999998096,156.51511499999924,None,157.19840919999933,None,1,right,0.33955839999998716,157.19840919999933,None,157.19840919999933,None,157.58173289999922,None,None,158.58208243999943,None,158.58208243999943,None,,,,,,,,,,,,,,,,,,,,,,,,,,,,,,,,,,,,,,,,,,,,,,,,,,,,,,,,,,,,,,,,,11,001,2021_Apr_09_1119,AB_pic_singleT2,2021.1.2,59.981273846533774,
AB,lag4,4,3,7,0.2,0.05,0.5,,0,13,13,1,,,,,,,,,,,pirateflag.jpg,birdnest.jpg,hand01b.jpg,eye.jpg,africanelephant.jpg,jellybean.jpg,doghouse.jpg,beerbottle.jpg,parachute.jpg,kangaroo.jpg,raccoon.jpg,squirrel.jpg,donut.jpg,redfox.jpg,callbell.jpg,jellyfish.jpg,banjo.jpg,158.59876069999973,161.34810509999988,161.08147009999993,None,1,0,9,161.5980871999991,None,161.5980871999991,None,.\resources\doghouse.jpg,164.09790929999963,None,1,164.09790929999963,None,left,1.056286099999852,164.09790929999963,None,165.2144970999998,None,1,right,0.6354439000006096,165.2144970999998,None,165.2144970999998,None,165.89777539999977,None,None,166.89819463999956,None,166.89819463999956,None,,,,,,,,,,,,,,,,,,,,,,,,,,,,,,,,,,,,,,,,,,,,,,,,,,,,,,,,,,,,,,,,,11,001,2021_Apr_09_1119,AB_pic_singleT2,2021.1.2,59.981273846533774,
,,,,,,,,,,,,,,,,,,,,,,,,,,,,,,,,,,,,,,,,,,,,,,,,,,,,,,,,,,,,,,,,,,,,,,,,,,,,,space,3.0297817000000578,166.91482149999956,None,,,,,,,,,,,,,,,,,,,,,,,,,,,,,,,,,,,,,,,,,,,,,,,,,,,,,,,,,,,,,11,001,2021_Apr_09_1119,AB_pic_singleT2,2021.1.2,59.981273846533774,
AB,lag6,6,5,11,0.2,0.05,0.5,ramp,,,,,0,0,0,0,,,,,,,moon.jpg,floorlamp.jpg,surfboard.jpg,apron.jpg,tulip02.jpg,lizard.jpg,athleticsock.jpg,electrictoothbrush01c.jpg,paperairplane.jpg,hulahoop.jpg,butterfly.jpg,penguin.jpg,snowman.jpg,masquerademask01.jpg,hand01b.jpg,musicsheet.jpg,snowboard.jpg,,,,,1,1,13,,,,,.\resources\butterfly.jpg,,,1,,,,,,,,,1,,,,,,,,,None,177.56357603999967,None,177.56357603999967,None,,,,,166.91482149999956,None,170.0812677999993,172.8306131999998,172.5639642999995,None,0.2,0.21620900000016263,0.26620530000036524,0.4661981999997806,0.51618740000049,0.716085899999598,0.7661667000002126,0.9661207999997714,1.0161238999999114,1.216107600000214,1.2661078000000998,1.4660258000003523,1.5160906999999497,1.7160735999996177,1.7660624000000098,1.9660587999997006,2.0160550000000512,2.2160322999998243,2.2660275999996884,2.466014200000245,2.516016700000364,2.7159983000001375,2.7659136000002036,2.9659818999998606,3.0159802999996828,3.2159592999996676,3.2658764999996492,3.465943899999729,3.515865500000473,172.99726839999948,None,172.99726839999948,None,176.51366209999924,None,176.51366209999924,None,left,0.5922270999999455,176.51366209999924,None,177.1469406999995,None,left,0.39094310000018595,177.1469406999995,None,177.1469406999995,None,,,,,,11,001,2021_Apr_09_1119,AB_pic_singleT2,2021.1.2,59.981273846533774,
AB,lag4,4,4,8,0.19066666667,0.046667,0.48,ramp,,,,,0,1,1,1,,,,,,,tarantula.jpg,eyepatch.jpg,telescope.jpg,witchhat.jpg,whiteout.jpg,foldingchair.jpg,locker.jpg,tricycle.jpg,seal.jpg,vulture.jpg,crosscountryski.jpg,parkingmeter.jpg,foosballtable.jpg,bat.jpg,pig.jpg,jellyfish.jpg,microphone01.jpg,,,,,1,0,10,,,,,.\resources\tricycle.jpg,,,1,,,,,,,,,1,,,,,,,,,None,184.99675793999958,None,184.99675793999958,None,,,,,,,177.58024589999968,180.33004889999938,180.06339639999987,None,0.19066666667,0.19833709999966231,0.24833509999916714,0.43172749999939697,0.48161869999967166,0.681692899999689,0.7149649999992107,0.9149469999993016,0.9649408999994193,1.1482587000000422,1.1982518999993772,1.3815832999998747,1.4316414999993867,1.614873699999407,1.6648692999997365,1.8648573999998916,1.914850099999967,2.0981840999993437,2.1481725999992705,2.331484399999681,2.38157019999926,2.564807099999598,2.6148052999997162,,,,,,,180.56336309999915,None,180.56336309999915,None,183.1965156999995,None,183.1965156999995,None,left,1.4135151999998925,183.1965156999995,None,184.6463836999992,None,right,0.32358120000026247,184.6463836999992,None,184.6463836999992,None,,,,,,11,001,2021_Apr_09_1119,AB_pic_singleT2,2021.1.2,59.981273846533774,
AB,lag7,7,4,11,0.18133333334,0.043334,0.45999999999999996,ramp,,,,,0,2,2,2,,,,,,,pooltable.jpg,cruiseship.jpg,elbow.jpg,dalmatian.jpg,tulip02.jpg,bullet.jpg,leafblower01.jpg,steeringwheel.jpg,trampoline.jpg,swordfish.jpg,dandelion.jpg,lollipop04.jpg,squid.jpg,duck01.jpg,calendar.jpg,chimney.jpg,pirateflag.jpg,,,,,0,0,13,,,,,.\resources\dandelion.jpg,,,1,,,,,,,,,1,,,,,,,,,None,194.07902553999938,None,194.07902553999938,None,,,,,,,185.01340939999955,187.76281559999916,187.4962126999999,None,0.18133333334,0.19474850000005972,0.22808250000070984,0.4114219000002777,0.4614138000006278,0.6447155000005296,0.6780428000001848,0.8614531000002899,0.9113907000000836,1.0946819999999207,1.1280273000002126,1.3113529000002018,1.3614188999999897,1.5446692000004987,1.5779935999998997,1.7613897000001089,1.8113941000001432,1.9946411999999327,2.02797610000016,2.2113555000005363,2.2613592000006975,2.4446074000006774,2.4779259000006277,2.6613215000006676,2.7113201000001936,2.87789470000007,2.9278911000001244,3.1112889000005453,3.1612033999999767,188.01280049999968,None,188.01280049999968,None,191.1792349999996,None,191.1792349999996,None,right,1.870773200000258,191.1792349999996,None,193.07910559999982,None,right,0.9708706999999777,193.07910559999982,None,193.07910559999982,None,-10.00407683084685,150.00000012762652,,,,11,001,2021_Apr_09_1119,AB_pic_singleT2,2021.1.2,59.981273846533774,
AB,lag5,5,5,10,0.17200000001000001,0.040000999999999995,0.43999999999999995,ramp,,,,,0,3,3,3,,,,,,,porcupine.jpg,scooter.jpg,swordfish.jpg,bed.jpg,seagull.jpg,cross01.jpg,apron.jpg,mattress.jpg,cymbal.jpg,arrow02.jpg,slug.jpg,donut.jpg,ear.jpg,dandelion.jpg,cannon.jpg,discoball.jpg,duck01.jpg,,,,,0,1,12,,,,,.\resources\arrow02.jpg,,,1,,,,,,,,,1,,,,,,,,,None,202.02845723999926,None,202.02845723999926,None,,,,,,,194.09573589999945,196.84553739999956,196.57885049999913,None,0.17200000001000001,0.17976980000003095,0.21301889999995183,0.3963309000000663,0.42975059999935183,0.5963195999993331,0.6463165999994089,0.8129624999992302,0.8629557999993267,1.0296963999999207,1.0629424999997354,1.2462832000001072,1.2796762999996645,1.4462790999996287,1.4962797999996837,1.66294519999974,1.6962647000000288,1.8796630999995614,1.912931099999696,2.0962349999999788,2.1296432999997705,2.2962199999992663,2.34622760000002,2.5128885999993145,2.5462002999993274,2.7295115999995687,2.7628457999999227,,,197.0788090999995,None,197.0788090999995,None,199.86197079999965,None,199.86197079999965,None,right,1.6440183000004254,199.86197079999965,None,201.54515729999912,None,left,0.44882460000007995,201.54515729999912,None,201.54515729999912,None,-10.008136239947735,150.00000041102172,,,,11,001,2021_Apr_09_1119,AB_pic_singleT2,2021.1.2,59.981273846533774,
AB,lag2,2,3,5,0.16266666668000002,0.03666799999999999,0.41999999999999993,ramp,,,,,0,4,4,4,,,,,,,totempole.jpg,cigar.jpg,humanskeleton.jpg,mrpotatohead.jpg,seagull.jpg,cupcake.jpg,well.jpg,ipad02.jpg,bowlingball.jpg,bluejay.jpg,toilet.jpg,exitsign.jpg,saltshaker03a.jpg,chair.jpg,drumset.jpg,elbow.jpg,dandelion.jpg,,,,,0,1,7,,,,,.\resources\seagull.jpg,,,1,,,,,,,,,1,,,,,,,,,None,210.3778478399996,None,210.3778478399996,None,,,,,,,202.04512759999943,204.79497159999937,204.5282832999992,None,0.16266666668000002,0.16316699999970297,0.21316449999994802,0.3631532999997944,0.4131714999994074,0.5631599999996979,0.6131342999997287,0.7631299999993644,0.8131203999992067,0.9631164999991597,1.013103699999192,1.163095599999906,1.1964463999993313,1.3630997000000207,1.3964358999992328,1.563066899999285,1.5964103999995132,,,,,,,,,,,,,205.02823869999975,None,205.02823869999975,None,206.64478639999925,None,206.64478639999925,None,right,2.9332092000004195,206.64478639999925,None,209.61125139999967,None,left,0.7426972000002934,209.61125139999967,None,209.61125139999967,None,-10.012176442415447,150.00000117116343,,,,11,001,2021_Apr_09_1119,AB_pic_singleT2,2021.1.2,59.981273846533774,
AB,lag3,3,5,8,0.15333333335000002,0.03333499999999999,0.3999999999999999,ramp,,,,,0,5,5,5,,,,,,,leafblower01.jpg,humanskeleton.jpg,cheetah.jpg,tie02.jpg,daddylonglegs.jpg,cloud.jpg,sandcastle.jpg,telescope.jpg,parkfountain.jpg,horseshoe.jpg,armadillo.jpg,urinal.jpg,skateboard.jpg,bull.jpg,donut.jpg,wallclock.jpg,calendar.jpg,,,,,0,0,10,,,,,.\resources\telescope.jpg,,,1,,,,,,,,,1,,,,,,,,,None,216.67739393999963,None,216.67739393999963,None,,,,,,,210.39452669999991,213.1443204999996,212.87767509999958,None,0.15333333335000002,0.16211360000033892,0.1955230000003212,0.3455137000000832,0.3787805000001754,0.5287442999997438,0.5620853999998872,0.7287359000001743,0.7620723999998518,0.9120603000001211,0.9454645000005257,1.0954604999997173,1.1287039999997432,1.278689700000541,1.3120322000004307,1.462014700000509,1.495429300000069,1.6620045999998183,1.695358099999794,1.8454042000003028,1.8786683999996967,2.028638300000239,2.061977100000149,,,,,,,213.39430139999968,None,213.39430139999968,None,215.4608331999998,None,215.4608331999998,None,right,0.49317060000066704,215.4608331999998,None,215.99412569999913,None,right,0.6637752999995428,215.99412569999913,None,215.99412569999913,None,-10.016191025341827,150.00000344461003,,,,11,001,2021_Apr_09_1119,AB_pic_singleT2,2021.1.2,59.981273846533774,
AB,lag1,1,4,5,0.14400000002000002,0.03000199999999999,0.3799999999999999,ramp,,,,,0,6,6,6,,,,,,,icecube02.jpg,tie02.jpg,redfox.jpg,key07.jpg,cow.jpg,jellybean.jpg,wallclock.jpg,ceilingfan01.jpg,witchhat.jpg,horseshoe.jpg,microphone01.jpg,penguin.jpg,polarbear.jpg,jeep.jpg,acousticguitar02.jpg,pingpongtable.jpg,marble.jpg,,,,,0,1,7,,,,,.\resources\cow.jpg,,,1,,,,,,,,,1,,,,,,,,,None,222.3936573399993,None,222.3936573399993,None,,,,,,,216.69406909999998,219.44386679999934,219.17722439999943,None,0.14400000002000002,0.14537399999971967,0.17861569999968196,0.32863129999986995,0.36194759999943926,0.49534719999974186,0.5285901999995986,0.6786019999999553,0.7119203000002017,0.8453247999996165,0.8785652999995364,1.0285644999994474,1.0453203999995822,1.195296199999575,1.2285458999995171,1.3785314999995535,1.3952885999997306,,,,,,,,,,,,,219.6938511999997,None,219.6938511999997,None,221.09374649999972,None,221.09374649999972,None,right,0.6121751000000586,221.09374649999972,None,221.72701719999986,None,left,0.64301979999982,221.72701719999986,None,221.72701719999986,None,-10.02015724331211,150.00001064711574,,,,11,001,2021_Apr_09_1119,AB_pic_singleT2,2021.1.2,59.981273846533774,
AB,lag6,6,5,11,0.13466666669000002,0.02666899999999999,0.3599999999999999,ramp,,,,,0,7,7,7,,,,,,,recyclingbin.jpg,elbow.jpg,pokerchips.jpg,zebra.jpg,tennisracket.jpg,footballhelmet.jpg,dormer.jpg,paperairplane.jpg,icecube02.jpg,hockeystick.jpg,tiger02.jpg,sledgehammer.jpg,chimney.jpg,tire.jpg,boat.jpg,seal.jpg,ladybug03.jpg,,,,,0,1,13,,,,,.\resources\tiger02.jpg,,,1,,,,,,,,,1,,,,,,,,,None,228.80983133999925,None,228.80983133999925,None,,,,,,,222.41029779999917,225.16014019999966,224.89345029999913,None,0.13466666669000002,0.14647040000090783,0.163115000000289,0.2964296000000104,0.3298525000000154,0.46308290000069974,0.49643160000050557,0.629740700000184,0.6464053000008789,0.796393600000556,0.813064600000871,0.9464216000005763,0.9798064000005979,1.1130394000001615,1.1297875000000204,1.2797800000007555,1.2963670000008278,1.4297021000002132,1.462988000000223,1.596366300000227,1.629748400000608,1.7629938000000038,1.7796561000004658,1.912998000000698,1.9463327000003119,2.079722700000275,2.1129845000004934,2.2463017000000036,2.2629525000002104,225.39341019999938,None,225.39341019999938,None,227.67659209999965,None,227.67659209999965,None,right,0.7173930999997538,227.67659209999965,None,228.4265347999999,None,left,0.36745479999990494,228.4265347999999,None,228.4265347999999,None,-10.023993751458406,150.0000341991893,,,,11,001,2021_Apr_09_1119,AB_pic_singleT2,2021.1.2,59.981273846533774,
AB,lag3,3,4,7,0.12533333336000002,0.023335999999999992,0.33999999999999986,ramp,,,,,0,8,8,8,,,,,,,dalmatian.jpg,ladybug03.jpg,magneticcompass.jpg,xylophone.jpg,electrictoothbrush01c.jpg,vacuumcleaner01.jpg,cruiseship.jpg,worldmap.jpg,bacon.jpg,fishskeleton.jpg,slug.jpg,cannon.jpg,sink.jpg,golfball.jpg,church.jpg,barrel01.jpg,bench01.jpg,,,,,0,0,9,,,,,.\resources\cruiseship.jpg,,,1,,,,,,,,,1,,,,,,,,,None,234.00945693999947,None,234.00945693999947,None,,,,,,,228.82655499999964,231.57630009999957,231.30968849999954,None,0.12533333336000002,0.12991489999967598,0.16315990000020975,0.27984250000008615,0.3131572000002052,0.4298103999999512,0.44647840000016004,0.5798191000003499,0.5964654999997947,0.7297930000004271,0.7464589999999589,0.879860699999881,0.8964605000001029,1.0297874999996566,1.0464343000003282,1.1798423999998704,1.1964309000004505,1.32982549999997,1.3464175999997678,1.4797544000002745,1.496400199999698,,,,,,,,,231.80961799999932,None,231.80961799999932,None,233.32617469999968,None,233.32617469999968,None,right,0.43588719999934256,233.32617469999968,None,233.7928052999996,None,right,0.20114250000005995,233.7928052999996,None,233.7928052999996,None,-10.027406248378192,150.00011266303537,,,,11,001,2021_Apr_09_1119,AB_pic_singleT2,2021.1.2,59.981273846533774,
AB,lag4,4,4,8,0.11600000003000002,0.020002999999999993,0.31999999999999984,ramp,,,,,0,9,9,9,,,,,,,car.jpg,dragonfly01.jpg,rose.jpg,sledgehammer.jpg,foosballtable.jpg,donut.jpg,lightswitch01.jpg,recyclingbin.jpg,cashregister01.jpg,toucan.jpg,ant.jpg,scooter.jpg,fingerprint.jpg,seagull.jpg,alligator.jpg,sheep.jpg,moose.jpg,,,,,0,0,10,,,,,.\resources\recyclingbin.jpg,,,1,,,,,,,,,1,,,,,,,,,None,239.37574363999974,None,239.37574363999974,None,,,,,,,234.02613649999967,236.77596979999998,236.50927469999988,None,0.11600000003000002,0.12841180000032182,0.14499789999990753,0.26165080000009766,0.278405400000338,0.3949824000001172,0.41163370000049326,0.5283918000004633,0.5449685000003228,0.6617118000003757,0.6949553000004016,0.8116109000002325,0.828363000000536,0.9449486000003162,0.9615993000006711,1.0782564000001003,1.094926700000542,1.211586299999908,1.228344800000741,1.3449141999999483,1.361657400000695,1.478226000000177,1.5115608000005523,,,,,,,237.0259191999994,None,237.0259191999994,None,238.54247039999973,None,238.54247039999973,None,right,0.5874707999992097,238.54247039999973,None,239.1590903999995,None,right,0.1947733999995762,239.1590903999995,None,239.1590903999995,None,-10.029319681428833,150.00037691509038,,,,11,001,2021_Apr_09_1119,AB_pic_singleT2,2021.1.2,59.981273846533774,
AB,lag5,5,4,9,0.10666666670000002,0.016669999999999994,0.2999999999999998,ramp,,,,,0,10,10,10,,,,,,,waterfall.jpg,chair.jpg,birdfeeder.jpg,bed.jpg,ladder.jpg,tire.jpg,ear.jpg,tank.jpg,penguin.jpg,christmastree.jpg,greatwhiteshark.jpg,lightswitch01.jpg,stubbywrench01a.jpg,microphone01.jpg,christmaslights.jpg,lily.jpg,nosmokingsign.jpg,,,,,0,1,11,,,,,.\resources\penguin.jpg,,,1,,,,,,,,,1,,,,,,,,,None,244.95869774000002,None,244.95869774000002,None,,,,,,,239.39241609999954,242.1422092999992,241.8756039,None,0.10666666670000002,0.11184239999965939,0.12850739999976213,0.24514859999999317,0.2619062000003396,0.36189610000019456,0.3784827999998015,0.478468299999804,0.4951312000002872,0.6118836999994528,0.628466500000286,0.7284582000002047,0.7451105999998617,0.8618625999997676,0.8784433999999237,0.978436999999758,0.9951061000001573,1.095084699999461,1.1118415000000823,1.2284226000001581,1.2450902000000497,1.3450702000000092,1.36182910000025,1.4783987999999226,1.4950622999995176,,,,,242.39219239999966,None,242.39219239999966,None,243.8920847999998,None,243.8920847999998,None,right,0.7978714999999283,243.8920847999998,None,244.72535659999994,None,left,0.21267170000010083,244.72535659999994,None,244.72535659999994,None,-10.025792896065678,150.0012700365491,,,,11,001,2021_Apr_09_1119,AB_pic_singleT2,2021.1.2,59.981273846533774,
AB,lag2,2,3,5,0.09733333337000002,0.013336999999999995,0.3,ramp,,,,,0,11,11,11,,,,,,,zebra.jpg,tiger02.jpg,greatwhiteshark.jpg,rose.jpg,bluecheese.jpg,armadillo.jpg,car.jpg,curtain.jpg,cymbal.jpg,birdnest.jpg,hockeystick.jpg,stool01.jpg,cashregister01.jpg,cross01.jpg,punchingbag.jpg,skunk.jpg,electrictoothbrush01c.jpg,,,,,1,0,7,,,,,.\resources\bluecheese.jpg,,,1,,,,,,,,,1,,,,,,,,,None,250.4583117399994,None,250.4583117399994,None,,,,,,,244.97533589999966,247.72521529999995,247.45852979999927,None,0.09733333337000002,0.11309170000004087,0.12984580000011192,0.21308900000076392,0.22984270000051765,0.3297433000007004,0.34641090000059194,0.4297344000005978,0.44640090000029886,0.546399000000747,0.5630809000003865,0.6630562000000282,0.6797216000004482,0.7630514000002222,0.7798111000001882,0.8798021000002336,0.8963793000002624,,,,,,,,,,,,,247.9584961999999,None,247.9584961999999,None,248.87508219999927,None,248.87508219999927,None,left,1.2549051999994845,248.87508219999927,None,250.15832629999932,None,right,0.26767719999952533,250.15832629999932,None,250.15832629999932,None,-10.002582074658827,150.00425893484865,,,,11,001,2021_Apr_09_1119,AB_pic_singleT2,2021.1.2,59.981273846533774,
AB,lag1,1,4,5,0.08800000004000003,0.010003999999999996,0.3,ramp,,,,,0,12,12,12,,,,,,,well.jpg,pingpongtable.jpg,footballhelmet.jpg,firehydrant.jpg,kangaroo.jpg,christmastree.jpg,tricycle.jpg,knee.jpg,africanelephant.jpg,fingerprint.jpg,kneepad01c.jpg,airhockeytable.jpg,coffeemaker.jpg,calendar.jpg,microphone01.jpg,makiroll.jpg,lizard.jpg,,,,,1,1,7,,,,,.\resources\kangaroo.jpg,,,1,,,,,,,,,1,,,,,,,,,None,256.9749940399994,None,256.9749940399994,None,,,,,,,250.47497439999916,253.22486559999925,252.95817289999923,None,0.08800000004000003,0.09619519999978365,0.11285889999999199,0.19618309999987105,0.2128327000000354,0.2961638999995557,0.3128270999995948,0.39614910000000236,0.412826199999472,0.49616249999962747,0.5128108999997494,0.5795612000001711,0.5961502999998629,0.6794648999994024,0.6961296999998012,0.779476199999408,0.796138400000018,,,,,,,,,,,,,253.47481119999975,None,253.47481119999975,None,254.2747518999995,None,254.2747518999995,None,left,1.6952109000003475,254.2747518999995,None,256.0250664999994,None,left,0.9209227000001192,256.0250664999994,None,256.0250664999994,None,-9.912316259833698,150.0137484057981,,,,11,001,2021_Apr_09_1119,AB_pic_singleT2,2021.1.2,59.981273846533774,
AB,lag7,7,5,12,0.07866666671000003,0.0066709999999999955,0.3,ramp,,,,,0,13,13,13,,,,,,,escalator.jpg,fridge.jpg,table01.jpg,swordfish.jpg,calendar.jpg,drumstick.jpg,foosballtable.jpg,banjo.jpg,parrot01.jpg,redfox.jpg,toilet.jpg,greywolf.jpg,hand01b.jpg,foot.jpg,bull.jpg,guitarcase.jpg,flamingo.jpg,,,,,0,0,14,,,,,.\resources\greywolf.jpg,,,1,,,,,,,,,1,,,,,,,,,None,262.59080853999933,None,262.59080853999933,None,,,,,,,256.9916792999993,259.7410205999995,259.4743719999997,None,0.07866666671000003,0.09492730000056326,0.11157730000013544,0.17833100000007107,0.19491480000033334,0.26157250000051135,0.2783276999998634,0.34490809999988414,0.3615848999997979,0.42831089999981486,0.4449102999997194,0.5115562999999383,0.528223700000126,0.5949080000000322,0.6115666000005149,0.6782917999998972,0.6948810000003505,0.7615636999998969,0.7782871999997951,0.8615303000005952,0.8781980000003387,0.9448689000000741,0.9615438000000722,1.0282617000002574,1.044861999999739,1.1115098999998736,1.1282658999998603,1.1948419000000285,1.2115880999999717,259.99101429999973,None,259.99101429999973,None,261.2909106999996,None,261.2909106999996,None,right,1.0070795999999973,261.2909106999996,None,262.34083219999957,None,right,0.22112900000047375,262.34083219999957,None,262.34083219999957,None,-9.628939520865917,150.04004186673097,1.2781896000005872,1.294855400000415,,11,001,2021_Apr_09_1119,AB_pic_singleT2,2021.1.2,59.981273846533774,
AB,lag1,1,3,4,0.06933333338000003,0.0033379999999999955,0.3,ramp,,,,,0,14,14,14,,,,,,,athleticsock.jpg,fishingrod.jpg,kangaroo.jpg,porcupine.jpg,dromedary.jpg,mrpotatohead.jpg,lighthouse.jpg,car.jpg,pooltable.jpg,fishskeleton.jpg,tank.jpg,beerbottle.jpg,hammerheadshark.jpg,spiderweb.jpg,lily.jpg,trumpet.jpg,table01.jpg,,,,,0,0,6,,,,,.\resources\porcupine.jpg,,,1,,,,,,,,,1,,,,,,,,,None,267.27381623999975,None,267.27381623999975,None,,,,,,,262.6074847,265.35728129999916,265.07401129999926,None,0.06933333338000003,0.07927250000011554,0.09585640000022977,0.14584720000038942,0.16251350000038656,0.22917060000054335,0.245842299999822,0.29584410000006756,0.31250079999972513,0.3624927000000753,0.37924889999976585,0.4458299999996598,0.46248910000031174,0.5124845999998797,0.5292374000000564,,,,,,,,,,,,,,,265.59060359999967,None,265.59060359999967,None,266.12388959999953,None,266.12388959999953,None,right,0.8460642000000007,266.12388959999953,None,267.00716699999975,None,right,0.23484470000039437,267.00716699999975,None,267.00716699999975,None,-8.991499411867016,150.09293140663266,,,,11,001,2021_Apr_09_1119,AB_pic_singleT2,2021.1.2,59.981273846533774,
AB,lag6,6,5,11,0.06000000005000003,0,0.3,main,,,,,0,15,15,15,,,,,,,jellyfish.jpg,chimney.jpg,lightswitch01.jpg,eiffeltower.jpg,bed.jpg,marble.jpg,cat.jpg,drumstick.jpg,locker.jpg,worldmap.jpg,acorn.jpg,accordion01.jpg,cheetah.jpg,cork02.jpg,platypus.jpg,cow.jpg,urinal.jpg,,,,,0,1,13,,,,,.\resources\acorn.jpg,,,0,,,,,,,,,1,,,,,,,,,None,272.1234861399995,None,272.1234861399995,None,,,,,,,267.2904790999992,270.0403164999998,269.77363199999945,None,0.058522277455717454,0.0625266000006377,0.07927070000005187,0.12925800000084564,0.1458468000000721,0.17916820000027656,0.19583550000061223,0.24583430000075168,0.2625212000002648,0.2958314000006794,0.3125167000007423,0.36248970000087866,0.3792455000002519,0.4124851000005947,0.42923770000015793,0.47923510000055103,0.4958317000000534,0.5292246000008163,0.5458130000006349,0.5958021000005829,0.6124705000001995,0.6458099000001312,0.6624886000008701,0.7124890000004598,0.729215700000168,0.76245900000049,0.7792185000007521,0.8292079000002559,0.8457946000007723,270.2902570999995,None,270.2902570999995,None,271.1401987999998,None,271.1401987999998,None,left,0.7017261000000872,271.1401987999998,None,271.8901473999995,None,left,0.21572379999997793,271.8901473999995,None,271.8901473999995,None,-8.003542913483077,150.16621114699853,,,,11,001,2021_Apr_09_1119,AB_pic_singleT2,2021.1.2,59.981273846533774,
AB,lag1,1,5,6,0.06000000005000003,0,0.3,main,,,,,0,16,16,16,,,,,,,handcuffs.jpg,shovel01.jpg,cashregister01.jpg,bull.jpg,greywolf.jpg,pokerchips.jpg,snowman.jpg,swing.jpg,giraffe.jpg,wallclock.jpg,lizard.jpg,trophy01.jpg,hulahoop.jpg,butterfly.jpg,parrot01.jpg,bacon.jpg,surfboard.jpg,,,,,0,0,8,,,,,.\resources\pokerchips.jpg,,,1,,,,,,,,,1,,,,,,,,,None,276.48981763999984,None,276.48981763999984,None,,,,,,,272.14012699999967,274.8899696999997,274.62327749999986,None,0.06966981835438618,0.0792738999998619,0.09593519999998534,0.1459566999992603,0.1626148999994257,0.21259359999930894,0.22925450000002456,0.27925409999988915,0.2959168999996109,0.3625810999992609,0.37925349999932223,0.4293300999997882,0.445921499999713,0.49592179999945074,0.5125713999996151,0.5625709999994797,0.5792354999994132,0.6292315999999119,0.6458935999999085,,,,,,,,,,,275.13991239999996,None,275.13991239999996,None,275.7898634999992,None,275.7898634999992,None,right,0.47607160000006843,275.7898634999992,None,276.3064992999998,None,right,0.16750339999998687,276.3064992999998,None,276.3064992999998,None,-9.264374308149554,150.11356923585734,,,,11,001,2021_Apr_09_1119,AB_pic_singleT2,2021.1.2,59.981273846533774,
AB,lag5,5,3,8,0.06000000005000003,0,0.3,main,,,,,0,17,17,17,,,,,,,jeep.jpg,icecube02.jpg,cheetah.jpg,well.jpg,sink.jpg,pig.jpg,windmill.jpg,badmintonracket.jpg,accordion01.jpg,cruiseship.jpg,mailbox02.jpg,giraffe.jpg,tulip02.jpg,uprightpiano01.jpg,birdnest.jpg,wheelbarrow01.jpg,toyanimal05.jpg,,,,,0,0,10,,,,,.\resources\badmintonracket.jpg,,,0,,,,,,,,,1,,,,,,,,,None,281.7227551399998,None,281.7227551399998,None,,,,,,,276.5064829999992,279.2562890999998,278.97296429999915,None,0.06467698874152335,0.07904490000055375,0.09571660000074189,0.1457938000003196,0.16237989999990532,0.19579700000031153,0.21237550000023475,0.26236880000033125,0.279030500000772,0.329001099999914,0.34566890000041894,0.3956590000007054,0.41232750000017404,0.4623298000005889,0.4789883000003101,0.5289904999999635,0.5456543000000238,0.5957415000002584,0.6123221000007106,0.6623078000002351,0.679058000000623,0.7123005000003104,0.72905560000072,,,,,,,279.4895969999998,None,279.4895969999998,None,280.22284969999964,None,280.22284969999964,None,left,1.0670986000004632,280.22284969999964,None,281.3227832999992,None,right,0.36715690000073664,281.3227832999992,None,281.3227832999992,None,-8.99180988415204,150.1634464763341,,,,11,001,2021_Apr_09_1119,AB_pic_singleT2,2021.1.2,59.981273846533774,
AB,lag3,3,4,7,0.06000000005000003,0,0.3,main,,,,,0,18,18,18,,,,,,,spiderweb.jpg,microwave.jpg,moose.jpg,porcupine.jpg,telescope.jpg,totempole.jpg,vacuumcleaner01.jpg,snowshovel.jpg,redfox.jpg,flamingo.jpg,jeep.jpg,squid.jpg,trumpet.jpg,beerbottle.jpg,magneticcompass.jpg,tortoise01.jpg,tennisracket.jpg,,,,,1,0,9,,,,,.\resources\vacuumcleaner01.jpg,,,1,,,,,,,,,1,,,,,,,,,None,287.1227839399995,None,287.1227839399995,None,,,,,,,281.7394519999998,284.48925059999965,284.2225716999992,None,0.07232684938576275,0.07909870000003139,0.09586330000001908,0.14585379999971337,0.16244170000027225,0.22911110000040935,0.2458452999999281,0.2958461999996871,0.31242589999965276,0.3624166999998124,0.37916860000041197,0.445739699999649,0.4624024000004283,0.5124103999996805,0.5290812000002916,0.5790760999998383,0.5957459999999628,0.6623984999996537,0.6790573999996923,0.7290713000002143,0.745807600000262,,,,,,,,,284.7391912999992,None,284.7391912999992,None,285.4891525999992,None,285.4891525999992,None,left,1.4167499000004682,285.4891525999992,None,286.93903689999934,None,right,0.16679060000024037,286.93903689999934,None,286.93903689999934,None,-9.691314401196424,150.15378754848513,,,,11,001,2021_Apr_09_1119,AB_pic_singleT2,2021.1.2,59.981273846533774,
AB,lag2,2,5,7,0.06000000005000003,0,0.3,main,,,,,0,19,19,19,,,,,,,baseballbat.jpg,lawnmower.jpg,car.jpg,eye.jpg,tricycle.jpg,swing.jpg,toyanimal05.jpg,electrictoothbrush01c.jpg,sledgehammer.jpg,punchingbag.jpg,wallclock.jpg,magneticcompass.jpg,cow.jpg,eiffeltower.jpg,daddylonglegs.jpg,hulahoop.jpg,arrow02.jpg,,,,,1,0,9,,,,,.\resources\toyanimal05.jpg,,,1,,,,,,,,,1,,,,,,,,,None,295.30504553999947,None,295.30504553999947,None,,,,,,,287.1395025999991,289.8888350999996,289.62216889999945,None,0.07335833265837775,0.07955419999962032,0.09622059999946941,0.162879200000134,0.17954439999994065,0.22954639999989013,0.24628880000000208,0.296311500000229,0.3128750999994736,0.3795025999997961,0.3962874999997439,0.44627479999962816,0.46286349999991216,0.5295154999994338,0.5462800999994215,0.5962693999999829,0.6128595999998652,0.6628479999999399,0.6795076999997036,0.7462545999997019,0.7628465999996479,,,,,,,,,290.1388109999998,None,290.1388109999998,None,290.90541139999914,None,290.90541139999914,None,left,4.14455689999977,290.90541139999914,None,295.08839479999915,None,right,0.19352420000086568,295.08839479999915,None,295.08839479999915,None,-9.498305717237765,150.20682717359412,,,,11,001,2021_Apr_09_1119,AB_pic_singleT2,2021.1.2,59.981273846533774,
AB,lag4,4,3,7,0.06000000005000003,0,0.3,main,,,,,0,20,20,20,,,,,,,tulip02.jpg,curtain.jpg,guitarcase.jpg,fireplace.jpg,scorpion.jpg,bowtie.jpg,rooster.jpg,car.jpg,wheelchair.jpg,bumpercar.jpg,hockeypuck.jpg,vulture.jpg,safe.jpg,ostrich.jpg,nosmokingsign.jpg,jeans01.jpg,birdhouse.jpg,,,,,0,0,9,,,,,.\resources\rooster.jpg,,,1,,,,,,,,,1,,,,,,,,,None,300.4380680399996,None,300.4380680399996,None,,,,,,,295.3217118999992,298.07159429999956,297.8049792999991,None,0.06721055912113143,0.07796790000065812,0.09463340000002063,0.14463320000049862,0.1613918000002741,0.21129819999987376,0.22796310000012454,0.27797150000060356,0.29462710000007064,0.3445934999999736,0.3613439999999173,0.4113373000000138,0.4279293999998117,0.477918800000225,0.4945802000002004,0.5445755999999164,0.5613269000004948,0.6112382000001162,0.6279042000005575,0.6779131000002963,0.6945784999998068,,,,,,,,,298.3215621999998,None,298.3215621999998,None,299.0215036999998,None,299.0215036999998,None,right,1.1484381999998732,299.0215036999998,None,300.2047453999994,None,right,0.1893194999993284,300.2047453999994,None,300.2047453999994,None,-9.359807545640447,150.2584646429315,,,,11,001,2021_Apr_09_1119,AB_pic_singleT2,2021.1.2,59.981273846533774,
AB,lag7,7,5,12,0.06000000005000003,0,0.3,main,,,,,0,21,21,21,,,,,,,tank.jpg,porcupine.jpg,bat.jpg,snowshovel.jpg,baseballbat.jpg,cow.jpg,wheelchair.jpg,funnel.jpg,anchor.jpg,bench01.jpg,tennisracket.jpg,bacon.jpg,greatwhiteshark.jpg,polarbear.jpg,beaver.jpg,birthdaycandle.jpg,butterfly.jpg,,,,,0,0,14,,,,,.\resources\bacon.jpg,,,1,,,,,,,,,1,,,,,,,,,None,305.3043902399992,None,305.3043902399992,None,,,,,,,300.45476549999967,303.20457279999937,302.9378840999998,None,0.07356727048141914,0.07883550000042305,0.09550570000010339,0.1621648999998797,0.1788291000002573,0.22880799999984447,0.24557420000019192,0.29555990000062593,0.31214400000044407,0.3787923999998384,0.3955481000002692,0.44546170000012353,0.4621204000004582,0.5288100000007034,0.5454770000005738,0.5955370000001494,0.6121196000003692,0.6621175000000221,0.6787715000000389,0.7455251999999746,0.7621050000007017,0.8120990000006714,0.828761000000668,0.8955086000005394,0.91209710000021,0.9620958000004975,0.9787703000001784,1.0454988000001322,1.062093399999867,303.4545169999992,None,303.4545169999992,None,304.58776449999914,None,304.58776449999914,None,right,0.49412329999995563,304.58776449999914,None,305.1210650999992,None,right,0.16084020000016608,305.1210650999992,None,305.1210650999992,None,-9.131648179728,150.31306612153995,1.1120989000000918,1.1288256000007095,,11,001,2021_Apr_09_1119,AB_pic_singleT2,2021.1.2,59.981273846533774,
AB,lag6,6,5,11,0.06000000005000003,0,0.3,main,,,,,0,22,22,22,,,,,,,schoolbus.jpg,steeringwheel.jpg,rooster.jpg,bathtub.jpg,locker.jpg,dartboard.jpg,barrel01.jpg,brownsugar.jpg,totempole.jpg,flag.jpg,lip.jpg,tricycle.jpg,donut.jpg,corn02.jpg,panda.jpg,acousticguitar02.jpg,seagull.jpg,,,,,1,1,13,,,,,.\resources\lip.jpg,,,1,,,,,,,,,1,,,,,,,,,None,310.5206698399994,None,310.5206698399994,None,,,,,,,305.3210496999991,308.07085859999916,307.8042068999994,None,0.06748219230516933,0.07785520000015822,0.0944420000005266,0.1444362000002002,0.16111030000047322,0.2111043000004429,0.22777160000077856,0.27776640000047337,0.2944331000007878,0.3444195000001855,0.3610863000003519,0.41107780000038474,0.4278284000001804,0.4778291000002355,0.4944119000001592,0.5444104000007428,0.5610653000003367,0.6110623000004125,0.6277403000003687,0.6778053000007276,0.6944032000001243,0.7443963000005169,0.7610561999999845,0.8110505000004196,0.8277999000001728,0.8777999000003547,0.8943850000005114,0.9611305000007633,0.9777245000004768,308.3208405999994,None,308.3208405999994,None,309.3041012999993,None,309.3041012999993,None,left,0.9219337000004089,309.3041012999993,None,310.2873639999998,None,left,0.18671119999999064,310.2873639999998,None,310.2873639999998,None,-9.04435630879382,150.3595334187025,,,,11,001,2021_Apr_09_1119,AB_pic_singleT2,2021.1.2,59.981273846533774,
AB,lag7,7,5,12,0.06000000005000003,0,0.3,main,,,,,0,23,23,23,,,,,,,pigeon.jpg,rooster.jpg,greathornowl.jpg,tiger02.jpg,doghouse.jpg,accordion01.jpg,sheep.jpg,cannon.jpg,ceilingfan01.jpg,funnel.jpg,dolphin01.jpg,lighthouse.jpg,bluejay.jpg,ironingboard01.jpg,firehydrant.jpg,alligator.jpg,kangaroo.jpg,,,,,0,0,14,,,,,.\resources\lighthouse.jpg,,,1,,,,,,,,,1,,,,,,,,,None,315.2703202399995,None,315.2703202399995,None,,,,,,,310.53736949999984,313.2871344999994,313.02048359999935,None,0.07091289921639304,0.07607159999952273,0.0927280999994764,0.14272540000001754,0.1593870999995488,0.22605569999996078,0.24271739999949205,0.2927098999998634,0.30946399999993446,0.3594602000002851,0.3760468000000401,0.42604709999977786,0.44269809999968857,0.5093637999998464,0.526031299999886,0.5760362000000896,0.5926871000001483,0.642689899999823,0.6594371999999566,0.7094408000002659,0.726024999999936,0.7926735999999437,0.8094254999996338,0.8593406999998479,0.8760007999999289,0.9260008000001108,0.9426604999998744,1.0094149999995352,1.0260065000002214,313.53711789999943,None,313.53711789999943,None,314.6370417999997,None,314.6370417999997,None,right,0.4209881000006135,314.6370417999997,None,315.1036725999993,None,right,0.1381904999998369,315.1036725999993,None,315.1036725999993,None,-8.882828788566073,150.40908798301794,1.075997699999789,1.0926534000000174,,11,001,2021_Apr_09_1119,AB_pic_singleT2,2021.1.2,59.981273846533774,
AB,lag5,5,3,8,0.06000000005000003,0,0.3,main,,,,,0,24,24,24,,,,,,,uprightpiano01.jpg,pokerchips.jpg,waterfall.jpg,football.jpg,punchingbag.jpg,tree.jpg,electricguitar01.jpg,seagull.jpg,dolphin01.jpg,elbow.jpg,curtain.jpg,panda.jpg,dartboard.jpg,bluecheese.jpg,zipper.jpg,ladybug03.jpg,witchhat.jpg,,,,,1,0,10,,,,,.\resources\seagull.jpg,,,1,,,,,,,,,1,,,,,,,,,None,320.0699797399999,None,320.0699797399999,None,,,,,,,315.2869919999994,318.03679479999937,317.77014119999967,None,0.07001177513646019,0.07860640000035346,0.09528469999986555,0.1452833000003011,0.16201420000015787,0.212014800000361,0.22862030000032973,0.29526630000054865,0.311999200000173,0.3620029000003342,0.3786113000005571,0.4285908000001655,0.4452398000003086,0.49525549999998475,0.5119838999999047,0.5619839999999385,0.5785811000005197,0.6452242000004844,0.6618881000003967,0.7119745999998486,0.7285922999999457,0.7785696999999345,0.7952099000003727,,,,,,,318.2867907,None,318.2867907,None,319.0867380999998,None,319.0867380999998,None,left,0.739270299999589,319.0867380999998,None,319.86999469999955,None,right,0.17990089999966585,319.86999469999955,None,319.86999469999955,None,-8.791894131704641,150.454037293553,,,,11,001,2021_Apr_09_1119,AB_pic_singleT2,2021.1.2,59.981273846533774,
AB,lag3,3,3,6,0.06000000005000003,0,0.3,main,,,,,0,25,25,25,,,,,,,jellybean.jpg,zipper.jpg,corn02.jpg,birthdaycandle.jpg,hammerheadshark.jpg,porcupine.jpg,hockeypuck.jpg,parkingmeter.jpg,christmastree.jpg,elbow.jpg,rubikcube.jpg,lightswitch01.jpg,dreamcatcher.jpg,pokerchips.jpg,floorlamp.jpg,tortoise01.jpg,fortunecookie.jpg,,,,,0,1,8,,,,,.\resources\porcupine.jpg,,,1,,,,,,,,,1,,,,,,,,,None,325.53624683999954,None,325.53624683999954,None,,,,,,,320.0866737999995,322.8364537999996,322.56985389999954,None,0.06991646542840586,0.07760589999998047,0.09428089999983058,0.14427770000020246,0.16093869999986055,0.21093589999964024,0.22760980000020936,0.29425999999966734,0.3109309999999823,0.3609926999997697,0.37758930000018154,0.42757929999970656,0.4442457999994076,0.4942449000000124,0.5109793000001446,0.560890599999766,0.577564799999891,0.6442187000002377,0.6609118999995189,,,,,,,,,,,323.0864380999992,None,323.0864380999992,None,323.75305919999937,None,323.75305919999937,None,right,1.4408597999999984,323.75305919999937,None,325.23627979999947,None,left,0.2776764000000185,325.23627979999947,None,325.23627979999947,None,-8.70062347480614,150.49850874666106,,,,11,001,2021_Apr_09_1119,AB_pic_singleT2,2021.1.2,59.981273846533774,
AB,lag2,2,3,5,0.06000000005000003,0,0.3,main,,,,,0,26,26,26,,,,,,,saxophone.jpg,rooster.jpg,stool01.jpg,rose.jpg,witchhat.jpg,popcorn.jpg,bluejay.jpg,sandcastle.jpg,foot.jpg,granolabar01.jpg,escalator.jpg,seal.jpg,wheelchair.jpg,funnel.jpg,recyclingbin.jpg,nosmokingsign.jpg,lion.jpg,,,,,0,0,7,,,,,.\resources\witchhat.jpg,,,1,,,,,,,,,1,,,,,,,,,None,329.7692802399994,None,329.7692802399994,None,,,,,,,325.55292949999966,328.30272069999955,328.01944769999955,None,0.06482594601137637,0.07858759999999165,0.09526110000024346,0.14524180000080378,0.1618967000003977,0.195234600000731,0.21190090000072814,0.2618904000000839,0.2786537000001772,0.32857220000005327,0.34521720000066125,0.39521370000056777,0.411883100000523,0.46187800000006973,0.4785518000007869,0.5286281000007875,0.545215800000733,,,,,,,,,,,,,328.53604129999985,None,328.53604129999985,None,329.0859944999993,None,329.0859944999993,None,right,0.4840469999999186,329.0859944999993,None,329.60263159999977,None,right,0.14325540000027104,329.60263159999977,None,329.60263159999977,None,-8.617478099418504,150.53843862981986,,,,11,001,2021_Apr_09_1119,AB_pic_singleT2,2021.1.2,59.981273846533774,
AB,lag1,1,5,6,0.06000000005000003,0,0.3,main,,,,,0,27,27,27,,,,,,,masquerademask01.jpg,bumpercar.jpg,chair.jpg,toolbox02.jpg,hammerheadshark.jpg,spicerack.jpg,trampoline.jpg,holdfast.jpg,accordion01.jpg,floorlamp.jpg,lizard.jpg,zebra.jpg,lighthouse.jpg,fridge.jpg,licenseplate.jpg,boxingglove01.jpg,scorpion.jpg,,,,,0,1,8,,,,,.\resources\spicerack.jpg,,,0,,,,,,,,,1,,,,,,,,,None,335.40264644,None,335.40264644,None,,,,,,,329.78594969999995,332.53575479999927,332.2690967999997,None,0.06569672187209533,0.07779829999981303,0.09439099999963219,0.14438439999958064,0.16112770000017917,0.211037000000033,0.22770589999981894,0.27778219999981957,0.2943710999998075,0.34436319999986154,0.36102130000017496,0.3943613000001278,0.41101999999955297,0.46102330000030634,0.4777672000000166,0.5277685000000929,0.5443518000001859,0.5943397999999434,0.6110086999997293,,,,,,,,,,,332.7857379999996,None,332.7857379999996,None,333.40234299999975,None,333.40234299999975,None,left,1.7355374000007942,333.40234299999975,None,335.18597749999935,None,left,0.1759913999994751,335.18597749999935,None,335.18597749999935,None,-8.476785620840804,150.5824712713059,,,,11,001,2021_Apr_09_1119,AB_pic_singleT2,2021.1.2,59.981273846533774,
AB,lag4,4,5,9,0.06000000005000003,0,0.3,main,,,,,0,28,28,28,,,,,,,foot.jpg,dalmatian.jpg,cross01.jpg,giraffe.jpg,dandelion.jpg,car.jpg,wheelbarrow01.jpg,cashregister01.jpg,birdnest.jpg,skippingrope.jpg,jackrabbit.jpg,pingpongtable.jpg,escalator.jpg,toad.jpg,greywolf.jpg,tennisracket.jpg,armadillo.jpg,,,,,0,0,11,,,,,.\resources\birdnest.jpg,,,1,,,,,,,,,1,,,,,,,,,None,339.98520694,None,339.98520694,None,,,,,,,335.41929699999946,338.16871529999935,337.9020251999991,None,0.07206083504852054,0.07852269999966666,0.09527389999948355,0.1452675000000454,0.16185179999956745,0.22850879999987228,0.24526049999985844,0.29526799999985087,0.31184729999949923,0.36183509999955277,0.378501199999846,0.4451627999997072,0.4618267999994714,0.5118281999993997,0.52850909999961,0.5785041999997702,0.5952399999996487,0.6618177999998807,0.678476099999898,0.7284770999995089,0.7452300999993895,0.7951316999997289,0.8118072999996002,0.8784605000000738,0.8952157999992778,,,,,338.4186626999999,None,338.4186626999999,None,339.3185948999999,None,339.3185948999999,None,right,0.4352995999997802,339.3185948999999,None,339.8018994999993,None,right,0.15206440000019938,339.8018994999993,None,339.8018994999993,None,-8.879658392705553,150.59216303210147,,,,11,001,2021_Apr_09_1119,AB_pic_singleT2,2021.1.2,59.981273846533774,
AB,lag3,3,4,7,0.06000000005000003,0,0.3,main,,,,,0,29,29,29,,,,,,,stool01.jpg,handcuffs.jpg,boxingglove01.jpg,lightswitch01.jpg,ducttape.jpg,bat.jpg,greatwhiteshark.jpg,bowtie.jpg,football.jpg,chair.jpg,fridge.jpg,squirrel.jpg,lighthouse.jpg,noparkingsign.jpg,rollerblade.jpg,tulip02.jpg,moon.jpg,,,,,0,0,9,,,,,.\resources\greatwhiteshark.jpg,,,1,,,,,,,,,1,,,,,,,,,None,344.31826303999935,None,344.31826303999935,None,,,,,,,340.0018779999991,342.7517006999997,342.5017261999992,None,0.06693734270209886,0.08291499999995722,0.09965970000030211,0.14965530000063154,0.16626150000047346,0.21626180000021122,0.23290620000079798,0.282899499999985,0.2995619000002989,0.3495661000006294,0.3662262000007104,0.4162212000001091,0.43288980000033916,0.48288769999999204,0.499637600000824,0.5496286000006876,0.5662317000005714,0.6162236000000121,0.6328790000006848,0.6828738000003796,0.6995441000008213,,,,,,,,,343.00169429999914,None,343.00169429999914,None,343.7182950999995,None,343.7182950999995,None,right,0.3717114000000947,343.7182950999995,None,344.1516109999993,None,right,0.12240079999992304,344.1516109999993,None,344.1516109999993,None,-8.829879627029964,150.63274764650794,,,,11,001,2021_Apr_09_1119,AB_pic_singleT2,2021.1.2,59.981273846533774,
AB,lag1,1,4,5,0.06000000005000003,0,0.3,main,,,,,0,30,30,30,,,,,,,electrictoothbrush01c.jpg,birdfeeder.jpg,baseballbat.jpg,chainsaw.jpg,jackrabbit.jpg,cork02.jpg,calendar.jpg,acorn.jpg,frenchfries.jpg,hand01b.jpg,drumstick.jpg,platypus.jpg,kite.jpg,trophy01.jpg,nose.jpg,ipad02.jpg,sink.jpg,,,,,0,0,7,,,,,.\resources\jackrabbit.jpg,,,1,,,,,,,,,1,,,,,,,,,None,348.5350120399995,None,348.5350120399995,None,,,,,,,344.3349326999996,347.1018273999998,346.83520469999985,None,0.06584181813074859,0.06584620000012364,0.08251970000037545,0.1325114000001122,0.14917310000055295,0.1991691000002902,0.215942100000575,0.26586630000019795,0.282469000000674,0.33246390000022075,0.34910630000013043,0.3991087000003972,0.4157732000003307,0.46578170000066166,0.48243559999991703,0.5324316000005638,0.5490985000005821,,,,,,,,,,,,,347.3518213999996,None,347.3518213999996,None,347.9017531999998,None,347.9017531999998,None,right,0.4202650999995967,347.9017531999998,None,348.3850281999994,None,right,0.12084259999937785,348.3850281999994,None,348.3850281999994,None,-8.73933833785137,150.6677773172593,,,,11,001,2021_Apr_09_1119,AB_pic_singleT2,2021.1.2,59.981273846533774,
AB,lag4,4,5,9,0.06000000005000003,0,0.3,main,,,,,0,31,31,31,,,,,,,greatwhiteshark.jpg,makiroll.jpg,tulip02.jpg,sink.jpg,punchingbag.jpg,lollipop04.jpg,frisbee.jpg,telescope.jpg,boat.jpg,dalmatian.jpg,zebra.jpg,swordfish.jpg,schoolbus.jpg,acorn.jpg,bacon.jpg,microphone01.jpg,horse.jpg,,,,,0,1,11,,,,,.\resources\boat.jpg,,,0,,,,,,,,,0,,,,,,,,,None,353.45090184000003,None,353.45090184000003,None,,,,,,,348.55169549999937,351.3010704999997,351.0344447999996,None,0.06421383323207765,0.07730119999996532,0.09388569999919127,0.1438866999997117,0.16054759999951784,0.19387800000004063,0.2105461999999534,0.2605358000000706,0.2772892999992109,0.32720209999934013,0.34386929999982385,0.3938705000000482,0.41054480000002513,0.46054329999969923,0.4772071999996115,0.5271877999994103,0.5438555999999153,0.5938480999993772,0.6105119999992894,0.6438497999997708,0.660508299999492,0.710591299999578,0.7271917999996731,0.7771703999997044,0.7938337999994474,,,,,351.5514841999993,None,351.5514841999993,None,352.3509832999998,None,352.3509832999998,None,left,0.7789628999998968,352.3509832999998,None,353.15092709999954,None,right,0.2749458999996932,353.15092709999954,None,353.15092709999954,None,-8.645090999478272,150.70378819522378,,,,11,001,2021_Apr_09_1119,AB_pic_singleT2,2021.1.2,59.981273846533774,
AB,lag6,6,3,9,0.06000000005000003,0,0.3,main,,,,,0,32,32,32,,,,,,,dormer.jpg,callbell.jpg,acorn.jpg,seagull.jpg,key07.jpg,greathornowl.jpg,urinal.jpg,cannon.jpg,rose.jpg,golfball.jpg,hotdogweiner.jpg,bridge.jpg,bluejay.jpg,firehydrant.jpg,bathtub.jpg,fishskeleton.jpg,windshieldwiper02.jpg,,,,,1,0,11,,,,,.\resources\rose.jpg,,,1,,,,,,,,,1,,,,,,,,,None,359.10045413999944,None,359.10045413999944,None,,,,,,,353.4675742999998,356.23403979999966,355.93410269999913,None,0.07208878368177314,0.07872589999988122,0.09536610000031942,0.14536589999988792,0.1620309999998426,0.22870010000042384,0.24536280000029365,0.2953803999998854,0.3120280000002822,0.3620165000002089,0.3786940999998478,0.4453550999996878,0.46202249999987544,0.5120137000003524,0.52868430000035,0.5786891999996442,0.5953615999997055,0.6620039999997971,0.6786957000003895,0.7286703999998281,0.7453425000003335,0.7953153999997085,0.8120044999996026,0.8786663000000772,0.895337500000096,,,,,356.45069579999927,None,356.45069579999927,None,357.3506372999991,None,357.3506372999991,None,left,1.4912637000006725,357.3506372999991,None,358.86715899999945,None,right,0.20671070000025793,358.86715899999945,None,358.86715899999945,None,-8.913176996105074,150.7207378245571,,,,11,001,2021_Apr_09_1119,AB_pic_singleT2,2021.1.2,59.981273846533774,
AB,lag2,2,3,5,0.06000000005000003,0,0.3,main,,,,,0,33,33,33,,,,,,,chainsaw.jpg,makiroll.jpg,honeybee.jpg,harmonica.jpg,punchingbag.jpg,giraffe.jpg,foot.jpg,nosmokingsign.jpg,cashregister01.jpg,toucan.jpg,bat.jpg,grizzly.jpg,surfboard.jpg,helicopter.jpg,eye.jpg,ipad02.jpg,lion.jpg,,,,,0,0,7,,,,,.\resources\punchingbag.jpg,,,1,,,,,,,,,1,,,,,,,,,None,363.38355383999954,None,363.38355383999954,None,,,,,,,359.1171459999996,361.8669629999995,361.5836490999991,None,0.06815209587661063,0.07836909999969066,0.09505650000028254,0.14510749999953987,0.16173739999976533,0.2116966000003231,0.22839860000021872,0.2783540999998877,0.2950246000000334,0.34502580000025773,0.3616870999994717,0.41167700000005425,0.42834789999960776,0.47835049999957846,0.4950056999996377,0.5616902000001573,0.5783401999997295,,,,,,,,,,,,,362.1002861999996,None,362.1002861999996,None,362.6835799999999,None,362.6835799999999,None,right,0.3744862000003195,362.6835799999999,None,363.0835398999998,None,right,0.2703363000000536,363.0835398999998,None,363.0835398999998,None,-8.875300071423599,150.7628156334103,,,,11,001,2021_Apr_09_1119,AB_pic_singleT2,2021.1.2,59.981273846533774,
AB,lag5,5,4,9,0.06000000005000003,0,0.3,main,,,,,0,34,34,34,,,,,,,vulture.jpg,doghouse.jpg,birdhouse.jpg,fishskeleton.jpg,golfball.jpg,squid.jpg,slug.jpg,tie02.jpg,funnel.jpg,trophy01.jpg,hockeystick.jpg,kiwi03.jpg,toilet.jpg,cross01.jpg,paperairplane.jpg,basketball01.jpg,porcupine.jpg,,,,,1,0,11,,,,,.\resources\funnel.jpg,,,1,,,,,,,,,1,,,,,,,,,None,368.4831820399992,None,368.4831820399992,None,,,,,,,363.4002011999992,366.1500079999996,365.88335069999994,None,0.06742159542314448,0.07823270000062621,0.0949030000001585,0.14489969999976893,0.16160740000032092,0.21156060000066645,0.22822570000062115,0.27822199999991426,0.29489990000001853,0.3448921999997765,0.36154720000013185,0.41154850000020815,0.4282118000000992,0.47824260000015784,0.49487610000051063,0.5448636999999508,0.5615303000004133,0.6115313000000242,0.6281975000001694,0.6781976000002032,0.6948554000000513,0.744857000000593,0.7615710000000036,0.8115140999998403,0.8281817000006413,,,,,366.3999903999993,None,366.3999903999993,None,367.2332590999995,None,367.2332590999995,None,left,1.0486574999995355,367.2332590999995,None,368.2998343999998,None,right,0.1662226999997074,368.2998343999998,None,368.2998343999998,None,-8.814619340348386,150.8058677286859,,,,11,001,2021_Apr_09_1119,AB_pic_singleT2,2021.1.2,59.981273846533774,
AB,lag7,7,5,12,0.06000000005000003,0,0.3,main,,,,,0,35,35,35,,,,,,,tortoise01.jpg,shower.jpg,armadillo.jpg,drumstick.jpg,chefshat.jpg,fireplace.jpg,cross01.jpg,bow.jpg,apron.jpg,wallclock.jpg,urinal.jpg,bullet.jpg,anchor.jpg,saxophone.jpg,skateboard.jpg,swordfish.jpg,frisbee.jpg,,,,,0,0,14,,,,,.\resources\bullet.jpg,,,1,,,,,,,,,1,,,,,,,,,None,373.49950993999994,None,373.49950993999994,None,,,,,,,368.49984349999977,371.2496377999996,370.9829852999992,None,0.06934448313711505,0.07757330000004004,0.09424519999993208,0.14423530000021856,0.16092399999979534,0.21089480000046024,0.227569499999845,0.2775704000005135,0.29421259999980975,0.36089689999971597,0.3775562999999238,0.42754150000018853,0.44422730000042066,0.49424120000003313,0.510877700000492,0.5608694000002288,0.5775469999998677,0.6275357000004078,0.6442117000005965,0.6941984000004595,0.7108736999998655,0.7775333999998111,0.7941913000004206,0.8441886999999042,0.8608574999998382,0.9108604000002742,0.9275345000005473,0.9775047000002814,0.9941828000000896,371.49962979999964,None,371.49962979999964,None,372.5662274999995,None,372.5662274999995,None,right,0.64371089999986,372.5662274999995,None,373.2328103,None,right,0.24918410000009317,373.2328103,None,373.2328103,None,-8.752523510438005,150.84793764542607,1.044215500000064,1.0608392000003732,,11,001,2021_Apr_09_1119,AB_pic_singleT2,2021.1.2,59.981273846533774,
AB,lag5,5,5,10,0.06000000005000003,0,0.3,main,,,,,0,36,36,36,,,,,,,church.jpg,greathornowl.jpg,electricguitar01.jpg,polarbear.jpg,leafblower01.jpg,kneepad01c.jpg,handcuffs.jpg,spiderweb.jpg,ear.jpg,rose.jpg,ostrich.jpg,cobra.jpg,cannon.jpg,trophy01.jpg,seal.jpg,sink.jpg,cupcake.jpg,,,,,0,1,12,,,,,.\resources\rose.jpg,,,0,,,,,,,,,0,,,,,,,,,None,383.2488033399992,None,383.2488033399992,None,,,,,,,373.5161531999993,376.26595309999993,375.99930269999913,None,0.06687927845634731,0.07797200000004523,0.09463460000006307,0.14463549999982206,0.16129929999988235,0.21130689999972674,0.22796819999985019,0.2779768000000331,0.2946223999997528,0.3446267999997872,0.361294899999848,0.4112833999997747,0.42797669999981736,0.4779630000002726,0.4946184999998877,0.5446379000004526,0.5612811000000875,0.6112708000000566,0.6279350000004342,0.6779389000002993,0.6946214999998119,0.7446089000004577,0.7612699999999677,0.8112628999997469,0.8279327999998713,0.8779205000000729,0.8945861000001969,,,376.5159361999995,None,376.5159361999995,None,377.41587549999986,None,377.41587549999986,None,left,5.546035499999562,377.41587549999986,None,382.9821196999992,None,right,0.23579479999989417,382.9821196999992,None,382.9821196999992,None,-8.707169753411687,150.88859285085977,,,,11,001,2021_Apr_09_1119,AB_pic_singleT2,2021.1.2,59.981273846533774,
AB,lag7,7,3,10,0.06000000005000003,0,0.3,main,,,,,0,37,37,37,,,,,,,toyanimal05.jpg,knee.jpg,mouse.jpg,table01.jpg,pirateflag.jpg,swordfish.jpg,ear.jpg,lily.jpg,baseballbat.jpg,dartboard.jpg,bowlingpin.jpg,leafrake.jpg,parachute.jpg,zebra.jpg,greywolf.jpg,safe.jpg,cocktailshrimp02.jpg,,,,,0,0,12,,,,,.\resources\dartboard.jpg,,,1,,,,,,,,,1,,,,,,,,,None,387.9651288399997,None,387.9651288399997,None,,,,,,,383.2654413999999,386.0152735999991,385.7485947999994,None,0.06847850166586707,0.07773869999982708,0.09440289999929519,0.14440079999985755,0.16106329999911395,0.21105769999940094,0.22773869999946328,0.2777515999996467,0.2943969999996625,0.34439779999956954,0.3610542999995232,0.41105399999923975,0.4277107999996588,0.494395099999565,0.5110456999991584,0.5610331999996561,0.5777014999994208,0.6276989999996658,0.6443827999992209,0.6943826999995508,0.7110265999999683,0.7610297999999602,0.777690399999301,0.8276821999997992,0.8443430999996053,0.8943714999995791,0.911009099999319,,,386.2652404999999,None,386.2652404999999,None,387.18183189999945,None,387.18183189999945,None,right,0.5720747999994273,387.18183189999945,None,387.7817725999994,None,right,0.16416889999982232,387.7817725999994,None,387.7817725999994,None,-8.935401716019017,150.9109114033751,,,,11,001,2021_Apr_09_1119,AB_pic_singleT2,2021.1.2,59.981273846533774,
AB,lag4,4,3,7,0.06000000005000003,0,0.3,main,,,,,0,38,38,38,,,,,,,scooter.jpg,schoolbus.jpg,stubbywrench01a.jpg,table01.jpg,firehydrant.jpg,sausage.jpg,bacon.jpg,shower.jpg,pig.jpg,punchingbag.jpg,polarbear.jpg,birdnest.jpg,acousticguitar02.jpg,baseballbat.jpg,butterfly.jpg,hand01b.jpg,waterfall.jpg,,,,,0,0,9,,,,,.\resources\bacon.jpg,,,0,,,,,,,,,1,,,,,,,,,None,393.4818843399995,None,393.4818843399995,None,,,,,,,387.98177919999944,390.7316258999999,390.46498529999917,None,0.06714404818697625,0.07808459999978368,0.09470899999996618,0.14469850000023143,0.16136159999950905,0.21134249999977328,0.2280414999995628,0.27800529999967694,0.2946719999999914,0.3446622000001298,0.361337100000128,0.41132440000001225,0.42799959999956627,0.47799920000034035,0.4946626999999353,0.5446474999998827,0.5613088000000062,0.6113224000000628,0.627983000000313,0.6779848999995011,0.6946501000002172,,,,,,,,,390.98161549999986,None,390.98161549999986,None,391.6815670999995,None,391.6815670999995,None,left,1.600462499999594,391.6815670999995,None,393.3319069999998,None,right,0.12610190000032162,393.3319069999998,None,393.3319069999998,None,-8.886861989734015,150.95136333111572,,,,11,001,2021_Apr_09_1119,AB_pic_singleT2,2021.1.2,59.981273846533774,
AB,lag3,3,5,8,0.06000000005000003,0,0.3,main,,,,,0,39,39,39,,,,,,,handcuffs.jpg,surfboard.jpg,squid.jpg,pig.jpg,frenchfries.jpg,ducttape.jpg,greathornowl.jpg,sausage.jpg,kite.jpg,callbell.jpg,raccoon.jpg,totempole.jpg,kiwi03.jpg,tulip02.jpg,holdfast.jpg,dolphin01.jpg,chefshat.jpg,,,,,0,0,10,,,,,.\resources\sausage.jpg,,,1,,,,,,,,,1,,,,,,,,,None,397.7978121399998,None,397.7978121399998,None,,,,,,,393.49854289999985,396.24789209999926,395.9812127999994,None,0.06444571033614364,0.07746279999992112,0.0941475999998147,0.1441609999992579,0.1607992999997805,0.1941477999998824,0.21079769999960263,0.26080479999927775,0.2774805999997625,0.32745389999945473,0.3441347999996651,0.39411440000003495,0.41078620000007504,0.46079920000011043,0.4774469999993016,0.5274651999998241,0.5441100999996706,0.5941096999995352,0.6108256999996229,0.6607565999993312,0.6774428999997326,0.7107556000000841,0.7274481999993441,,,,,,,396.4978937999995,None,396.4978937999995,None,397.2311703999994,None,397.2311703999994,None,right,0.3627292999999554,397.2311703999994,None,397.6311386999996,None,right,0.13876540000001114,397.6311386999996,None,397.6311386999996,None,-9.074425589901221,150.97553482065072,,,,11,001,2021_Apr_09_1119,AB_pic_singleT2,2021.1.2,59.981273846533774,
AB,lag2,2,4,6,0.06000000005000003,0,0.3,main,,,,,0,40,40,40,,,,,,,tortoise01.jpg,bed.jpg,saltshaker03a.jpg,bumpercar.jpg,tree.jpg,rubikcube.jpg,tricycle.jpg,lighthouse.jpg,pigeon.jpg,calendar.jpg,lightswitch01.jpg,ceilingfan01.jpg,giraffe.jpg,lizard.jpg,sink.jpg,cloud.jpg,dromedary.jpg,,,,,0,0,8,,,,,.\resources\rubikcube.jpg,,,0,,,,,,,,,1,,,,,,,,,None,403.09788214,None,403.09788214,None,,,,,,,397.8144603999999,400.5642579999994,400.2975919999999,None,0.06483752030524562,0.07789479999973992,0.09453349999967031,0.1445410999995147,0.1611985999998069,0.19452199999977893,0.2112053000000742,0.2611940999995568,0.2778614999997444,0.3278737999999066,0.3444994999999835,0.3945247000001473,0.41116799999963405,0.4611832000000504,0.477839899999708,0.5278745999994499,0.5445070999994641,0.5945305999994162,0.6111657000001287,,,,,,,,,,,400.81424219999917,None,400.81424219999917,None,401.4308567999997,None,401.4308567999997,None,left,1.4030622000000221,401.4308567999997,None,402.88079039999957,None,right,0.1691145000004326,402.88079039999957,None,402.88079039999957,None,-9.001504047527625,151.01426019363666,,,,11,001,2021_Apr_09_1119,AB_pic_singleT2,2021.1.2,59.981273846533774,
AB,lag1,1,4,5,0.06000000005000003,0,0.3,main,,,,,0,41,41,41,,,,,,,motorcycle.jpg,flag.jpg,toad.jpg,parkingmeter.jpg,bluejay.jpg,fishskeleton.jpg,uprightpiano01.jpg,beerbottle.jpg,cocktailshrimp02.jpg,parkfountain.jpg,leafblower01.jpg,duck01.jpg,treadmill.jpg,ceilingfan01.jpg,pumpkin.jpg,waterfall.jpg,electricguitar01.jpg,,,,,1,1,7,,,,,.\resources\bluejay.jpg,,,1,,,,,,,,,1,,,,,,,,,None,408.16417733999936,None,408.16417733999936,None,,,,,,,403.1145358999993,405.8638384999995,405.5971823,None,0.07444058598403391,0.07790099999965605,0.09457589999965421,0.16122689999974682,0.17790179999974498,0.22787809999954334,0.24456909999935306,0.31121879999955127,0.32788219999929424,0.37789929999962624,0.3945676999992429,0.4612170000000333,0.4778729999998177,0.527882999999747,0.5445431999996799,0.6111999999993714,0.6278703999996651,,,,,,,,,,,,,406.11383019999994,None,406.11383019999994,None,406.74712069999987,None,406.74712069999987,None,left,0.9027880000003279,406.74712069999987,None,407.6970720999998,None,left,0.4488252000001012,407.6970720999998,None,407.6970720999998,None,-9.146100315066464,151.04116268280558,,,,11,001,2021_Apr_09_1119,AB_pic_singleT2,2021.1.2,59.981273846533774,
AB,lag6,6,5,11,0.06000000005000003,0,0.3,main,,,,,0,42,42,42,,,,,,,arrow02.jpg,urinal.jpg,anchor.jpg,sausage.jpg,bluecheese.jpg,nosmokingsign.jpg,chimney.jpg,mattress.jpg,tarantula.jpg,well.jpg,church.jpg,pokerchips.jpg,sheep.jpg,wheelchair.jpg,stubbywrench01a.jpg,accordion01.jpg,popcorn.jpg,,,,,1,0,13,,,,,.\resources\church.jpg,,,1,,,,,,,,,1,,,,,,,,,None,413.4799233399996,None,413.4799233399996,None,,,,,,,408.1808183999992,410.9301512999991,410.68066009999984,None,0.06970932983956193,0.08338679999997112,0.10015560000010737,0.14953950000017358,0.16665710000052059,0.21665570000004664,0.23328349999974307,0.2832696000004944,0.2999513000004299,0.3499326999999539,0.3666020999999091,0.4332518999999593,0.44995709999966493,0.49987899999996444,0.5167699000003267,0.5665736999999353,0.5828736000003119,0.6334634000004371,0.6494916000001467,0.6998972000001231,0.7165801000001011,0.7832595999998375,0.7994770000004792,0.8495048000004317,0.8661393000002136,0.916146700000354,0.9328013000003921,0.9827967000001081,0.9995154999996885,411.1806117999995,None,411.1806117999995,None,412.1967117999993,None,412.1967117999993,None,left,1.0372101000002658,412.1967117999993,None,413.2632630999997,None,right,0.18663239999932557,413.2632630999997,None,413.2632630999997,None,-9.126988596985582,151.07837883696388,,,,11,001,2021_Apr_09_1119,AB_pic_singleT2,2021.1.2,59.981273846533774,
AB,lag5,5,5,10,0.06000000005000003,0,0.3,main,,,,,0,43,43,43,,,,,,,boat.jpg,acousticguitar02.jpg,pooltable.jpg,waterfountain02.jpg,toad.jpg,ceilingfan01.jpg,microwave.jpg,tree.jpg,panda.jpg,penguin.jpg,golfball.jpg,seal.jpg,funnel.jpg,parrot01.jpg,accordion01.jpg,bluejay.jpg,jackrabbit.jpg,,,,,0,0,12,,,,,.\resources\penguin.jpg,,,1,,,,,,,,,1,,,,,,,,,None,418.3796038399993,None,418.3796038399993,None,,,,,,,413.4965945999993,416.24639859999934,415.97976069999913,None,0.07085298705355612,0.07765550000021904,0.09435920000032638,0.14432099999976344,0.1609827000002042,0.2276382999998532,0.24431290000029549,0.2942683000001125,0.3109660000000076,0.36093890000029205,0.3776346000004196,0.4276137999995626,0.44428119999975024,0.5109404000004361,0.5276444000000993,0.5776052999999592,0.5943021000002773,0.6443167999996149,0.6609379000001354,0.7109289999998509,0.7275842999997622,0.7942593999996461,0.8109207999996215,0.860935800000334,0.877607700000226,0.9275949000002583,0.9442522999997891,,,416.49638309999955,None,416.49638309999955,None,417.44632769999953,None,417.44632769999953,None,right,0.7235391999993226,417.44632769999953,None,418.19624009999916,None,right,0.16576629999963188,418.19624009999916,None,418.19624009999916,None,-9.091351878153235,151.11838057843434,,,,11,001,2021_Apr_09_1119,AB_pic_singleT2,2021.1.2,59.981273846533774,
AB,lag7,7,5,12,0.06000000005000003,0,0.3,main,,,,,0,44,44,44,,,,,,,brownsugar.jpg,fishskeleton.jpg,funnel.jpg,toucan.jpg,butterfly.jpg,bed.jpg,elbow.jpg,bathtub.jpg,cigar.jpg,banjo.jpg,donut.jpg,porcupine.jpg,pokerchips.jpg,humanskeleton.jpg,cheetah.jpg,parkingmeter.jpg,snowboard.jpg,,,,,0,0,14,,,,,.\resources\porcupine.jpg,,,1,,,,,,,,,1,,,,,,,,,None,423.86252833999936,None,423.86252833999936,None,,,,,,,418.39625329999944,421.14606209999965,420.87939169999936,None,0.0689271764240994,0.07731440000043222,0.09397600000011153,0.14395770000010089,0.16061900000022433,0.21062799999981507,0.22731579999981477,0.27725459999965096,0.2939262999998391,0.3606465000002572,0.37729070000023057,0.42728840000017954,0.4439321999998356,0.4939286999997421,0.5106008000002475,0.5606118000005154,0.5772753999999622,0.6272577999998248,0.6439227000000756,0.6939549999997325,0.7106424000003244,0.7605819000000338,0.7772513999998409,0.8272508999998536,0.843951200000447,0.9105744999997114,0.9272320999998556,0.9772670000002108,0.9939117000003534,421.3960373,None,421.3960373,None,422.4626397999991,None,422.4626397999991,None,right,1.1632589000000735,422.4626397999991,None,423.6458505999999,None,right,0.1880470999994941,423.6458505999999,None,423.6458505999999,None,-9.06210784643415,151.158184026961,1.0439071000000695,1.0605556000000433,,11,001,2021_Apr_09_1119,AB_pic_singleT2,2021.1.2,59.981273846533774,
AB,lag3,3,4,7,0.06000000005000003,0,0.3,main,,,,,0,45,45,45,,,,,,,nose.jpg,parrot01.jpg,jeep.jpg,wheelbarrow01.jpg,brownsugar.jpg,parkingmeter.jpg,birdhouse.jpg,musicsheet.jpg,pingpongtable.jpg,athleticsock.jpg,scorpion.jpg,electricguitar01.jpg,dormer.jpg,frisbee.jpg,shovel01.jpg,barrel01.jpg,mouse.jpg,,,,,0,0,9,,,,,.\resources\birdhouse.jpg,,,1,,,,,,,,,1,,,,,,,,,None,428.29556363999984,None,428.29556363999984,None,,,,,,,423.8791885999999,426.62898159999986,426.3623371999993,None,0.07372565966659092,0.07694520000040939,0.0936320999999225,0.16030180000052496,0.17700220000006084,0.22694480000063777,0.24360370000067633,0.3102742000000944,0.3269469000006211,0.37694439999995666,0.39360860000033426,0.44361840000055963,0.4602574000000459,0.5269261000003098,0.5436424999998053,0.5935733000005712,0.6102350999999544,0.6769113999998808,0.6936118000003262,0.743583899999976,0.7602532000000792,,,,,,,,,426.8789763999994,None,426.8789763999994,None,427.6456000999997,None,427.6456000999997,None,right,0.4043143999997483,427.6456000999997,None,428.0788743999992,None,right,0.19505459999982122,428.0788743999992,None,428.0788743999992,None,-9.025889435464629,151.19813759957353,,,,11,001,2021_Apr_09_1119,AB_pic_singleT2,2021.1.2,59.981273846533774,
AB,lag2,2,5,7,0.06000000005000003,0,0.3,main,,,,,0,46,46,46,,,,,,,panda.jpg,jellyfish.jpg,uprightpiano01.jpg,nose.jpg,foldingchair.jpg,porcupine.jpg,sledgehammer.jpg,exitsign.jpg,punchingbag.jpg,jeep.jpg,helicopter.jpg,toolbox02.jpg,rollerblade.jpg,toilet.jpg,tarantula.jpg,slug.jpg,sink.jpg,,,,,1,0,9,,,,,.\resources\sledgehammer.jpg,,,1,,,,,,,,,1,,,,,,,,,None,432.9285641399998,None,432.9285641399998,None,,,,,,,428.3122094999999,431.06200029999945,430.7953474999995,None,0.07259136309687345,0.07679479999933392,0.0934395999993285,0.1601013999998031,0.17676979999941977,0.2267716999995173,0.24343119999957707,0.29343979999976,0.31017419999989215,0.3767577999997229,0.39343169999938254,0.44342739999956393,0.4600858999992852,0.5100798999992548,0.5267445999998017,0.5934164000000237,0.6100718999996388,0.6600594999999885,0.6767234999997527,0.7267304999995758,0.7434032999999545,,,,,,,,,431.31199109999943,None,431.31199109999943,None,432.0619309999993,None,432.0619309999993,None,left,0.6599551999997857,432.0619309999993,None,432.74519409999994,None,right,0.16093869999986055,432.74519409999994,None,432.74519409999994,None,-9.008257831620684,151.23727668071245,,,,11,001,2021_Apr_09_1119,AB_pic_singleT2,2021.1.2,59.981273846533774,
AB,lag6,6,5,11,0.06000000005000003,0,0.3,main,,,,,0,47,47,47,,,,,,,holdfast.jpg,bench01.jpg,licenseplate.jpg,wallclock.jpg,bull.jpg,tent.jpg,waterfountain02.jpg,barrel01.jpg,basketball01.jpg,kneepad01c.jpg,dolphin01.jpg,funnel.jpg,fridge.jpg,greywolf.jpg,soccerball.jpg,dartboard.jpg,chimney.jpg,,,,,0,0,13,,,,,.\resources\dolphin01.jpg,,,1,,,,,,,,,1,,,,,,,,,None,438.4614634399992,None,438.4614634399992,None,,,,,,,432.94520309999916,435.69499929999984,435.42834329999914,None,0.06399359450474358,0.07738750000044092,0.09405129999959172,0.1440576000004512,0.16073450000021694,0.19404709999980696,0.2107106000003114,0.2607088000004296,0.27736340000046766,0.3273685000003752,0.3440349000002243,0.3940332000001945,0.41070289999970555,0.46068209999975807,0.47739439999986644,0.5273550000001705,0.5440323000002536,0.5773419999995895,0.5940098000000944,0.6440159000003405,0.6606665999997858,0.710670299999947,0.72734120000041,0.777330300000358,0.7939981999998054,0.8440043000000514,0.8606606000003012,0.9106512999996994,0.9273208000004161,435.94500959999914,None,435.94500959999914,None,436.87824659999933,None,436.87824659999933,None,right,1.2756506000005174,436.87824659999933,None,438.17812719999984,None,right,0.2637604999999894,438.17812719999984,None,438.17812719999984,None,-8.98796435529093,151.2769115110787,,,,11,001,2021_Apr_09_1119,AB_pic_singleT2,2021.1.2,59.981273846533774,
AB,lag1,1,4,5,0.06000000005000003,0,0.3,main,,,,,0,48,48,48,,,,,,,worldmap.jpg,spicerack.jpg,calendar.jpg,motorcycle.jpg,pigeon.jpg,corn02.jpg,bow.jpg,ladybug03.jpg,footballhelmet.jpg,hotdogweiner.jpg,scooter.jpg,lightswitch01.jpg,swing.jpg,acorn.jpg,anchor.jpg,ducttape.jpg,chimney.jpg,,,,,0,0,7,,,,,.\resources\pigeon.jpg,,,1,,,,,,,,,1,,,,,,,,,None,442.8111866400001,None,442.8111866400001,None,,,,,,,438.4781417999993,441.22793339999953,440.9612813999993,None,0.0704652223947152,0.0772579999993468,0.09391759999925853,0.14390169999933278,0.16057749999981752,0.22723369999948773,0.24390589999984513,0.2939171999996688,0.31059039999945526,0.3605526999999711,0.37723619999997027,0.4272144999995362,0.44387189999997645,0.49393719999989116,0.5105767999993986,0.5772119999992356,0.5938931000000593,,,,,,,,,,,,,441.4779213999991,None,441.4779213999991,None,442.07788829999936,None,442.07788829999936,None,right,0.4681044999997539,442.07788829999936,None,442.56118029999925,None,right,0.22471839999980148,442.56118029999925,None,442.56118029999925,None,-8.929145286615519,151.31607208326636,,,,11,001,2021_Apr_09_1119,AB_pic_singleT2,2021.1.2,59.981273846533774,
AB,lag4,4,3,7,0.06000000005000003,0,0.3,main,,,,,0,49,49,49,,,,,,,telescope.jpg,lizard.jpg,birdhouse.jpg,swordfish.jpg,exitsign.jpg,locker.jpg,mattress.jpg,cocktailshrimp02.jpg,lion.jpg,ladder.jpg,handcuffs.jpg,knee.jpg,trumpet.jpg,rose.jpg,cigar.jpg,chainsaw.jpg,leafblower01.jpg,,,,,0,0,9,,,,,.\resources\mattress.jpg,,,1,,,,,,,,,1,,,,,,,,,None,447.16085753999926,None,447.16085753999926,None,,,,,,,442.8278369999998,445.5776221999995,445.31098269999984,None,0.06773944203227424,0.07673570000042673,0.09339809999983117,0.14341310000054364,0.1600893000004362,0.21006630000010773,0.22673870000016905,0.2767297000000326,0.29339600000002974,0.34338970000044355,0.3600642000001244,0.41005980000045383,0.4267250000002605,0.4767418000001271,0.49339839999993274,0.5433915000003253,0.5600242000000435,0.6100476999999955,0.6266953000003923,0.6933735000002343,0.7100416000002951,,,,,,,,,445.82762659999935,None,445.82762659999935,None,446.54424299999937,None,446.54424299999937,None,right,0.39365319999978965,446.54424299999937,None,446.96082229999956,None,right,0.16906090000065888,446.96082229999956,None,446.96082229999956,None,-8.903944022355667,151.3530193211036,,,,11,001,2021_Apr_09_1119,AB_pic_singleT2,2021.1.2,59.981273846533774,
AB,lag3,3,4,7,0.06000000005000003,0,0.3,main,,,,,0,50,50,50,,,,,,,telescope.jpg,polarbear.jpg,kite.jpg,cymbal.jpg,waterfall.jpg,daddylonglegs.jpg,ant.jpg,eyepatch.jpg,honeybee.jpg,accordion01.jpg,trumpet.jpg,lawnmower.jpg,mrpotatohead.jpg,bacon.jpg,toolbox02.jpg,athleticsock.jpg,bowlingpin.jpg,,,,,0,0,9,,,,,.\resources\ant.jpg,,,1,,,,,,,,,1,,,,,,,,,None,451.76053493999973,None,451.76053493999973,None,,,,,,,447.1775031999996,449.92730389999997,449.6606430999991,None,0.0630263904537574,0.0769192000007024,0.09358370000063587,0.1269244000004619,0.14357770000060555,0.19357490000038524,0.21024730000044656,0.26022980000016105,0.276886800000284,0.32691330000034213,0.34359240000048885,0.3935614000001806,0.41022030000021914,0.44355220000034024,0.46022140000059153,0.5102248000002874,0.5268665000003239,0.576873500000147,0.5935628000006545,0.6435418999999456,0.660219400000642,,,,,,,,,450.1772803999993,None,450.1772803999993,None,450.84390839999924,None,450.84390839999924,None,right,0.47007119999943825,450.84390839999924,None,451.3438550999999,None,right,0.3941588999996384,451.3438550999999,None,451.3438550999999,None,-8.868866326285367,151.38997029343892,,,,11,001,2021_Apr_09_1119,AB_pic_singleT2,2021.1.2,59.981273846533774,
AB,lag7,7,5,12,0.06000000005000003,0,0.3,main,,,,,0,51,51,51,,,,,,,zebra.jpg,ironingboard01.jpg,pokerchips.jpg,parkingmeter.jpg,ipad02.jpg,chainsaw.jpg,musicsheet.jpg,parrot01.jpg,nosmokingsign.jpg,daddylonglegs.jpg,magneticcompass.jpg,hockeypuck.jpg,wheelbarrow01.jpg,spicerack.jpg,christmaslights.jpg,fortunecookie.jpg,dragonfly01.jpg,,,,,0,0,14,,,,,.\resources\hockeypuck.jpg,,,1,,,,,,,,,1,,,,,,,,,None,456.44353104000004,None,456.44353104000004,None,,,,,,,451.77716809999947,454.5269761999998,454.26032769999983,None,0.0695015535511917,0.07721369999944727,0.09380199999941397,0.14381429999957618,0.16048760000012408,0.2104732999996486,0.2271983000000546,0.2938135999993392,0.31046040000001085,0.36046469999928377,0.3771545999998125,0.4271502000001419,0.4438185999997586,0.4938107999996646,0.510448500000166,0.5604717999995046,0.5771205999999438,0.6270989999993617,0.6437832999999955,0.710448499999984,0.7271247999997286,0.7771013999999923,0.7937648999995872,0.8437776999999187,0.8604267999999138,0.9104385000000548,0.9270929999993314,0.977091400000063,0.9937642999993841,454.77696319999995,None,454.77696319999995,None,455.8435636999993,None,455.8435636999993,None,right,0.37432319999970787,455.8435636999993,None,456.24350629999935,None,right,0.17438450000008743,456.24350629999935,None,456.24350629999935,None,-8.81040974572796,151.42519486124525,1.0437549999996918,1.060437600000114,,11,001,2021_Apr_09_1119,AB_pic_singleT2,2021.1.2,59.981273846533774,
AB,lag1,1,5,6,0.06000000005000003,0,0.3,main,,,,,0,52,52,52,,,,,,,marble.jpg,elbow.jpg,kiwi03.jpg,fishingrod.jpg,pig.jpg,cannon.jpg,basketball01.jpg,daddylonglegs.jpg,sandcastle.jpg,raccoon.jpg,ladybug03.jpg,football.jpg,snowman.jpg,paperairplane.jpg,car.jpg,ironingboard01.jpg,lily.jpg,,,,,0,0,8,,,,,.\resources\cannon.jpg,,,1,,,,,,,,,1,,,,,,,,,None,460.6931902399998,None,460.6931902399998,None,,,,,,,456.46017499999925,459.2099632999998,458.9433063999995,None,0.06819286175748539,0.07628269999986514,0.09338789999947039,0.14295519999996031,0.16003209999962564,0.21000979999917035,0.22671489999993355,0.27668999999968946,0.2933493999998973,0.3433404999996128,0.3601959999996325,0.4100208999998358,0.4263013999998293,0.49336529999982304,0.5096070999998119,0.5595673999996507,0.5762552999995023,0.6262425999993866,0.6429278999994494,,,,,,,,,,,459.46036469999945,None,459.46036469999945,None,460.10990969999966,None,460.10990969999966,None,right,0.371976899999936,460.10990969999966,None,460.50986229999944,None,right,0.15631909999956406,460.50986229999944,None,460.50986229999944,None,-8.785092799917631,151.4581394770796,,,,11,001,2021_Apr_09_1119,AB_pic_singleT2,2021.1.2,59.981273846533774,
AB,lag4,4,4,8,0.06000000005000003,0,0.3,main,,,,,0,53,53,53,,,,,,,dandelion.jpg,dormer.jpg,toilet.jpg,cork02.jpg,pirateflag.jpg,moon.jpg,dragonfly01.jpg,platypus.jpg,ostrich.jpg,snowshovel.jpg,worldmap.jpg,moose.jpg,ladybug03.jpg,mattress.jpg,horse.jpg,uprightpiano01.jpg,parrot01.jpg,,,,,1,0,10,,,,,.\resources\platypus.jpg,,,1,,,,,,,,,1,,,,,,,,,None,465.49285613999984,None,465.49285613999984,None,,,,,,,460.709887,463.45964529999947,463.1929995999999,None,0.06778897492395417,0.07684010000048147,0.09305899999981193,0.1430398000002242,0.15973350000058417,0.2097249999997075,0.2268474000002243,0.27677850000054605,0.29347990000042046,0.34345370000028197,0.3601155000005747,0.41011470000012196,0.4268504000001485,0.4768003999997745,0.49303490000056627,0.5436277999997401,0.5596978000003219,0.6267649999999776,0.6434477000002516,0.6934264999999868,0.710146800000075,0.7601505000002362,0.7763569999997344,,,,,,,463.7100582999992,None,463.7100582999992,None,464.4933439999995,None,464.4933439999995,None,left,0.7805971999996473,464.4933439999995,None,465.2928241999998,None,right,0.1811177999998108,465.2928241999998,None,465.2928241999998,None,-8.755825859921906,151.49099841752795,,,,11,001,2021_Apr_09_1119,AB_pic_singleT2,2021.1.2,59.981273846533774,
AB,lag6,6,5,11,0.06000000005000003,0,0.3,main,,,,,0,54,54,54,,,,,,,tie02.jpg,swing.jpg,snowman.jpg,duck01.jpg,waterfall.jpg,whiteout.jpg,elbow.jpg,marble.jpg,tree.jpg,waterfountain02.jpg,snowshovel.jpg,saltshaker03a.jpg,banjo.jpg,licenseplate.jpg,bridge.jpg,foosballtable.jpg,ostrich.jpg,,,,,0,0,13,,,,,.\resources\snowshovel.jpg,,,1,,,,,,,,,1,,,,,,,,,None,471.3257281399998,None,471.3257281399998,None,,,,,,,465.50949689999925,468.25928979999935,467.9926368999995,None,0.06397344526388936,0.07648770000014338,0.09318470000016532,0.14314509999985603,0.1598218999997698,0.1931457999999111,0.20981599999959144,0.25980729999992036,0.27646889999959967,0.3264675000000352,0.3431068999998388,0.3931254999997691,0.4098041999995985,0.45980189999954746,0.4764450000002398,0.5264630000001489,0.5431427000003168,0.5764952999998059,0.5931404000002658,0.6431314999999813,0.6598133999996207,0.70978230000037,0.7264537999999447,0.7764718999997058,0.7930972000003749,0.843112900000051,0.8597756999997728,0.909770600000229,0.9264234000002034,468.50927479999973,None,468.50927479999973,None,469.4425388999998,None,469.4425388999998,None,right,1.663329099999828,469.4425388999998,None,471.1257414999991,None,right,0.17246169999998529,471.1257414999991,None,471.1257414999991,None,-8.725991092105112,151.52344592912598,,,,11,001,2021_Apr_09_1119,AB_pic_singleT2,2021.1.2,59.981273846533774,
AB,lag2,2,4,6,0.06000000005000003,0,0.3,main,,,,,0,55,55,55,,,,,,,ear.jpg,jellybean.jpg,porcupine.jpg,cactus.jpg,moose.jpg,tulip02.jpg,moon.jpg,duck01.jpg,cross01.jpg,funnel.jpg,parachute.jpg,ipad02.jpg,lion.jpg,sledgehammer.jpg,cow.jpg,crab01.jpg,sink.jpg,,,,,0,1,8,,,,,.\resources\tulip02.jpg,,,1,,,,,,,,,0,,,,,,,,,None,475.42543913999964,None,475.42543913999964,None,,,,,,,471.3423757999999,474.09220899999946,473.82555429999957,None,0.06911417921760947,0.07675639999979467,0.09341420000055223,0.14342649999980495,0.1600906000003306,0.21006730000044627,0.22673889999987296,0.2767355000005409,0.29349920000004204,0.36004460000003746,0.3767447000000175,0.42670040000029985,0.44338080000034097,0.49340250000022934,0.5100393000002441,0.5600328000000445,0.576696300000549,0.6266943999999057,0.6429723000001104,,,,,,,,,,,474.34259369999927,None,474.34259369999927,None,474.99216009999964,None,474.99216009999964,None,right,0.2736609000003227,474.99216009999964,None,475.2920983999993,None,right,0.1180000000003929,475.2920983999993,None,475.2920983999993,None,-8.679759021370197,151.554965219184,,,,11,001,2021_Apr_09_1119,AB_pic_singleT2,2021.1.2,59.981273846533774,
AB,lag5,5,4,9,0.06000000005000003,0,0.3,main,,,,,0,56,56,56,,,,,,,toyanimal05.jpg,cashregister01.jpg,skippingrope.jpg,ducttape.jpg,apron.jpg,hockeystick.jpg,skateboard.jpg,ladder.jpg,polarbear.jpg,ipad02.jpg,moon.jpg,christmaslights.jpg,spiderweb.jpg,mattress.jpg,cat.jpg,beerbottle.jpg,spicerack.jpg,,,,,1,0,11,,,,,.\resources\polarbear.jpg,,,1,,,,,,,,,1,,,,,,,,,None,480.12513183999965,None,480.12513183999965,None,,,,,,,475.44210459999977,478.19189429999915,477.9252643,None,0.06724450314189777,0.07645490000049904,0.0931548999997176,0.14310800000021118,0.15979930000048626,0.20979340000030788,0.22645019999981741,0.2764561000003596,0.2931097000000591,0.3431345999997575,0.35978499999964697,0.40977600000042,0.42643709999993007,0.47643820000030246,0.49305960000037885,0.5427103000001807,0.559408799999801,0.6093885999998747,0.6260359999996581,0.676038100000369,0.6927097999996477,0.7426907999997638,0.7593481000003521,0.8093485999997938,0.8260068999998111,,,,,478.44227989999945,None,478.44227989999945,None,479.2751768999997,None,479.2751768999997,None,left,0.6387079999994967,479.2751768999997,None,479.94174549999934,None,right,0.16419829999995272,479.94174549999934,None,479.94174549999934,None,-8.656731503435982,151.5848500296449,,,,11,001,2021_Apr_09_1119,AB_pic_singleT2,2021.1.2,59.981273846533774,
AB,lag2,2,3,5,0.06000000005000003,0,0.3,main,,,,,0,57,57,57,,,,,,,key07.jpg,handcuffs.jpg,locker.jpg,chefshat.jpg,mattress.jpg,football.jpg,pirateflag.jpg,dalmatian.jpg,car.jpg,exitsign.jpg,tricycle.jpg,panda.jpg,hotdogweiner.jpg,vacuumcleaner01.jpg,harmonica.jpg,candycane01a.jpg,xylophone.jpg,,,,,0,0,7,,,,,.\resources\mattress.jpg,,,1,,,,,,,,,1,,,,,,,,,None,484.4414823399999,None,484.4414823399999,None,,,,,,,480.14178319999974,482.89155089999986,482.62492589999965,None,0.07089101407121161,0.0765746000006402,0.09323399999993853,0.14321509999990667,0.15989799999988463,0.22656700000061392,0.2432250000001659,0.29324069999984204,0.30990100000053644,0.36000479999984236,0.376555400000143,0.42616240000006655,0.4431979000000865,0.509851300000264,0.5265518000005613,0.5765197000000626,0.593205900000612,,,,,,,,,,,,,483.14195889999974,None,483.14195889999974,None,483.7419183999991,None,483.7419183999991,None,right,0.5079513999999108,483.7419183999991,None,484.27480149999974,None,right,0.14307819999976346,484.27480149999974,None,484.27480149999974,None,-8.62787436261837,151.61463923424907,,,,11,001,2021_Apr_09_1119,AB_pic_singleT2,2021.1.2,59.981273846533774,
AB,lag6,6,5,11,0.06000000005000003,0,0.3,main,,,,,0,58,58,58,,,,,,,ear.jpg,hockeypuck.jpg,cow.jpg,mummy.jpg,soccerball.jpg,nosmokingsign.jpg,firehydrant.jpg,cork02.jpg,dreamcatcher.jpg,sandcastle.jpg,pigeon.jpg,fridge.jpg,redfox.jpg,nunchuk.jpg,nose.jpg,dragonfly01.jpg,hockeystick.jpg,,,,,0,1,13,,,,,.\resources\pigeon.jpg,,,0,,,,,,,,,1,,,,,,,,,space,490.99098419999973,None,490.99098419999973,None,,,,,,,484.4581271999996,487.2079195999995,486.94125799999983,None,0.06807794901020371,0.0766353999997591,0.09330649999992602,0.1432963999995991,0.1600232999999207,0.20996910000030766,0.22662300000047253,0.27661989999978687,0.2929182999996556,0.3433052000000316,0.3599223000001075,0.4099404999997205,0.42662879999988945,0.476616599999943,0.49329649999981484,0.5595137999998769,0.5762161000002379,0.6262065999999322,0.6428809999997611,0.6928968000001987,0.7095366000003196,0.7595283999999083,0.7762364000000161,0.8261983000002147,0.8429089000001113,0.8928685999999288,0.9095115000000078,0.9595332999997481,0.9761932999999772,487.45828959999926,None,487.45828959999926,None,488.4411747999993,None,488.4411747999993,None,left,1.2887063999996826,488.4411747999993,None,489.7577453999993,None,left,1.1881622000000789,489.7577453999993,None,489.7577453999993,None,-8.61118262589889,151.6437421757644,,,2.5469570999994176,11,001,2021_Apr_09_1119,AB_pic_singleT2,2021.1.2,59.981273846533774,
AB,lag7,7,4,11,0.06000000005000003,0,0.3,main,,,,,0,59,59,59,,,,,,,cocktailshrimp02.jpg,lollipop04.jpg,marble.jpg,chefshat.jpg,penguin.jpg,kangaroo.jpg,nunchuk.jpg,tire.jpg,moose.jpg,basketball01.jpg,vulture.jpg,zebra.jpg,knee.jpg,eye.jpg,lighthouse.jpg,tarantula.jpg,volleyball.jpg,,,,,0,0,13,,,,,.\resources\vulture.jpg,,,0,,,,,,,,,1,,,,,,,,,None,500.2236944399998,None,500.2236944399998,None,,,,,,,493.5741763999995,496.35782479999943,496.05782739999995,None,0.07125101707507847,0.07664569999997184,0.09330179999960819,0.14330169999993814,0.15995589999965887,0.2266223999995418,0.2432851000003211,0.2932541999998648,0.3099101999996492,0.3599133999996411,0.37660739999955695,0.4432286999999633,0.4599175000003015,0.5098958999997194,0.5265684999994846,0.5765558000002784,0.5932121999994706,0.6432242999999289,0.6598913999996512,0.7265391000000818,0.7432417999998506,0.7932218999994802,0.8098996999997325,0.8598707999999533,0.8765505999999732,0.926527999999962,0.9431806000002325,1.0098498999996082,1.0265269000001354,496.5744517999992,None,496.5744517999992,None,497.6076557999995,None,497.6076557999995,None,left,1.8262306000005992,497.6076557999995,None,499.45752449999964,None,right,0.7363599999998769,499.45752449999964,None,499.45752449999964,None,-8.751138627532548,151.65794364919398,,,,11,001,2021_Apr_09_1119,AB_pic_singleT2,2021.1.2,59.981273846533774,
AB,lag5,5,3,8,0.06000000005000003,0,0.3,main,,,,,0,60,60,60,,,,,,,leafrake.jpg,turnstile.jpg,saltshaker03a.jpg,birdhouse.jpg,bed.jpg,dreamcatcher.jpg,boat.jpg,greywolf.jpg,squirrel.jpg,whiteout.jpg,ostrich.jpg,tulip02.jpg,crab01.jpg,penguin.jpg,toucan.jpg,beaver.jpg,birthdaycandle.jpg,,,,,0,0,10,,,,,.\resources\greywolf.jpg,,,1,,,,,,,,,1,,,,,,,,,None,505.8565923399998,None,505.8565923399998,None,,,,,,,500.2403190999994,502.9901063999996,502.7067965999995,None,0.06841409993818265,0.07672160000038275,0.09335800000008021,0.14336370000000898,0.16001700000015262,0.2100201000002926,0.22670120000020688,0.27670000000034634,0.2934943000000203,0.34336600000006,0.3600462000003972,0.42668110000067827,0.44335080000018934,0.4933424999999261,0.5099884999999631,0.5599783000006937,0.5766499999999724,0.626646300000175,0.643343200000345,0.6933214999999109,0.7100137000006725,0.759984400000576,0.7762689999999566,,,,,,,503.22383049999917,None,503.22383049999917,None,504.0067291999994,None,504.0067291999994,None,right,1.6352661000000808,504.0067291999994,None,505.6732536999998,None,right,0.1606329000005644,505.6732536999998,None,505.6732536999998,None,-8.883928783921345,151.67003956921204,,,,11,001,2021_Apr_09_1119,AB_pic_singleT2,2021.1.2,59.981273846533774,
AB,lag3,3,5,8,0.06000000005000003,0,0.3,main,,,,,0,61,61,61,,,,,,,humanskeleton.jpg,greywolf.jpg,windshieldwiper02.jpg,cymbal.jpg,boat.jpg,greathornowl.jpg,fishskeleton.jpg,nunchuk.jpg,porcupine.jpg,harmonica.jpg,pig.jpg,cat.jpg,englishcucumber.jpg,crown.jpg,bowlingball.jpg,panda.jpg,bench01.jpg,,,,,0,0,10,,,,,.\resources\nunchuk.jpg,,,1,,,,,,,,,1,,,,,,,,,None,510.32295123999995,None,510.32295123999995,None,,,,,,,505.8732582999992,508.6230474999993,508.35639549999996,None,0.0723288195750524,0.07705239999995683,0.09372740000071644,0.1603875999999218,0.1770529000004899,0.22704060000069148,0.24369950000073004,0.2937520000004952,0.31043620000036753,0.3770401000001584,0.3937034999999014,0.44327980000070966,0.4603450000004159,0.5103468000006615,0.5270057000007,0.5936817000001611,0.6103431000001365,0.6603133000007801,0.6769989000003989,0.7269896000007066,0.7436594000000696,0.8103246999999101,0.826986100000795,,,,,,,508.87342699999954,None,508.87342699999954,None,509.7067015999992,None,509.7067015999992,None,right,0.407185600000048,509.7067015999992,None,510.1396176999997,None,right,0.16638749999947322,510.1396176999997,None,510.1396176999997,None,-8.85955712751257,151.69276027049403,,,,11,001,2021_Apr_09_1119,AB_pic_singleT2,2021.1.2,59.981273846533774,
AB,lag4,4,5,9,0.06000000005000003,0,0.3,main,,,,,0,62,62,62,,,,,,,rubikcube.jpg,escalator.jpg,horse.jpg,pooltable.jpg,acousticguitar02.jpg,toad.jpg,grizzly.jpg,windshieldwiper02.jpg,bumpercar.jpg,nosmokingsign.jpg,anchor.jpg,giraffe.jpg,toucan.jpg,eye.jpg,car.jpg,saltshaker03a.jpg,snowman.jpg,,,,,0,0,11,,,,,.\resources\bumpercar.jpg,,,1,,,,,,,,,1,,,,,,,,,None,516.1058372399999,None,516.1058372399999,None,,,,,,,510.33959179999965,513.0893798999996,512.8227444999993,None,0.07128682170965689,0.0761214000003747,0.09276510000017879,0.14275530000031722,0.15939710000020568,0.22607030000017403,0.24277600000004895,0.29274230000009993,0.3094654000005903,0.35941100000036386,0.37624910000067757,0.44274680000035005,0.4593869000000268,0.5093849000004411,0.5260740000003352,0.5760669000001144,0.5927005000003192,0.6426611000006233,0.6590129000005618,0.7256547000006321,0.7423380000000179,0.7923340000006647,0.8090368000002854,0.8589707000000999,0.8756502000005639,,,,,513.3397699999996,None,513.3397699999996,None,514.2226492999998,None,514.2226492999998,None,right,1.0835512000003291,514.2226492999998,None,515.3225817999992,None,right,0.7673437000003105,515.3225817999992,None,515.3225817999992,None,-8.845868718801016,151.715168754376,,,,11,001,2021_Apr_09_1119,AB_pic_singleT2,2021.1.2,59.981273846533774,
AB,lag1,1,3,4,0.06000000005000003,0,0.3,main,,,,,0,63,63,63,,,,,,,bowtie.jpg,snowboard.jpg,whiteout.jpg,soccerball.jpg,mrpotatohead.jpg,treadmill.jpg,licenseplate.jpg,magneticcompass.jpg,totempole.jpg,sledgehammer.jpg,showerhead01.jpg,drumstick.jpg,trampoline.jpg,leafrake.jpg,skateboard.jpg,toilet.jpg,smokingpipe.jpg,,,,,1,0,6,,,,,.\resources\soccerball.jpg,,,1,,,,,,,,,1,,,,,,,,,None,520.4722238399996,None,520.4722238399996,None,,,,,,,516.1225149999991,518.8723119999995,518.6056442999998,None,0.06693277595332749,0.07647880000058649,0.09310240000013437,0.14312690000042494,0.1597962000005282,0.20977459999994608,0.22645550000015646,0.276476800000637,0.29308949999995093,0.3431278000007296,0.3597615000007863,0.4097631000004185,0.4264318000005005,0.47641770000063843,0.4930848000003607,,,,,,,,,,,,,,,519.1226795999992,None,519.1226795999992,None,519.6226390999991,None,519.6226390999991,None,left,0.635206200000539,519.6226390999991,None,520.2888620999993,None,right,0.16102999999930034,520.2888620999993,None,520.2888620999993,None,-8.830258999084858,151.73801194610203,,,,11,001,2021_Apr_09_1119,AB_pic_singleT2,2021.1.2,59.981273846533774,
AB,lag5,5,4,9,0.06000000005000003,0,0.3,main,,,,,0,64,64,64,,,,,,,toyanimal05.jpg,triangle.jpg,stool01.jpg,steeringwheel.jpg,turnstile.jpg,footballhelmet.jpg,handcuffs.jpg,hockeypuck.jpg,telescope.jpg,tiger02.jpg,giraffe.jpg,ipad02.jpg,cactus.jpg,firehydrant.jpg,curtain.jpg,banjo.jpg,kiwi03.jpg,,,,,0,1,11,,,,,.\resources\telescope.jpg,,,1,,,,,,,,,1,,,,,,,,,None,526.2384839399998,None,526.2384839399998,None,,,,,,,520.4888710999994,523.2386561999992,522.9719997999991,None,0.07010601762760477,0.07662009999967268,0.09326329999930749,0.14325089999965712,0.15993389999948704,0.22659569999996165,0.24327229999926203,0.29325909999988653,0.30991329999960726,0.3599369999992632,0.376581299999998,0.4265696999991633,0.4432474999994156,0.4932515999998941,0.5095325999991474,0.5761796999995568,0.592843599999469,0.6428474999993341,0.6595083999991402,0.709507699999449,0.7261801999993622,0.7761524999996254,0.7928359999996246,0.8428228999991916,0.8595018999994863,,,,,523.4890352999992,None,523.4890352999992,None,524.3552524999996,None,524.3552524999996,None,right,1.358695699999771,524.3552524999996,None,525.7384671,None,left,0.4714048999994702,525.7384671,None,525.7384671,None,-8.802687841957816,151.7610114611235,,,,11,001,2021_Apr_09_1119,AB_pic_singleT2,2021.1.2,59.981273846533774,
AB,lag4,4,3,7,0.06000000005000003,0,0.3,main,,,,,0,65,65,65,,,,,,,raccoon.jpg,smokingpipe.jpg,bench01.jpg,noparkingsign.jpg,urinal.jpg,popcorn.jpg,leafrake.jpg,mailbox02.jpg,alligator.jpg,hockeystick.jpg,fortunecookie.jpg,worldmap.jpg,cocktailshrimp02.jpg,hockeypuck.jpg,musicsheet.jpg,cashregister01.jpg,rollerblade.jpg,,,,,0,0,9,,,,,.\resources\leafrake.jpg,,,1,,,,,,,,,1,,,,,,,,,None,530.5381445399995,None,530.5381445399995,None,,,,,,,526.2551157999997,529.0053128,528.7382608999997,None,0.06416121124864213,0.07527810000010504,0.09195730000010371,0.14191790000040783,0.15865850000045612,0.20862170000054903,0.22528400000010151,0.2586129000001165,0.2752657000000909,0.3252864000005502,0.3419474000002083,0.3919261999999435,0.40861279999990074,0.4585843000004388,0.4753279000005932,0.5252628000007462,0.541935199999898,0.591898300000139,0.6085803000005399,0.6419173000003866,0.6585860000004686,,,,,,,,,529.2553033999993,None,529.2553033999993,None,529.9219039999998,None,529.9219039999998,None,right,0.4080052999997861,529.9219039999998,None,530.3547950999991,None,right,0.16707980000046518,530.3547950999991,None,530.3547950999991,None,-8.785153869080213,151.78324579563724,,,,11,001,2021_Apr_09_1119,AB_pic_singleT2,2021.1.2,59.981273846533774,
AB,lag7,7,3,10,0.06000000005000003,0,0.3,main,,,,,0,66,66,66,,,,,,,fridge.jpg,chainsaw.jpg,bat.jpg,locker.jpg,granolabar01.jpg,birdfeeder.jpg,crab01.jpg,mouse.jpg,windshieldwiper02.jpg,waterfountain02.jpg,birdnest.jpg,icecube02.jpg,swordfish.jpg,bathtub.jpg,pigeon.jpg,punchingbag.jpg,donut.jpg,,,,,0,1,12,,,,,.\resources\waterfountain02.jpg,,,1,,,,,,,,,1,,,,,,,,,None,535.92110294,None,535.92110294,None,,,,,,,530.5548138999993,533.3045891999991,533.0379396999997,None,0.07022675676168155,0.07629379999980301,0.09297929999956978,0.14297159999932774,0.15964119999989634,0.22628239999994548,0.24294969999937166,0.2929580999998507,0.30961909999950876,0.35963579999952344,0.37628829999994196,0.4263025000000198,0.4425391999993735,0.49257659999966563,0.5092273000000205,0.5759004999999888,0.592564599999605,0.6425683999996181,0.6592307000000801,0.7092098999992231,0.7258824999998978,0.7758944999995947,0.7925490999996327,0.859207399999832,0.875867499999913,0.9258500999994794,0.9425482999995438,,,533.5549755999991,None,533.5549755999991,None,534.5045370999997,None,534.5045370999997,None,right,1.065318500000103,534.5045370999997,None,535.5877595999991,None,left,0.31016769999951066,535.5877595999991,None,535.5877595999991,None,-8.748516647960052,151.80553310543021,,,,11,001,2021_Apr_09_1119,AB_pic_singleT2,2021.1.2,59.981273846533774,
