trialType,cndTyp,lag,T1_loc,T2_loc,stimLen,isi,skipProb,phase,trials.thisRepN,trials.thisTrialN,trials.thisN,trials.thisIndex,trials2.thisRepN,trials2.thisTrialN,trials2.thisN,trials2.thisIndex,key_resp_4.keys,key_resp_4.rt,key_resp_4.started,key_resp_4.stopped,textbox.started,textbox.stopped,img0,img1,img2,img3,img4,img5,img6,img7,img8,img9,img10,img11,img12,img13,img14,img15,img16,option1.started,option1.stopped,text_2.started,text_2.stopped,skip1,skip2,lastPresent,displayPicture.started,displayPicture.stopped,polygon_2.started,polygon_2.stopped,opt1_t1,polygon_4.started,polygon_4.stopped,cor1,option1_t1.started,option1_t1.stopped,key_resp.keys,key_resp.rt,key_resp.started,key_resp.stopped,polygon_5.started,polygon_5.stopped,cor2,key_resp_2.keys,key_resp_2.rt,key_resp_2.started,key_resp_2.stopped,textbox_2.started,textbox_2.stopped,textbox_3.started,textbox_3.stopped,key_resp_3.keys,key_resp_3.started,key_resp_3.stopped,textbox_6.started,textbox_6.stopped,key_resp_7.keys,key_resp_7.rt,key_resp_7.started,key_resp_7.stopped,textbox_4.started,textbox_4.stopped,option1_3.started,option1_3.stopped,text_7.started,text_7.stopped,curStimTim,stimOFF0,stimON0,stimOFF1,stimON1,stimOFF2,stimON2,stimOFF3,stimON3,stimOFF4,stimON4,stimOFF5,stimON5,stimOFF6,stimON6,stimOFF7,stimON7,stimOFF8,stimON8,stimOFF9,stimON9,stimOFF10,stimON10,stimOFF11,stimON11,stimOFF12,stimON12,stimOFF13,stimON13,displayPicture_4.started,displayPicture_4.stopped,polygon_16.started,polygon_16.stopped,polygon_7.started,polygon_7.stopped,option1_t1_2.started,option1_t1_2.stopped,key_resp_6.keys,key_resp_6.rt,key_resp_6.started,key_resp_6.stopped,polygon_17.started,polygon_17.stopped,key_resp_8.keys,key_resp_8.rt,key_resp_8.started,key_resp_8.stopped,textbox_5.started,textbox_5.stopped,B0,B1,stimOFF14,stimON14,key_resp_3.rt,participant,session,date,expName,psychopyVersion,frameRate,
,,,,,,,,,,,,,,,,,space,13.700383399999737,18.738375200000064,None,,,,,,,,,,,,,,,,,,,,,,,,,,,,,,,,,,,,,,,,,,,,,,,,,,,,,,,,,,,,,,,,,,,,,,,,,,,,,,,,,,,,,,,,,,,,,,,,,,,,,,,,,,,,,,,,,,,,,,,,,12,001,2021_Apr_09_1054,AB_pic_singleT2,2021.1.2,59.99746810682909,
AB,lag1,1,4,5,0.2,0.05,0.5,,0,0,0,12,,,,,,,,,18.738375200000064,None,birdhouse.jpg,bow.jpg,sausage.jpg,coffeemaker.jpg,statue.jpg,chair.jpg,key07.jpg,licenseplate.jpg,giraffe.jpg,jellyfish.jpg,swing.jpg,dormer.jpg,vacuumcleaner01.jpg,bridge.jpg,daddylonglegs.jpg,ant.jpg,safe.jpg,32.49636039999996,35.24640420000014,34.96309629999996,None,1,0,7,35.4628646000001,None,35.4628646000001,None,.\resources\statue.jpg,37.47939700000006,None,0,37.47939700000006,None,right,0.679312100000061,37.47939700000006,None,38.179337399999895,None,1,right,3.4594190000002527,38.179337399999895,None,38.179337399999895,None,41.6791188000002,None,None,42.678984729999954,None,42.678984729999954,None,,,,,,,,,,,,,,,,,,,,,,,,,,,,,,,,,,,,,,,,,,,,,,,,,,,,,,,,,,,,,,,,,12,001,2021_Apr_09_1054,AB_pic_singleT2,2021.1.2,59.99746810682909,
AB,lag3,3,3,6,0.2,0.05,0.5,,0,1,1,5,,,,,,,,,,,volleyball.jpg,icecube02.jpg,hockeystick.jpg,bacon.jpg,treadmill.jpg,birdhouse.jpg,trophy01.jpg,kangaroo.jpg,nosmokingsign.jpg,telescope.jpg,lighthouse.jpg,birdfeeder.jpg,shovel01.jpg,exitsign.jpg,helicopter.jpg,cork02.jpg,polarbear.jpg,42.67907000000014,45.42909640000016,45.16244790000019,None,0,0,8,45.662453899999946,None,45.662453899999946,None,.\resources\birdhouse.jpg,47.9121212,None,1,47.9121212,None,right,1.214546700000028,47.9121212,None,49.14538059999995,None,0,left,1.469290600000022,49.14538059999995,None,49.14538059999995,None,50.64525760000015,None,None,51.64509843000023,None,51.64509843000023,None,,,,,,,,,,,,,,,,,,,,,,,,,,,,,,,,,,,,,,,,,,,,,,,,,,,,,,,,,,,,,,,,,12,001,2021_Apr_09_1054,AB_pic_singleT2,2021.1.2,59.99746810682909,
AB,lag6,6,5,11,0.2,0.05,0.5,,0,2,2,0,,,,,,,,,,,totempole.jpg,boat.jpg,crab01.jpg,witchhat.jpg,banjo.jpg,boxingglove01.jpg,tiger02.jpg,discoball.jpg,crown.jpg,locker.jpg,whiteout.jpg,lion.jpg,pokerchips.jpg,rollerblade.jpg,toyanimal05.jpg,toucan.jpg,peacock.jpg,51.64523700000018,54.39523340000005,54.1452505000002,None,1,0,13,54.64523980000013,None,54.64523980000013,None,.\resources\whiteout.jpg,58.144915800000035,None,1,58.144915800000035,None,left,1.5178147000001445,58.144915800000035,None,59.6948725000002,None,1,right,2.199835399999756,59.6948725000002,None,59.6948725000002,None,61.92811799999981,None,None,62.92796173000015,None,62.92796173000015,None,,,,,,,,,,,,,,,,,,,,,,,,,,,,,,,,,,,,,,,,,,,,,,,,,,,,,,,,,,,,,,,,,12,001,2021_Apr_09_1054,AB_pic_singleT2,2021.1.2,59.99746810682909,
AB,lag6,6,5,11,0.2,0.05,0.5,,0,3,3,8,,,,,,,,,,,well.jpg,hulahoop.jpg,beaver.jpg,jellybean.jpg,fridge.jpg,ladder.jpg,lion.jpg,armadillo.jpg,humanskeleton.jpg,jackrabbit.jpg,crown.jpg,mailbox02.jpg,raccoon.jpg,drumstick.jpg,skippingrope.jpg,dormer.jpg,cheetah.jpg,62.944738700000016,65.69461300000012,65.41129860000001,None,1,0,13,65.91127189999997,None,65.91127189999997,None,.\resources\crown.jpg,69.42772150000019,None,1,69.42772150000019,None,left,1.426975400000174,69.42772150000019,None,70.89430330000005,None,1,right,0.952477700000145,70.89430330000005,None,70.89430330000005,None,71.89467779999995,None,None,72.89453252999992,None,72.89453252999992,None,,,,,,,,,,,,,,,,,,,,,,,,,,,,,,,,,,,,,,,,,,,,,,,,,,,,,,,,,,,,,,,,,12,001,2021_Apr_09_1054,AB_pic_singleT2,2021.1.2,59.99746810682909,
AB,lag3,3,5,8,0.2,0.05,0.5,,0,4,4,10,,,,,,,,,,,treadmill.jpg,brownsugar.jpg,electrictoothbrush01c.jpg,hand01b.jpg,floorlamp.jpg,donut.jpg,bullet.jpg,bridge.jpg,masquerademask01.jpg,witchhat.jpg,bull.jpg,hammerheadshark.jpg,flamingo.jpg,showerhead01.jpg,boat.jpg,cashregister01.jpg,cross01.jpg,72.91127169999982,75.66068640000003,75.37738790000003,None,1,1,10,75.89400830000022,None,75.89400830000022,None,.\resources\bridge.jpg,78.64384430000018,None,1,78.64384430000018,None,left,1.60289610000018,78.64384430000018,None,80.29417680000006,None,1,left,1.0164348999996946,80.29417680000006,None,80.29417680000006,None,81.34411660000023,None,None,82.34356523000024,None,82.34356523000024,None,,,,,,,,,,,,,,,,,,,,,,,,,,,,,,,,,,,,,,,,,,,,,,,,,,,,,,,,,,,,,,,,,12,001,2021_Apr_09_1054,AB_pic_singleT2,2021.1.2,59.99746810682909,
AB,lag1,1,3,4,0.2,0.05,0.5,,0,5,5,3,,,,,,,,,,,sheep.jpg,crosscountryski.jpg,elbow.jpg,apron.jpg,jeep.jpg,badmintonracket.jpg,moon.jpg,icecube02.jpg,nunchuk.jpg,snowshoe.jpg,duck01.jpg,stubbywrench01a.jpg,punchingbag.jpg,honeybee.jpg,seagull.jpg,nose.jpg,holdfast.jpg,82.36070819999986,85.11012459999984,84.82678810000016,None,0,1,6,85.3434514999999,None,85.3434514999999,None,.\resources\apron.jpg,87.0933427,None,1,87.0933427,None,right,1.6734356000001753,87.0933427,None,88.80987989999994,None,1,left,1.3487559000000147,88.80987989999994,None,88.80987989999994,None,90.21020339999995,None,None,91.2096389299998,None,91.2096389299998,None,,,,,,,,,,,,,,,,,,,,,,,,,,,,,,,,,,,,,,,,,,,,,,,,,,,,,,,,,,,,,,,,,12,001,2021_Apr_09_1054,AB_pic_singleT2,2021.1.2,59.99746810682909,
AB,lag7,7,4,11,0.2,0.05,0.5,,0,6,6,2,,,,,,,,,,,banjo.jpg,panda.jpg,barrel01.jpg,skunk.jpg,leafblower01.jpg,jackrabbit.jpg,apron.jpg,mrpotatohead.jpg,foosballtable.jpg,electricguitar01.jpg,moose.jpg,soccerball.jpg,nose.jpg,cannon.jpg,humanskeleton.jpg,worldmap.jpg,squid.jpg,91.2097331,93.9599674000001,93.69333370000004,None,1,0,13,94.19287519999989,None,94.19287519999989,None,.\resources\moose.jpg,97.70934859999988,None,1,97.70934859999988,None,left,1.497195599999941,97.70934859999988,None,99.22591860000011,None,1,right,0.7166557999998986,99.22591860000011,None,99.22591860000011,None,99.9592345000001,None,None,100.9590775300001,None,100.9590775300001,None,,,,,,,,,,,,,,,,,,,,,,,,,,,,,,,,,,,,,,,,,,,,,,,,,,,,,,,,,,,,,,,,,12,001,2021_Apr_09_1054,AB_pic_singleT2,2021.1.2,59.99746810682909,
AB,lag2,2,5,7,0.2,0.05,0.5,,0,7,7,9,,,,,,,,,,,waterfall.jpg,greatwhiteshark.jpg,sledgehammer.jpg,spicerack.jpg,ducttape.jpg,dandelion.jpg,englishcucumber.jpg,eye.jpg,jackrabbit.jpg,tent.jpg,lawnmower.jpg,football.jpg,foot.jpg,alligator.jpg,worldmap.jpg,treadmill.jpg,bed.jpg,100.97582300000022,103.7260569,103.45939739999994,None,1,1,9,103.97603140000001,None,103.97603140000001,None,.\resources\englishcucumber.jpg,106.47549100000015,None,1,106.47549100000015,None,left,1.2432244000001447,106.47549100000015,None,107.7587308000002,None,1,left,0.9678988999999092,107.7587308000002,None,107.7587308000002,None,108.7586809999998,None,None,109.75855932999984,None,109.75855932999984,None,,,,,,,,,,,,,,,,,,,,,,,,,,,,,,,,,,,,,,,,,,,,,,,,,,,,,,,,,,,,,,,,,12,001,2021_Apr_09_1054,AB_pic_singleT2,2021.1.2,59.99746810682909,
AB,lag4,4,3,7,0.2,0.05,0.5,,0,8,8,1,,,,,,,,,,,arrow02.jpg,panda.jpg,toucan.jpg,eyepatch.jpg,curtain.jpg,athleticsock.jpg,tie02.jpg,escalator.jpg,wallclock.jpg,bowlingball.jpg,flamingo.jpg,cat.jpg,tank.jpg,hulahoop.jpg,golfball.jpg,statue.jpg,rollerblade.jpg,109.77527770000006,112.52518099999998,112.24186420000024,None,0,0,9,112.75850320000018,None,112.75850320000018,None,.\resources\tie02.jpg,115.2583281000002,None,1,115.2583281000002,None,right,0.5483673999997336,115.2583281000002,None,115.8416358999998,None,1,right,0.7409516000002441,115.8416358999998,None,115.8416358999998,None,116.64159689999997,None,None,117.64143442999993,None,117.64143442999993,None,,,,,,,,,,,,,,,,,,,,,,,,,,,,,,,,,,,,,,,,,,,,,,,,,,,,,,,,,,,,,,,,,12,001,2021_Apr_09_1054,AB_pic_singleT2,2021.1.2,59.99746810682909,
AB,lag5,5,4,9,0.2,0.05,0.5,,0,9,9,6,,,,,,,,,,,jeep.jpg,cupcake.jpg,mrpotatohead.jpg,treadmill.jpg,cork02.jpg,dolphin01.jpg,snowboard.jpg,fishingrod.jpg,waterfall.jpg,fireplace.jpg,christmaslights.jpg,flamingo.jpg,bumpercar.jpg,accordion01.jpg,pirateflag.jpg,bowtie.jpg,jellyfish.jpg,117.65862860000016,120.40802100000019,120.14140929999985,None,1,0,11,120.64136430000008,None,120.64136430000008,None,.\resources\waterfall.jpg,123.65782889999991,None,1,123.65782889999991,None,left,0.7567769000002045,123.65782889999991,None,124.45778090000022,None,1,right,1.324802599999657,124.45778090000022,None,124.45778090000022,None,125.84146640000017,None,None,126.84129452999996,None,126.84129452999996,None,,,,,,,,,,,,,,,,,,,,,,,,,,,,,,,,,,,,,,,,,,,,,,,,,,,,,,,,,,,,,,,,,12,001,2021_Apr_09_1054,AB_pic_singleT2,2021.1.2,59.99746810682909,
AB,lag4,4,4,8,0.2,0.05,0.5,,0,10,10,13,,,,,,,,,,,icecube02.jpg,masquerademask01.jpg,fortunecookie.jpg,spear02.jpg,baseballbat.jpg,dartboard.jpg,spicerack.jpg,tank.jpg,cruiseship.jpg,butterfly.jpg,beerbottle.jpg,surfboard.jpg,dandelion.jpg,sledgehammer.jpg,pooltable.jpg,discoball.jpg,badmintonracket.jpg,126.85806769999999,129.60749209999994,129.32416620000004,None,0,1,10,129.8241296000001,None,129.8241296000001,None,.\resources\tank.jpg,132.59063689999994,None,1,132.59063689999994,None,right,1.1760051000001113,132.59063689999994,None,133.80722160000005,None,1,left,0.8714878000000681,133.80722160000005,None,133.80722160000005,None,134.7409204999999,None,None,135.74076553000015,None,135.74076553000015,None,,,,,,,,,,,,,,,,,,,,,,,,,,,,,,,,,,,,,,,,,,,,,,,,,,,,,,,,,,,,,,,,,12,001,2021_Apr_09_1054,AB_pic_singleT2,2021.1.2,59.99746810682909,
AB,lag2,2,3,5,0.2,0.05,0.5,,0,11,11,4,,,,,,,,,,,magneticcompass.jpg,parkingmeter.jpg,swordfish.jpg,statue.jpg,bed.jpg,tiger02.jpg,hockeypuck.jpg,alligator.jpg,jellyfish.jpg,cactus.jpg,saltshaker03a.jpg,cannon.jpg,cork02.jpg,armadillo.jpg,cat.jpg,parrot01.jpg,snowboard.jpg,135.75752969999985,138.5069423,138.22362590000012,None,0,0,7,138.7402649999999,None,138.7402649999999,None,.\resources\bed.jpg,140.74014209999996,None,1,140.74014209999996,None,right,0.4983313000002454,140.74014209999996,None,141.27342309999995,None,1,right,0.517076999999972,141.27342309999995,None,141.27342309999995,None,141.84006450000015,None,None,142.83989193000008,None,142.83989193000008,None,,,,,,,,,,,,,,,,,,,,,,,,,,,,,,,,,,,,,,,,,,,,,,,,,,,,,,,,,,,,,,,,,12,001,2021_Apr_09_1054,AB_pic_singleT2,2021.1.2,59.99746810682909,
AB,lag7,7,5,12,0.2,0.05,0.5,,0,12,12,7,,,,,,,,,,,ipad02.jpg,lip.jpg,sandcastle.jpg,mattress.jpg,duck01.jpg,dreamcatcher.jpg,jeep.jpg,skateboard.jpg,cobra.jpg,cupcake.jpg,holdfast.jpg,slug.jpg,cymbal.jpg,sink.jpg,skippingrope.jpg,microwave.jpg,pig.jpg,142.84002090000013,145.59025550000024,145.32357920000004,None,0,1,14,145.8402113000002,None,145.8402113000002,None,.\resources\slug.jpg,149.58959069999992,None,1,149.58959069999992,None,right,0.7850225000001956,149.58959069999992,None,150.40621340000007,None,1,left,0.87253550000014,150.40621340000007,None,150.40621340000007,None,151.33988230000023,None,None,152.33976022999997,None,152.33976022999997,None,,,,,,,,,,,,,,,,,,,,,,,,,,,,,,,,,,,,,,,,,,,,,,,,,,,,,,,,,,,,,,,,,12,001,2021_Apr_09_1054,AB_pic_singleT2,2021.1.2,59.99746810682909,
AB,lag5,5,4,9,0.2,0.05,0.5,,0,13,13,11,,,,,,,,,,,armadillo.jpg,exitsign.jpg,paperairplane.jpg,hockeypuck.jpg,beerbottle.jpg,dreamcatcher.jpg,kiwi03.jpg,surfboard.jpg,grizzly.jpg,granolabar01.jpg,drumstick.jpg,lightswitch01.jpg,jellyfish.jpg,hotdogweiner.jpg,snowshoe.jpg,leafblower01.jpg,electricguitar01.jpg,152.35648859999992,155.1059279000001,154.8226340000001,None,0,1,11,155.32258600000023,None,155.32258600000023,None,.\resources\grizzly.jpg,158.3391032999998,None,1,158.3391032999998,None,right,0.8515714000000116,158.3391032999998,None,159.2223557000002,None,1,left,0.776210699999865,159.2223557000002,None,159.2223557000002,None,160.0389699000002,None,None,161.03923943,None,161.03923943,None,,,,,,,,,,,,,,,,,,,,,,,,,,,,,,,,,,,,,,,,,,,,,,,,,,,,,,,,,,,,,,,,,12,001,2021_Apr_09_1054,AB_pic_singleT2,2021.1.2,59.99746810682909,
,,,,,,,,,,,,,,,,,,,,,,,,,,,,,,,,,,,,,,,,,,,,,,,,,,,,,,,,,,,,,,,,,,,,,,,,,,,,,space,16.31736890000002,161.0394154999999,None,,,,,,,,,,,,,,,,,,,,,,,,,,,,,,,,,,,,,,,,,,,,,,,,,,,,,,,,,,,,,12,001,2021_Apr_09_1054,AB_pic_singleT2,2021.1.2,59.99746810682909,
AB,lag6,6,5,11,0.2,0.05,0.5,ramp,,,,,0,0,0,0,,,,,,,apron.jpg,footballhelmet.jpg,ear.jpg,magneticcompass.jpg,parkingmeter.jpg,jackrabbit.jpg,wheelbarrow01.jpg,dormer.jpg,cobra.jpg,lightswitch01.jpg,parachute.jpg,crown.jpg,microwave.jpg,helicopter.jpg,key07.jpg,sandcastle.jpg,dartboard.jpg,,,,,0,0,13,,,,,.\resources\parachute.jpg,,,1,,,,,,,,,1,,,,,,,,,None,185.53735842999987,None,185.53735842999987,None,,,,,161.0394154999999,None,177.4883749999999,180.2377677999998,179.97114569999985,None,0.2,0.21591369999987364,0.26589190000004237,0.46582489999991594,0.5158246999999392,0.7158605999998144,0.7658246999999392,0.9658110999998826,1.015806899999916,1.215796500000124,1.2657909999998083,1.4657644999997501,1.5157795000000078,1.715766799999983,1.7657626999998683,1.9657523000000765,2.0157994999999573,2.2157468999998855,2.265733100000034,2.4657037000001765,2.515718900000138,2.7157171999997445,2.7657036999999036,2.9656921000000693,3.0156911999997646,3.2156761999999617,3.2656741999999213,3.4656448999999157,3.5156569000000673,180.42110129999992,None,180.42110129999992,None,183.93757159999996,None,183.93757159999996,None,right,0.5729679000000942,183.93757159999996,None,184.55417720000014,None,right,0.9562104999999974,184.55417720000014,None,184.55417720000014,None,,,,,,12,001,2021_Apr_09_1054,AB_pic_singleT2,2021.1.2,59.99746810682909,
AB,lag4,4,4,8,0.19066666667,0.046667,0.48,ramp,,,,,0,1,1,1,,,,,,,tent.jpg,alligator.jpg,scooter.jpg,waterfall.jpg,soccerball.jpg,squirrel.jpg,hotdogweiner.jpg,snowshovel.jpg,dreamcatcher.jpg,parkfountain.jpg,crosscountryski.jpg,raccoon.jpg,masquerademask01.jpg,rooster.jpg,birdnest.jpg,lighthouse.jpg,bullet.jpg,,,,,1,1,10,,,,,.\resources\snowshovel.jpg,,,1,,,,,,,,,1,,,,,,,,,None,193.83684903000022,None,193.83684903000022,None,,,,,,,185.5541162999998,188.3039561999999,188.0377282999998,None,0.19066666667,0.19735680000030698,0.2473730000001524,0.43063600000004953,0.4806186999999227,0.6806022999999186,0.7139611000002333,0.9139218000000255,0.9639197999999851,1.1472447000001011,1.1972367000003032,1.3805575999999746,1.4305567999999766,1.630547100000058,1.6638781000001472,1.8638667000000169,1.9138611000003038,2.0972405000002254,2.1472367999999733,2.3304871000000276,2.380501699999968,2.580492900000081,2.6138229000002866,,,,,,,188.55394100000012,None,188.55394100000012,None,191.1704681000001,None,191.1704681000001,None,left,1.8119212000001426,191.1704681000001,None,193.00365199999987,None,left,0.8107967000000826,193.00365199999987,None,193.00365199999987,None,,,,,,12,001,2021_Apr_09_1054,AB_pic_singleT2,2021.1.2,59.99746810682909,
AB,lag7,7,4,11,0.18133333334,0.043334,0.45999999999999996,ramp,,,,,0,2,2,2,,,,,,,cactus.jpg,apron.jpg,spear02.jpg,lawnmower.jpg,bathtub.jpg,icecube02.jpg,snowshovel.jpg,sword01.jpg,toilet.jpg,parachute.jpg,cigar.jpg,squirrel.jpg,punchingbag.jpg,kiwi03.jpg,badmintonracket.jpg,tennisracket.jpg,bow.jpg,,,,,0,0,13,,,,,.\resources\cigar.jpg,,,1,,,,,,,,,1,,,,,,,,,None,202.05301433000005,None,202.05301433000005,None,,,,,,,193.85361740000008,196.60343650000004,196.33678800000007,None,0.18133333334,0.19548610000038025,0.22876560000031532,0.41207329999997455,0.4620545000002494,0.6454541000002791,0.6787327000001824,0.8620555000002241,0.9120477999999821,1.095427500000369,1.1287082000003466,1.3120263000000705,1.3620278000003054,1.5453999000001204,1.5787073000001328,1.7619977000003928,1.8119917000003625,1.9787107000001924,2.0286471000003985,2.211971700000049,2.261971600000379,2.428623300000254,2.4786219000002347,2.6619878000001336,2.711941900000056,2.878596000000016,2.9285985000001347,3.111905100000058,3.1619112000003042,196.85342760000003,None,196.85342760000003,None,200.01989559999993,None,200.01989559999993,None,right,0.9304354000000785,200.01989559999993,None,200.98650910000015,None,right,1.0438512999999148,200.98650910000015,None,200.98650910000015,None,-10.00407683084685,150.00000012762652,,,,12,001,2021_Apr_09_1054,AB_pic_singleT2,2021.1.2,59.99746810682909,
AB,lag5,5,5,10,0.17200000001000001,0.040000999999999995,0.43999999999999995,ramp,,,,,0,3,3,3,,,,,,,icecube02.jpg,bull.jpg,mailbox02.jpg,cupcake.jpg,moose.jpg,donut.jpg,discoball.jpg,telescope.jpg,fortunecookie.jpg,rollerblade.jpg,waterfall.jpg,cross01.jpg,cobra.jpg,hammerheadshark.jpg,jeans01.jpg,kite.jpg,toyanimal05.jpg,,,,,0,1,12,,,,,.\resources\rollerblade.jpg,,,1,,,,,,,,,1,,,,,,,,,None,211.15247383000025,None,211.15247383000025,None,,,,,,,202.06977030000007,204.8196809000001,204.55298429999993,None,0.17200000001000001,0.1792037000000164,0.21254190000036033,0.3959162000001015,0.42919350000011036,0.6125121000000036,0.6458525000002737,0.8125009000000318,0.8625339000000167,1.029209300000275,1.0625371000000996,1.2458579000003738,1.2792493000001741,1.4458475999999791,1.4958487000003515,1.6624993000000359,1.712501599999996,1.8791145000000142,1.912446600000294,2.0957846000001155,2.1291149000003315,2.2957742000003236,2.34577390000004,2.5124226000002636,2.545818699999927,2.729078400000162,2.762486600000102,,,205.0696281999999,None,205.0696281999999,None,207.8361501999998,None,207.8361501999998,None,right,2.5543367000000217,207.8361501999998,None,210.4359469000001,None,left,0.6746268999995664,210.4359469000001,None,210.4359469000001,None,-10.008136239947735,150.00000041102172,,,,12,001,2021_Apr_09_1054,AB_pic_singleT2,2021.1.2,59.99746810682909,
AB,lag2,2,3,5,0.16266666668000002,0.03666799999999999,0.41999999999999993,ramp,,,,,0,4,4,4,,,,,,,crab01.jpg,englishcucumber.jpg,ear.jpg,spicerack.jpg,lawnmower.jpg,worldmap.jpg,moose.jpg,microwave.jpg,ceilingfan01.jpg,cruiseship.jpg,bowtie.jpg,soccerball.jpg,peacock.jpg,honeybee.jpg,anchor.jpg,treadmill.jpg,banjo.jpg,,,,,1,0,7,,,,,.\resources\lawnmower.jpg,,,1,,,,,,,,,1,,,,,,,,,None,219.1020279299999,None,219.1020279299999,None,,,,,,,211.16923309999993,213.91906710000012,213.65241419999984,None,0.16266666668000002,0.16292209999983243,0.212923900000078,0.3629172999999355,0.41290429999980915,0.5628965999999309,0.6129439000001184,0.762867500000084,0.8128680999998323,0.9628708000000188,1.0128673999997773,1.162860500000079,1.196221499999865,1.3628459999999905,1.396245800000088,1.5628391000000192,1.5961667999999918,,,,,,,,,,,,,214.15239359999987,None,214.15239359999987,None,215.76895869999998,None,215.76895869999998,None,left,2.709418299999925,215.76895869999998,None,218.51879899999994,None,right,0.5676292999996804,218.51879899999994,None,218.51879899999994,None,-10.012176442415447,150.00000117116343,,,,12,001,2021_Apr_09_1054,AB_pic_singleT2,2021.1.2,59.99746810682909,
AB,lag3,3,5,8,0.15333333335000002,0.03333499999999999,0.3999999999999999,ramp,,,,,0,5,5,5,,,,,,,holdfast.jpg,crab01.jpg,kiwi03.jpg,volleyball.jpg,trampoline.jpg,saxophone.jpg,sausage.jpg,toyanimal05.jpg,honeybee.jpg,butterfly.jpg,pumpkin.jpg,sheep.jpg,tiger02.jpg,bowlingpin.jpg,chair.jpg,raccoon.jpg,totempole.jpg,,,,,1,1,10,,,,,.\resources\toyanimal05.jpg,,,1,,,,,,,,,1,,,,,,,,,None,227.4848530299999,None,227.4848530299999,None,,,,,,,219.11876489999986,221.86861739999995,221.60195000000022,None,0.15333333335000002,0.16198800000029223,0.1953697000003558,0.3453614000000016,0.3786626000000979,0.5286301000001004,0.5619659000003594,0.7286206000003403,0.7620234000000892,0.9119442000001072,0.9453283000002557,1.0953197000003456,1.1285965000001852,1.2785941000001912,1.3119216000000051,1.4619191000001592,1.4952963000000636,1.661907500000325,1.6952916000000187,1.845274000000245,1.878556000000117,2.0285452000002806,2.0618749000000207,,,,,,,222.11859659999982,None,222.11859659999982,None,224.18512899999996,None,224.18512899999996,None,left,1.4612308999999186,224.18512899999996,None,225.68503999999984,None,left,1.7772534999999152,225.68503999999984,None,225.68503999999984,None,-10.016191025341827,150.00000344461003,,,,12,001,2021_Apr_09_1054,AB_pic_singleT2,2021.1.2,59.99746810682909,
AB,lag1,1,4,5,0.14400000002000002,0.03000199999999999,0.3799999999999999,ramp,,,,,0,6,6,6,,,,,,,fireplace.jpg,tiger02.jpg,cloud.jpg,knee.jpg,cheetah.jpg,eiffeltower.jpg,bluecheese.jpg,greatwhiteshark.jpg,cannon.jpg,toucan.jpg,microphone01.jpg,dalmatian.jpg,coffeemaker.jpg,peacock.jpg,fishingrod.jpg,lawnmower.jpg,jeep.jpg,,,,,0,0,7,,,,,.\resources\cheetah.jpg,,,1,,,,,,,,,1,,,,,,,,,None,233.8679911299999,None,233.8679911299999,None,,,,,,,227.50163410000005,230.25144610000007,229.98481840000022,None,0.14400000002000002,0.1451630000001387,0.17849359999991066,0.3284984000001714,0.36187029999973674,0.4951418000000558,0.5284907000000203,0.6784662000000026,0.7118568999999297,0.845119799999793,0.87844159999986,1.028413300000011,1.04510560000017,1.1950981999998476,1.2284359000000222,1.378623399999924,1.3951477000000523,,,,,,,,,,,,,230.50142319999986,None,230.50142319999986,None,231.90133100000003,None,231.90133100000003,None,right,1.208959799999775,231.90133100000003,None,233.13458979999996,None,right,0.6957483999999567,233.13458979999996,None,233.13458979999996,None,-10.02015724331211,150.00001064711574,,,,12,001,2021_Apr_09_1054,AB_pic_singleT2,2021.1.2,59.99746810682909,
AB,lag6,6,5,11,0.13466666669000002,0.02666899999999999,0.3599999999999999,ramp,,,,,0,7,7,7,,,,,,,cigar.jpg,hand01b.jpg,urinal.jpg,popcorn.jpg,mummy.jpg,redfox.jpg,horse.jpg,accordion01.jpg,kangaroo.jpg,sledgehammer.jpg,granolabar01.jpg,holdfast.jpg,key07.jpg,soccerball.jpg,porcupine.jpg,greathornowl.jpg,cannon.jpg,,,,,0,0,13,,,,,.\resources\granolabar01.jpg,,,1,,,,,,,,,1,,,,,,,,,None,240.36740763000017,None,240.36740763000017,None,,,,,,,233.88455199999999,236.6344180000001,236.3677335000002,None,0.13466666669000002,0.14586149999968256,0.16253349999988131,0.31252330000006623,0.32919259999971473,0.46251689999962764,0.4959030999998504,0.629175000000032,0.6458373000000392,0.7958243999996739,0.8124943999996503,0.9458208999999442,0.9791526999997586,1.1124772999996821,1.1458005999998022,1.2791370999998435,1.295798399999967,1.4291270999997323,1.4624566999996205,1.5958387000000585,1.6291125999996439,1.762438899999779,1.779113199999756,1.9124523000000409,1.9458236000000397,2.079074799999944,2.1124056999997265,2.2457964000000175,2.262408999999934,236.86775549999993,None,236.86775549999993,None,239.1509016,None,239.1509016,None,right,0.615370299999995,239.1509016,None,239.8008636999998,None,right,0.5255425999998806,239.8008636999998,None,239.8008636999998,None,-10.023993751458406,150.0000341991893,,,,12,001,2021_Apr_09_1054,AB_pic_singleT2,2021.1.2,59.99746810682909,
AB,lag3,3,4,7,0.12533333336000002,0.023335999999999992,0.33999999999999986,ramp,,,,,0,8,8,8,,,,,,,englishcucumber.jpg,christmastree.jpg,bow.jpg,panda.jpg,acousticguitar02.jpg,cow.jpg,tank.jpg,anchor.jpg,eye.jpg,escalator.jpg,knee.jpg,surfboard.jpg,mattress.jpg,cymbal.jpg,dreamcatcher.jpg,witchhat.jpg,seal.jpg,,,,,1,1,9,,,,,.\resources\tank.jpg,,,1,,,,,,,,,1,,,,,,,,,None,246.76706942999982,None,246.76706942999982,None,,,,,,,240.38417329999993,243.13400000000001,242.86753880000015,None,0.12533333336000002,0.128384399999959,0.16170829999964553,0.27837429999999586,0.3116992999998729,0.4283674999996947,0.4616889999997511,0.578351499999826,0.5950685999996495,0.728347599999779,0.7450718999998571,0.8783364999999321,0.8950625999996191,1.0283287999995991,1.0450490999996873,1.178315599999678,1.1950345000000198,1.3283105999998952,1.345034399999804,1.4783018999996784,1.4950154999996812,,,,,,,,,243.38398439999992,None,243.38398439999992,None,244.88408489999983,None,244.88408489999983,None,left,1.3462079000000813,244.88408489999983,None,246.26714170000014,None,left,0.48317550000001575,246.26714170000014,None,246.26714170000014,None,-10.027406248378192,150.00011266303537,,,,12,001,2021_Apr_09_1054,AB_pic_singleT2,2021.1.2,59.99746810682909,
AB,lag4,4,4,8,0.11600000003000002,0.020002999999999993,0.31999999999999984,ramp,,,,,0,9,9,9,,,,,,,cobra.jpg,greatwhiteshark.jpg,golfball.jpg,motorcycle.jpg,cross01.jpg,sledgehammer.jpg,dandelion.jpg,floorlamp.jpg,drumset.jpg,lollipop04.jpg,greathornowl.jpg,nosmokingsign.jpg,discoball.jpg,peacock.jpg,accordion01.jpg,bowlingpin.jpg,hotdogweiner.jpg,,,,,0,1,10,,,,,.\resources\floorlamp.jpg,,,1,,,,,,,,,1,,,,,,,,,None,254.06662252999996,None,254.06662252999996,None,,,,,,,246.78378169999996,249.53364330000022,249.26697409999997,None,0.11600000003000002,0.128501199999846,0.1450260999999955,0.2615946000000804,0.2782620999996652,0.3949949999996534,0.4116263999999319,0.5282619999998133,0.5449911000000611,0.6616148999996767,0.6949779999999919,0.8116123999998308,0.828252099999645,0.9449627999997574,0.961572299999716,1.078234899999643,1.0949436999999307,1.2115509000000202,1.228200999999899,1.3448850999998285,1.3615498999997726,1.478209699999752,1.5115434999997888,,,,,,,249.7836069,None,249.7836069,None,251.30018819999987,None,251.30018819999987,None,right,2.1620545000000675,251.30018819999987,None,253.50005370000008,None,left,0.5463890999999421,253.50005370000008,None,253.50005370000008,None,-10.029319681428833,150.00037691509038,,,,12,001,2021_Apr_09_1054,AB_pic_singleT2,2021.1.2,59.99746810682909,
AB,lag5,5,4,9,0.10666666670000002,0.016669999999999994,0.2999999999999998,ramp,,,,,0,10,10,10,,,,,,,zebra.jpg,curtain.jpg,shovel01.jpg,crab01.jpg,firehydrant.jpg,cheetah.jpg,birdhouse.jpg,seal.jpg,bullet.jpg,dragonfly01.jpg,totempole.jpg,sandcastle.jpg,platypus.jpg,locker.jpg,penguin.jpg,jellyfish.jpg,raccoon.jpg,,,,,0,1,11,,,,,.\resources\bullet.jpg,,,1,,,,,,,,,1,,,,,,,,,None,260.34959003000023,None,260.34959003000023,None,,,,,,,254.08335480000005,256.8332412999998,256.5665868000001,None,0.10666666670000002,0.111033099999986,0.1276745000000119,0.24439299999994546,0.2609963999998399,0.3609929999997803,0.37766430000010587,0.47765320000007705,0.4943754999999328,0.6109745999997358,0.6276831999998649,0.7276397000000543,0.7443382999999812,0.8610075999999935,0.8776499000000513,0.977607899999839,0.9943419000001086,1.0942823999998836,1.1109464999999545,1.2276105000000825,1.2443303999998534,1.3443321999998261,1.3609327999997731,1.47759219999989,1.4942769999997836,,,,,257.08326020000004,None,257.08326020000004,None,258.58316079999986,None,258.58316079999986,None,right,1.2390267000000676,258.58316079999986,None,259.8663809999998,None,left,0.4519860999998855,259.8663809999998,None,259.8663809999998,None,-10.025792896065678,150.0012700365491,,,,12,001,2021_Apr_09_1054,AB_pic_singleT2,2021.1.2,59.99746810682909,
AB,lag2,2,3,5,0.09733333337000002,0.013336999999999995,0.3,ramp,,,,,0,11,11,11,,,,,,,cannon.jpg,footballhelmet.jpg,eye.jpg,zipper.jpg,rubikcube.jpg,pumpkin.jpg,jeep.jpg,totempole.jpg,lizard.jpg,birdfeeder.jpg,noparkingsign.jpg,cat.jpg,parkingmeter.jpg,ducttape.jpg,skippingrope.jpg,panda.jpg,scooter.jpg,,,,,0,1,7,,,,,.\resources\rubikcube.jpg,,,1,,,,,,,,,1,,,,,,,,,None,267.29916742999995,None,267.29916742999995,None,,,,,,,260.3663394,263.11616809999987,262.8495544000002,None,0.09733333337000002,0.11313979999977164,0.12980519999973694,0.2131862999999612,0.2297851999996965,0.32979260000001887,0.3464570000001004,0.4297873000000436,0.44645589999981894,0.5464459999998326,0.5631602999997085,0.663088499999958,0.6797558999996909,0.7630986999997731,0.7797658999998021,0.8798182000000452,0.8964253999997709,,,,,,,,,,,,,263.3494909000001,None,263.3494909000001,None,264.2661081000001,None,264.2661081000001,None,right,2.6841614999998455,264.2661081000001,None,266.98258639999995,None,left,0.2956011999999646,266.98258639999995,None,266.98258639999995,None,-10.002582074658827,150.00425893484865,,,,12,001,2021_Apr_09_1054,AB_pic_singleT2,2021.1.2,59.99746810682909,
AB,lag1,1,4,5,0.08800000004000003,0.010003999999999996,0.3,ramp,,,,,0,12,12,12,,,,,,,ant.jpg,squirrel.jpg,butterfly.jpg,chefshat.jpg,toyanimal05.jpg,chimney.jpg,shovel01.jpg,windmill.jpg,arrow02.jpg,beaver.jpg,electricguitar01.jpg,horse.jpg,discoball.jpg,mouse.jpg,scorpion.jpg,birdnest.jpg,leafrake.jpg,,,,,0,0,7,,,,,.\resources\toyanimal05.jpg,,,1,,,,,,,,,1,,,,,,,,,None,273.2821415299998,None,273.2821415299998,None,,,,,,,267.31593169999996,270.0657338000001,269.7990832999999,None,0.08800000004000003,0.09607839999989665,0.11275099999966187,0.19613369999979113,0.21273929999961183,0.2960681999998087,0.31277849999969476,0.39605859999983295,0.41272669999989375,0.49605679999967833,0.5127259999999296,0.5793846999999914,0.5960573999996086,0.679411699999946,0.6960941999996066,0.7794214000000466,0.7960348999999951,,,,,,,,,,,,,270.29906500000016,None,270.29906500000016,None,271.11577420000003,None,271.11577420000003,None,right,1.8663854000001265,271.11577420000003,None,273.0155565,None,right,0.24668400000018664,273.0155565,None,273.0155565,None,-9.911836339706365,150.0137990811606,,,,12,001,2021_Apr_09_1054,AB_pic_singleT2,2021.1.2,59.99746810682909,
AB,lag7,7,5,12,0.07866666671000003,0.0066709999999999955,0.3,ramp,,,,,0,13,13,13,,,,,,,honeybee.jpg,ducttape.jpg,masquerademask01.jpg,callbell.jpg,corn02.jpg,tire.jpg,pokerchips.jpg,well.jpg,mouse.jpg,swordfish.jpg,crosscountryski.jpg,licenseplate.jpg,hulahoop.jpg,raccoon.jpg,tent.jpg,cheetah.jpg,helicopter.jpg,,,,,0,1,14,,,,,.\resources\licenseplate.jpg,,,1,,,,,,,,,1,,,,,,,,,None,280.3317276300002,None,280.3317276300002,None,,,,,,,273.29887929999995,276.04870690000007,275.7820587000001,None,0.07866666671000003,0.0948475000000144,0.11145640000040657,0.17812380000032135,0.1948471000000609,0.26144990000011603,0.27811750000000757,0.344781800000419,0.36144410000042626,0.4281085000002349,0.44483100000024933,0.5114565000003495,0.5281061000000591,0.5948215000003074,0.6114305000000968,0.6781118000003516,0.6949660000000222,0.7614657000003717,0.7780885000001945,0.8614256000000751,0.8780843000004097,0.9448065999999926,0.9614286000000902,1.02807010000015,1.0447865000001002,1.1114018000002943,1.1280676000001222,1.1947917000002235,1.2113979000000654,276.2986953999998,None,276.2986953999998,None,277.5986204999999,None,277.5986204999999,None,right,2.3356102000002466,277.5986204999999,None,279.98183310000013,None,left,0.3205917000000227,279.98183310000013,None,279.98183310000013,None,-9.628580139322805,150.0400817454054,1.2780612999999903,1.2947846000001846,,12,001,2021_Apr_09_1054,AB_pic_singleT2,2021.1.2,59.99746810682909,
AB,lag1,1,3,4,0.06933333338000003,0.0033379999999999955,0.3,ramp,,,,,0,14,14,14,,,,,,,bluejay.jpg,leafblower01.jpg,footballhelmet.jpg,beaver.jpg,turnstile.jpg,donut.jpg,baseballbat.jpg,platypus.jpg,elbow.jpg,volleyball.jpg,giraffe.jpg,barrel01.jpg,lighthouse.jpg,locker.jpg,coffeemaker.jpg,frisbee.jpg,spicerack.jpg,,,,,0,0,6,,,,,.\resources\beaver.jpg,,,1,,,,,,,,,1,,,,,,,,,None,285.44807623000025,None,285.44807623000025,None,,,,,,,280.34845810000024,283.0982915999998,282.8316476,None,0.06933333338000003,0.07803660000035961,0.09476429999995162,0.1447520000001532,0.16138279999995575,0.2280260000002272,0.24474559999998746,0.29473959999995714,0.31135770000037155,0.3613941000003251,0.3780203999999685,0.4447328999999627,0.4613877000001594,0.51134170000023,0.5280660000003081,,,,,,,,,,,,,,,283.3482847999999,None,283.3482847999999,None,283.8815946999998,None,283.8815946999998,None,right,1.2685943000001316,283.8815946999998,None,285.1981707,None,right,0.2241251000000375,285.1981707,None,285.1981707,None,-8.988664706584762,150.093179086643,,,,12,001,2021_Apr_09_1054,AB_pic_singleT2,2021.1.2,59.99746810682909,
AB,lag6,6,5,11,0.06000000005000003,0,0.3,main,,,,,0,15,15,15,,,,,,,horse.jpg,bench01.jpg,turnstile.jpg,parachute.jpg,eiffeltower.jpg,spicerack.jpg,trumpet.jpg,fishskeleton.jpg,cow.jpg,slug.jpg,lip.jpg,kiwi03.jpg,steeringwheel.jpg,boat.jpg,makiroll.jpg,snowshovel.jpg,birdfeeder.jpg,,,,,0,1,13,,,,,.\resources\lip.jpg,,,1,,,,,,,,,1,,,,,,,,,None,292.06434672999995,None,292.06434672999995,None,,,,,,,285.4648219999999,288.21465609999996,287.94800140000007,None,0.06227281405142828,0.07878329999994094,0.09540060000017547,0.12872620000007373,0.14540119999992385,0.19539029999987179,0.21205419999978403,0.26205509999999776,0.2787231000002066,0.312051700000211,0.328740999999809,0.3787750000001324,0.3953842999999324,0.44539720000011584,0.4620420000001104,0.512041500000123,0.5289096000001337,0.5620471000001999,0.578704800000196,0.6286831000002167,0.6453526000000238,0.6953769000001557,0.7120614999998907,0.7620117000001301,0.7787592999998196,0.8120048000000679,0.8287491000000955,0.8786854999998468,0.8953511999998227,288.4479789000002,None,288.4479789000002,None,289.36459130000003,None,289.36459130000003,None,right,1.8176644000000124,289.36459130000003,None,291.2144804999998,None,left,0.8318282999998701,291.2144804999998,None,291.2144804999998,None,-7.998886478883544,150.16660477655245,,,,12,001,2021_Apr_09_1054,AB_pic_singleT2,2021.1.2,59.99746810682909,
AB,lag1,1,5,6,0.06000000005000003,0,0.3,main,,,,,0,16,16,16,,,,,,,greathornowl.jpg,beaver.jpg,cobra.jpg,pooltable.jpg,pig.jpg,licenseplate.jpg,musicsheet.jpg,hammerheadshark.jpg,bluejay.jpg,accordion01.jpg,mrpotatohead.jpg,dalmatian.jpg,pirateflag.jpg,toolbox02.jpg,lion.jpg,seagull.jpg,crab01.jpg,,,,,0,0,8,,,,,.\resources\licenseplate.jpg,,,1,,,,,,,,,0,,,,,,,,,None,300.21424263,None,300.21424263,None,,,,,,,292.0810927000002,294.83093229999986,294.5643283999998,None,0.053584228995097585,0.06145169999990685,0.07804940000005445,0.11138070000015432,0.1280424999999923,0.16137269999990167,0.17804200000000492,0.22804439999981696,0.2447029999998449,0.27809819999993124,0.29469879999987825,0.32809150000002774,0.3446951999999328,0.37808700000005047,0.3947053000001688,0.44469200000003184,0.4614258999999947,0.494688700000097,0.5114081000001534,,,,,,,,,,,295.08092320000014,None,295.08092320000014,None,295.5975532000002,None,295.5975532000002,None,right,2.448616899999706,295.5975532000002,None,298.0640693,None,left,2.118297099999836,298.0640693,None,298.0640693,None,-6.97297637048571,150.23779647164744,,,,12,001,2021_Apr_09_1054,AB_pic_singleT2,2021.1.2,59.99746810682909,
AB,lag5,5,3,8,0.06000000005000003,0,0.3,main,,,,,0,17,17,17,,,,,,,vulture.jpg,guitarcase.jpg,barrel01.jpg,ear.jpg,exitsign.jpg,coffeemaker.jpg,vacuumcleaner01.jpg,worldmap.jpg,leafblower01.jpg,frisbee.jpg,magneticcompass.jpg,parachute.jpg,dartboard.jpg,locker.jpg,zipper.jpg,fishskeleton.jpg,skunk.jpg,,,,,0,1,10,,,,,.\resources\worldmap.jpg,,,1,,,,,,,,,1,,,,,,,,,None,308.6138708300003,None,308.6138708300003,None,,,,,,,300.23099550000006,302.9804763000002,302.71382410000024,None,0.049969724161261005,0.06103250000023763,0.07775859999992463,0.11102580000033413,0.12775409999994736,0.16102649999993446,0.1777541999999812,0.21102539999992587,0.22774130000016157,0.2610250000002452,0.2776857000003474,0.3110151999999289,0.327733999999964,0.36101730000018506,0.3776789000003191,0.41100630000028104,0.42774290000033943,0.46100490000026184,0.47772630000008576,0.5110030000000734,0.5277350000001206,0.5610031999999592,0.5776638000002094,,,,,,,303.23051350000014,None,303.23051350000014,None,303.81381169999986,None,303.81381169999986,None,right,1.7444307000000663,303.81381169999986,None,305.6141527,None,left,2.952105400000164,305.6141527,None,305.6141527,None,-5.924371328973,150.30735531939894,,,,12,001,2021_Apr_09_1054,AB_pic_singleT2,2021.1.2,59.99746810682909,
AB,lag3,3,4,7,0.06000000005000003,0,0.3,main,,,,,0,18,18,18,,,,,,,ironingboard01.jpg,porcupine.jpg,bench01.jpg,chainsaw.jpg,magneticcompass.jpg,flag.jpg,coffeemaker.jpg,honeybee.jpg,moon.jpg,curtain.jpg,statue.jpg,arrow02.jpg,saxophone.jpg,christmastree.jpg,tortoise01.jpg,kiwi03.jpg,rubikcube.jpg,,,,,0,1,9,,,,,.\resources\coffeemaker.jpg,,,1,,,,,,,,,1,,,,,,,,,None,316.23007743,None,316.23007743,None,,,,,,,308.63067569999976,311.3800607999997,311.1133721000001,None,0.0417494566205586,0.04563080000025366,0.062292900000102236,0.09563820000039414,0.11229129999992438,0.12901239999973768,0.145636100000047,0.179004999999961,0.19563240000024962,0.21228320000045642,0.22894720000022062,0.26228059999994,0.2789991999998165,0.29563950000010664,0.3122780000003331,0.34564380000028905,0.3622766999997111,0.3790065000002869,0.3956272000004901,0.4292401000002428,0.4457234999999855,,,,,,,,,311.6300176999998,None,311.6300176999998,None,312.0799844999997,None,312.0799844999997,None,right,1.670134500000131,312.0799844999997,None,313.7965502000002,None,left,2.3937652000004164,313.7965502000002,None,313.7965502000002,None,-5.204954407366163,150.365794559326,,,,12,001,2021_Apr_09_1054,AB_pic_singleT2,2021.1.2,59.99746810682909,
AB,lag2,2,5,7,0.06000000005000003,0,0.3,main,,,,,0,19,19,19,,,,,,,christmaslights.jpg,parkfountain.jpg,toucan.jpg,ipad02.jpg,nosmokingsign.jpg,hotdogweiner.jpg,wheelbarrow01.jpg,cow.jpg,worldmap.jpg,flag.jpg,rubikcube.jpg,englishcucumber.jpg,crown.jpg,rooster.jpg,bluecheese.jpg,polarbear.jpg,spiderweb.jpg,,,,,0,0,9,,,,,.\resources\wheelbarrow01.jpg,,,1,,,,,,,,,1,,,,,,,,,None,323.69632523,None,323.69632523,None,,,,,,,316.24685629999976,318.9962395999996,318.7296210999998,None,0.037619695832791025,0.04432410000026721,0.06105470000056812,0.07767260000036913,0.09431950000089273,0.12765030000082334,0.14432180000039807,0.16103360000033717,0.17767000000003463,0.1943187000006219,0.21097740000004706,0.22764510000070004,0.24430970000048546,0.2776941000001898,0.2943087000003288,0.31103020000045944,0.3276527000007263,0.34430410000004485,0.3610253000006196,0.3776603000005707,0.39430090000041673,,,,,,,,,319.2462297999996,None,319.2462297999996,None,319.6462104999996,None,319.6462104999996,None,right,1.0240988999994443,319.6462104999996,None,320.72947429999977,None,right,2.9487178999997923,320.72947429999977,None,320.72947429999977,None,-4.555859898733499,150.43082446483098,,,,12,001,2021_Apr_09_1054,AB_pic_singleT2,2021.1.2,59.99746810682909,
AB,lag4,4,3,7,0.06000000005000003,0,0.3,main,,,,,0,20,20,20,,,,,,,fingerprint.jpg,mummy.jpg,volleyball.jpg,funnel.jpg,giraffe.jpg,hotdogweiner.jpg,xylophone.jpg,statue.jpg,safe.jpg,wheelchair.jpg,dalmatian.jpg,slug.jpg,candycane01a.jpg,elbow.jpg,ipad02.jpg,callbell.jpg,swordfish.jpg,,,,,0,0,9,,,,,.\resources\xylophone.jpg,,,1,,,,,,,,,0,,,,,,,,,None,329.2626622300002,None,329.2626622300002,None,,,,,,,323.71306289999984,326.46247019999964,326.19580950000045,None,0.03380227056753126,0.04339590000017779,0.05999049999991257,0.07667700000001787,0.09334099999978207,0.11003330000039568,0.12666660000013508,0.14333950000036566,0.16006220000053872,0.17666150000059133,0.19337540000014997,0.2100482000005286,0.2266658999997162,0.24332849999973405,0.2600430000002234,0.27666490000046906,0.29332220000014786,0.310045799999898,0.3266628999999739,0.3433301000004576,0.3599905999999464,,,,,,,,,326.7124576000001,None,326.7124576000001,None,327.07910109999966,None,327.07910109999966,None,right,1.0869910999999775,327.07910109999966,None,328.2123581000001,None,left,1.0336911000003965,328.2123581000001,None,328.2123581000001,None,-4.121935445013846,150.50032308000502,,,,12,001,2021_Apr_09_1054,AB_pic_singleT2,2021.1.2,59.99746810682909,
AB,lag7,7,5,12,0.06000000005000003,0,0.3,main,,,,,0,21,21,21,,,,,,,kneepad01c.jpg,chimney.jpg,motorcycle.jpg,jackrabbit.jpg,marble.jpg,cigar.jpg,cheetah.jpg,car.jpg,donut.jpg,moon.jpg,bat.jpg,parkingmeter.jpg,vulture.jpg,tulip02.jpg,football.jpg,sheep.jpg,hammerheadshark.jpg,,,,,0,0,14,,,,,.\resources\parkingmeter.jpg,,,1,,,,,,,,,1,,,,,,,,,None,334.1290097299996,None,334.1290097299996,None,,,,,,,329.2794577999998,332.0292321000002,331.7625903000003,None,0.029839751157026525,0.0329146000003675,0.0495731999999407,0.0665171000000555,0.09956690000035451,0.11623130000043602,0.1329029000007722,0.14957159999994474,0.1662426000002597,0.1828936000001704,0.19956330000059097,0.2162281000000803,0.23288709999997081,0.2495788000005632,0.2662281000002622,0.2828858000002583,0.29955950000021403,0.3162191999999777,0.3328863000006095,0.3495537000007971,0.36620829999992566,0.38283550000051036,0.3995001000002958,0.4162283000005118,0.4328358000002481,0.4494979000000967,0.4661677000003692,0.4828265000005558,0.4994921000006798,332.2788193000001,None,332.2788193000001,None,332.82914910000045,None,332.82914910000045,None,right,0.9129161999999269,332.82914910000045,None,333.7791052999996,None,right,0.3229911999997057,333.7791052999996,None,333.7791052999996,None,-3.800995682277921,150.57376779536204,0.5161600000001272,0.5329019000000699,,12,001,2021_Apr_09_1054,AB_pic_singleT2,2021.1.2,59.99746810682909,
AB,lag6,6,5,11,0.06000000005000003,0,0.3,main,,,,,0,22,22,22,,,,,,,chair.jpg,steeringwheel.jpg,dragonfly01.jpg,wheelchair.jpg,cannon.jpg,tree.jpg,xylophone.jpg,cymbal.jpg,panda.jpg,bat.jpg,basketball01.jpg,vulture.jpg,mouse.jpg,hand01b.jpg,bluejay.jpg,barrel01.jpg,bullet.jpg,,,,,1,1,13,,,,,.\resources\basketball01.jpg,,,1,,,,,,,,,1,,,,,,,,,None,340.1283829299999,None,340.1283829299999,None,,,,,,,334.1457511000003,336.8951536999998,336.62854560000005,None,0.029571077564442886,0.044540199999573815,0.06120149999969726,0.07794190000004164,0.09453739999935351,0.11120320000009087,0.12793849999980011,0.1445640000001731,0.16121839999959775,0.17794489999960206,0.1945492999993803,0.21126399999957357,0.22795769999993354,0.24456719999943743,0.2612177999999403,0.277936999999838,0.29454789999999775,0.3112153000001854,0.3278763999996954,0.3445642999995471,0.3612057000000277,0.3779280999997354,0.39454209999985324,0.41120909999972355,0.42792929999995977,0.44453340000018216,0.4612013999994815,0.4779174999994211,0.49453189999985625,337.14516520000006,None,337.14516520000006,None,337.64511449999964,None,337.64511449999964,None,left,2.2489479000005304,337.64511449999964,None,339.9116089000004,None,left,0.19049489999997604,339.9116089000004,None,339.9116089000004,None,-3.514773484697954,150.66798202012808,,,,12,001,2021_Apr_09_1054,AB_pic_singleT2,2021.1.2,59.99746810682909,
AB,lag7,7,5,12,0.06000000005000003,0,0.3,main,,,,,0,23,23,23,,,,,,,porcupine.jpg,sledgehammer.jpg,bed.jpg,spicerack.jpg,tennisracket.jpg,parachute.jpg,squirrel.jpg,squid.jpg,crown.jpg,doghouse.jpg,redfox.jpg,bathtub.jpg,cruiseship.jpg,snowman.jpg,escalator.jpg,mrpotatohead.jpg,leafblower01.jpg,,,,,0,0,14,,,,,.\resources\bathtub.jpg,,,1,,,,,,,,,0,,,,,,,,,None,345.77824692999985,None,345.77824692999985,None,,,,,,,340.14495560000023,342.89477020000004,342.6281646000002,None,0.028005453081377644,0.028461099999731232,0.04508410000016738,0.061753699999826495,0.07848419999936596,0.09508300000015879,0.11174059999939345,0.12848249999933614,0.14509600000019418,0.16176240000004327,0.17848369999956049,0.19509029999971972,0.2117523999995683,0.22848470000008092,0.24508789999981673,0.26175139999941166,0.2784741999994367,0.29508720000012545,0.31175159999929747,0.3284096999996109,0.3450793000001795,0.3617445999998381,0.37840999999934866,0.395075899999938,0.4117464999999356,0.42846989999998186,0.4450812999994014,0.46173839999937627,0.47846130000016274,343.1447764999998,None,343.1447764999998,None,343.6613940000002,None,343.6613940000002,None,right,0.7847720999998273,343.6613940000002,None,344.4780088000002,None,left,1.2562142000006133,344.4780088000002,None,344.4780088000002,None,-3.3332457782448723,150.77234726163786,0.4950732999996035,0.5117332999998325,,12,001,2021_Apr_09_1054,AB_pic_singleT2,2021.1.2,59.99746810682909,
AB,lag5,5,3,8,0.06000000005000003,0,0.3,main,,,,,0,24,24,24,,,,,,,cloud.jpg,fishskeleton.jpg,bowtie.jpg,tent.jpg,greatwhiteshark.jpg,pig.jpg,musicsheet.jpg,birdfeeder.jpg,punchingbag.jpg,sausage.jpg,christmaslights.jpg,hand01b.jpg,wallclock.jpg,greywolf.jpg,surfboard.jpg,cork02.jpg,pingpongtable.jpg,,,,,1,0,10,,,,,.\resources\birdfeeder.jpg,,,0,,,,,,,,,1,,,,,,,,,None,350.84421323000043,None,350.84421323000043,None,,,,,,,345.7950225999998,348.5444744000001,348.27778480000006,None,0.03195350955066332,0.04540720000022702,0.062049000000115484,0.07877650000045833,0.09537270000055287,0.11204520000046614,0.12871090000044205,0.14537790000031237,0.1620493999998871,0.1787051999999676,0.19537570000011328,0.21207800000047428,0.2287056000004668,0.24537270000018907,0.26203830000031303,0.2787248000004183,0.29536689999986265,0.31203090000053635,0.32870100000036473,0.3454365000006874,0.362087700000302,0.3787668000004487,0.3953590000000986,,,,,,,348.7944284,None,348.7944284,None,349.1944165,None,349.1944165,None,right,1.2276156999996601,349.1944165,None,350.4609882999998,None,right,0.35305200000038894,350.4609882999998,None,350.4609882999998,None,-3.1808371071613037,150.88725172373924,,,,12,001,2021_Apr_09_1054,AB_pic_singleT2,2021.1.2,59.99746810682909,
AB,lag3,3,3,6,0.06000000005000003,0,0.3,main,,,,,0,25,25,25,,,,,,,ducttape.jpg,chair.jpg,bluecheese.jpg,squirrel.jpg,acousticguitar02.jpg,dreamcatcher.jpg,peacock.jpg,panda.jpg,hockeystick.jpg,eyepatch.jpg,mummy.jpg,rollerblade.jpg,popcorn.jpg,tricycle.jpg,tree.jpg,bluejay.jpg,chefshat.jpg,,,,,1,0,8,,,,,.\resources\dreamcatcher.jpg,,,0,,,,,,,,,1,,,,,,,,,None,355.49397673000004,None,355.49397673000004,None,,,,,,,350.86096640000005,353.61085539999976,353.3608714999996,None,0.03248629996119499,0.03257850000045437,0.049215600000025006,0.06588019999981043,0.08254660000056901,0.09922009999991133,0.11588639999990846,0.1325409999999465,0.1492084999999861,0.16587330000038492,0.1825408000004245,0.19921229999999923,0.21586999999999534,0.23253629999999248,0.2492669000002934,0.2658655000004728,0.28280330000052345,0.2993153000006714,0.31588079999983165,,,,,,,,,,,353.8775045999996,None,353.8775045999996,None,354.1941447000004,None,354.1941447000004,None,right,1.0998641999995016,354.1941447000004,None,355.3274134999997,None,right,0.12665230000038719,355.3274134999997,None,355.3274134999997,None,-3.6622163500233285,150.94754747837655,,,,12,001,2021_Apr_09_1054,AB_pic_singleT2,2021.1.2,59.99746810682909,
AB,lag2,2,3,5,0.06000000005000003,0,0.3,main,,,,,0,26,26,26,,,,,,,frisbee.jpg,electricguitar01.jpg,hulahoop.jpg,saxophone.jpg,airhockeytable.jpg,alligator.jpg,firehydrant.jpg,porcupine.jpg,bed.jpg,seal.jpg,athleticsock.jpg,jeans01.jpg,hammerheadshark.jpg,showerhead01.jpg,birdfeeder.jpg,honeybee.jpg,makiroll.jpg,,,,,1,0,7,,,,,.\resources\airhockeytable.jpg,,,1,,,,,,,,,1,,,,,,,,,None,360.47748442999983,None,360.47748442999983,None,,,,,,,355.5107489999996,358.2776805999997,358.01105099999995,None,0.037793104025733916,0.04952470000080211,0.0661965000008422,0.0828923000008217,0.11619720000089728,0.13286080000034417,0.14952510000057373,0.16619270000046527,0.18288470000061352,0.19914370000060444,0.21573700000044482,0.23285260000011476,0.24952640000083193,0.266189600000871,0.28284870000061346,0.31631390000075044,0.33284810000077414,,,,,,,,,,,,,358.5110016000003,None,358.5110016000003,None,358.86101050000025,None,358.86101050000025,None,left,1.3930733000006512,358.86101050000025,None,360.2942551000001,None,right,0.1519666000003781,360.2942551000001,None,360.2942551000001,None,-4.058187160906847,150.97968163813238,,,,12,001,2021_Apr_09_1054,AB_pic_singleT2,2021.1.2,59.99746810682909,
AB,lag1,1,5,6,0.06000000005000003,0,0.3,main,,,,,0,27,27,27,,,,,,,sledgehammer.jpg,skateboard.jpg,sandcastle.jpg,seal.jpg,moose.jpg,bowtie.jpg,triangle.jpg,hulahoop.jpg,stubbywrench01a.jpg,boat.jpg,snowshovel.jpg,jeans01.jpg,tree.jpg,urinal.jpg,porcupine.jpg,birthdaycandle.jpg,nosmokingsign.jpg,,,,,0,0,8,,,,,.\resources\bowtie.jpg,,,1,,,,,,,,,0,,,,,,,,,None,365.89340772999986,None,365.89340772999986,None,,,,,,,360.4942414000002,363.2436335999996,362.9769836999999,None,0.039213214909820056,0.04434850000052393,0.06104150000010122,0.09434970000074827,0.11108130000047822,0.1277301999998599,0.14439210000000458,0.16106430000036198,0.1776773999999932,0.2110117000001992,0.22767120000025898,0.24434310000015103,0.2610048000005918,0.2776714000001448,0.29433370000060677,0.3276740000001155,0.3443458000001556,0.3609976000007009,0.37766629999987344,,,,,,,,,,,363.49362659999997,None,363.49362659999997,None,363.8769534999997,None,363.8769534999997,None,right,1.441046500000084,363.8769534999997,None,365.3773163999999,None,left,0.49270720000004076,365.3773163999999,None,365.3773163999999,None,-3.9946536409074134,151.03426318392192,,,,12,001,2021_Apr_09_1054,AB_pic_singleT2,2021.1.2,59.99746810682909,
AB,lag4,4,5,9,0.06000000005000003,0,0.3,main,,,,,0,28,28,28,,,,,,,acousticguitar02.jpg,totempole.jpg,parachute.jpg,cross01.jpg,snowshovel.jpg,penguin.jpg,schoolbus.jpg,donut.jpg,rooster.jpg,nose.jpg,locker.jpg,tank.jpg,brownsugar.jpg,leafrake.jpg,sandcastle.jpg,sink.jpg,pirateflag.jpg,,,,,0,0,11,,,,,.\resources\rooster.jpg,,,0,,,,,,,,,1,,,,,,,,,None,371.0597476299998,None,371.0597476299998,None,,,,,,,365.9106157000001,368.6599911999997,368.39334329999974,None,0.03433940670264514,0.04406790000030014,0.06071030000020983,0.07736459999978251,0.09399459999985993,0.11065570000027947,0.12732500000038272,0.14399609999964014,0.16065419999995356,0.17732150000028923,0.19398900000032882,0.21064930000011373,0.22732679999990069,0.24397479999970528,0.26066480000008596,0.2773114000001442,0.2941859000002296,0.31066069999997126,0.3273121000001993,0.3440587000004598,0.36070440000003146,0.3940143999998327,0.41067279999970197,0.4273180999998658,0.4440034999997806,,,,,368.9099824,None,368.9099824,None,369.36001480000004,None,369.36001480000004,None,left,1.5100917999998273,369.36001480000004,None,370.90987189999987,None,right,0.1202447999994547,370.90987189999987,None,370.90987189999987,None,-3.9490623121862405,151.0932642191618,,,,12,001,2021_Apr_09_1054,AB_pic_singleT2,2021.1.2,59.99746810682909,
AB,lag3,3,4,7,0.06000000005000003,0,0.3,main,,,,,0,29,29,29,,,,,,,fishskeleton.jpg,tie02.jpg,rose.jpg,grizzly.jpg,rollerblade.jpg,raccoon.jpg,tent.jpg,punchingbag.jpg,squirrel.jpg,mouse.jpg,leafblower01.jpg,hockeystick.jpg,calendar.jpg,duck01.jpg,uprightpiano01.jpg,jeep.jpg,greywolf.jpg,,,,,1,0,9,,,,,.\resources\tent.jpg,,,1,,,,,,,,,1,,,,,,,,,None,377.50984452999984,None,377.50984452999984,None,,,,,,,371.07653379999965,373.8263777999996,373.5596969000003,None,0.03575511831072536,0.04440169999998034,0.06103090000033262,0.07774789999984932,0.09444679999978689,0.11102980000032403,0.12775179999971442,0.14456169999994017,0.16108470000017405,0.19436420000056387,0.2110208000003695,0.22768970000015543,0.24436969999987923,0.26101660000040283,0.2776875999998083,0.2943549999999959,0.3110100000003513,0.3277235000005021,0.34437870000056137,0.3611001999997825,0.37768490000053134,,,,,,,,,374.0763562999996,None,374.0763562999996,None,374.4596641000003,None,374.4596641000003,None,left,2.850318800000423,374.4596641000003,None,377.3599194000003,None,right,0.11012720000053378,377.3599194000003,None,377.3599194000003,None,-4.26041460783134,151.12570182973695,,,,12,001,2021_Apr_09_1054,AB_pic_singleT2,2021.1.2,59.99746810682909,
AB,lag1,1,4,5,0.06000000005000003,0,0.3,main,,,,,0,30,30,30,,,,,,,sword01.jpg,bullet.jpg,foldingchair.jpg,safe.jpg,birdnest.jpg,ironingboard01.jpg,dartboard.jpg,handcuffs.jpg,eiffeltower.jpg,scooter.jpg,crosscountryski.jpg,showerhead01.jpg,cat.jpg,nosmokingsign.jpg,mailbox02.jpg,beerbottle.jpg,jeans01.jpg,,,,,0,0,7,,,,,.\resources\birdnest.jpg,,,1,,,,,,,,,1,,,,,,,,,None,384.89276433000015,None,384.89276433000015,None,,,,,,,377.52660140000035,380.2759768000001,380.00932630000034,None,0.033458615143255155,0.0440361999999368,0.06069549999938317,0.07745329999943351,0.09401969999998983,0.1107241999998223,0.12735849999990023,0.14403179999953863,0.160698699999557,0.17735479999919335,0.19406469999921683,0.21068729999933566,0.2273723999996946,0.24401449999913893,0.260751299999356,0.2773429999997461,0.294059599999855,,,,,,,,,,,,,380.5259737000001,None,380.5259737000001,None,380.82596650000005,None,380.82596650000005,None,right,3.932039000000259,380.82596650000005,None,384.8095011999999,None,right,0.05249220000041532,384.8095011999999,None,384.8095011999999,None,-4.180404652236873,151.17380511358618,,,,12,001,2021_Apr_09_1054,AB_pic_singleT2,2021.1.2,59.99746810682909,
AB,lag4,4,5,9,0.06000000005000003,0,0.3,main,,,,,0,31,31,31,,,,,,,surfboard.jpg,licenseplate.jpg,zebra.jpg,crosscountryski.jpg,crab01.jpg,windshieldwiper02.jpg,toucan.jpg,tent.jpg,chair.jpg,funnel.jpg,icecube02.jpg,polarbear.jpg,saltshaker03a.jpg,schoolbus.jpg,ipad02.jpg,jellyfish.jpg,spiderweb.jpg,,,,,0,1,11,,,,,.\resources\chair.jpg,,,0,,,,,,,,,1,,,,,,,,,None,389.4586681299996,None,389.4586681299996,None,,,,,,,384.90950010000006,387.65884609999966,387.39219189999994,None,0.03169287928682055,0.04458569999951578,0.06125629999951343,0.07792069999959494,0.09459309999965626,0.11128899999948771,0.12791239999933168,0.14461099999971339,0.16127059999962512,0.17794559999947523,0.19457329999931972,0.211272800000188,0.2279315999994651,0.24463459999969928,0.26127829999950336,0.2779187999994974,0.29458379999960016,0.31123959999968065,0.32790839999961463,0.34478069999931904,0.36123789999965084,0.3779129999993529,0.39461429999937536,0.4112728000000061,0.42794640000010986,,,,,387.9088440999999,None,387.9088440999999,None,388.3421827999996,None,388.3421827999996,None,left,0.9197663999993893,388.3421827999996,None,389.3254694000002,None,left,0.1126367000006212,389.3254694000002,None,389.3254694000002,None,-4.088133717184578,151.2262928246543,,,,12,001,2021_Apr_09_1054,AB_pic_singleT2,2021.1.2,59.99746810682909,
AB,lag6,6,3,9,0.06000000005000003,0,0.3,main,,,,,0,32,32,32,,,,,,,bluejay.jpg,ducttape.jpg,squirrel.jpg,mouse.jpg,africanelephant.jpg,crown.jpg,tire.jpg,exitsign.jpg,leafrake.jpg,athleticsock.jpg,sledgehammer.jpg,cat.jpg,pingpongtable.jpg,zipper.jpg,rubikcube.jpg,hammerheadshark.jpg,kneepad01c.jpg,,,,,1,0,11,,,,,.\resources\leafrake.jpg,,,1,,,,,,,,,1,,,,,,,,,None,394.5917066299997,None,394.5917066299997,None,,,,,,,389.47547910000003,392.2254433000003,391.9586215000004,None,0.03721662998458477,0.044437200000174926,0.06108020000010583,0.07772500000010041,0.09440280000035273,0.12777029999961087,0.1443995999998151,0.16110109999954147,0.17773959999976796,0.19439630000033503,0.21106109999982436,0.2277235000001383,0.24438689999988128,0.2610674999996263,0.27774239999962447,0.3110426000002917,0.32773009999982605,0.34438909999971656,0.3610860999997385,0.3777146000002176,0.394412800000282,0.41107840000040596,0.42773099999976694,0.4610345999999481,0.47772530000020197,,,,,392.4752778999996,None,392.4752778999996,None,392.9585787000001,None,392.9585787000001,None,left,1.4477373999998235,392.9585787000001,None,394.44185140000036,None,right,0.12419140000019979,394.44185140000036,None,394.44185140000036,None,-4.300395325986747,151.2644814135608,,,,12,001,2021_Apr_09_1054,AB_pic_singleT2,2021.1.2,59.99746810682909,
AB,lag2,2,3,5,0.06000000005000003,0,0.3,main,,,,,0,33,33,33,,,,,,,toyanimal05.jpg,key07.jpg,athleticsock.jpg,windshieldwiper02.jpg,fingerprint.jpg,crown.jpg,butterfly.jpg,drumset.jpg,bacon.jpg,spiderweb.jpg,pingpongtable.jpg,curtain.jpg,ant.jpg,cobra.jpg,swing.jpg,beaver.jpg,pooltable.jpg,,,,,1,0,7,,,,,.\resources\fingerprint.jpg,,,1,,,,,,,,,1,,,,,,,,,None,399.3584776300002,None,399.3584776300002,None,,,,,,,394.6084814999999,397.3749571000003,397.0916086000002,None,0.03644017466878477,0.043781300000773626,0.061041100000693405,0.07712670000000799,0.09373880000021018,0.11084500000015396,0.12710500000048341,0.1604514000000563,0.17774370000006456,0.1937232000000222,0.21093760000076145,0.22704670000075566,0.2437606000003143,0.2603930000004766,0.27708500000062486,0.293712400000004,0.31039510000027803,,,,,,,,,,,,,397.60874470000044,None,397.60874470000044,None,397.92535369999996,None,397.92535369999996,None,left,1.2565952000004472,397.92535369999996,None,399.24175220000006,None,right,0.09220720000030269,399.24175220000006,None,399.24175220000006,None,-4.2453446631620215,151.31265111999983,,,,12,001,2021_Apr_09_1054,AB_pic_singleT2,2021.1.2,59.99746810682909,
AB,lag5,5,4,9,0.06000000005000003,0,0.3,main,,,,,0,34,34,34,,,,,,,frisbee.jpg,vacuumcleaner01.jpg,beerbottle.jpg,frenchfries.jpg,trophy01.jpg,hulahoop.jpg,calendar.jpg,tie02.jpg,ladybug03.jpg,cocktailshrimp02.jpg,hand01b.jpg,dalmatian.jpg,birthdaycandle.jpg,sledgehammer.jpg,waterfall.jpg,chair.jpg,shovel01.jpg,,,,,0,0,11,,,,,.\resources\ladybug03.jpg,,,0,,,,,,,,,1,,,,,,,,,None,403.90783232999985,None,403.90783232999985,None,,,,,,,399.37526469999966,402.1246906000001,401.85802829999966,None,0.03284482701390309,0.04404770000019198,0.060742300000129035,0.07738160000008065,0.09406729999955132,0.11074939999980415,0.12743829999999434,0.14408459999958723,0.16074769999977434,0.17737820000002102,0.1940839999997479,0.2107109999997192,0.22744669999974576,0.24406920000001264,0.2607256999999663,0.27738700000008976,0.2940251999998509,0.31068150000010064,0.32733209999969404,0.3440552000001844,0.3607001999998829,0.3773682999999437,0.3940450999998575,0.4107600999996066,0.4274120000000039,,,,,402.37468430000035,None,402.37468430000035,None,402.80798689999983,None,402.80798689999983,None,left,0.8939399999999296,402.80798689999983,None,403.7412608999998,None,right,0.14473679999991873,403.7412608999998,None,403.7412608999998,None,-4.190048092048895,151.36640235043103,,,,12,001,2021_Apr_09_1054,AB_pic_singleT2,2021.1.2,59.99746810682909,
AB,lag7,7,5,12,0.06000000005000003,0,0.3,main,,,,,0,35,35,35,,,,,,,spiderweb.jpg,hotdogweiner.jpg,mailbox02.jpg,drumset.jpg,cymbal.jpg,stubbywrench01a.jpg,birdnest.jpg,squid.jpg,sink.jpg,waterfountain02.jpg,crosscountryski.jpg,bull.jpg,fishskeleton.jpg,chainsaw.jpg,snowshoe.jpg,chefshat.jpg,scooter.jpg,,,,,0,0,14,,,,,.\resources\bull.jpg,,,1,,,,,,,,,1,,,,,,,,,None,408.5245892299998,None,408.5245892299998,None,,,,,,,403.92459780000036,406.70821529999967,406.40776289999985,None,0.035138117912603024,0.04432970000016212,0.060940999999729684,0.07832969999981287,0.0942918999999165,0.11095320000003994,0.12759550000009767,0.1442735000000539,0.1609256000001551,0.17760199999975157,0.1943546000002243,0.21132930000021588,0.22803279999970982,0.2613251000002492,0.27798340000026656,0.2947218999997858,0.31131749999985914,0.3279875999996875,0.3446622000001298,0.36131159999968077,0.37802130000000034,0.3946349999996528,0.41133069999978034,0.42797739999969053,0.44464289999996254,0.46133519999966666,0.47798359999978857,0.49463680000008026,0.5113171000002694,406.9248610999998,None,406.9248610999998,None,407.47478100000035,None,407.47478100000035,None,right,0.859175900000082,407.47478100000035,None,408.37469629999987,None,right,0.12731189999976777,408.37469629999987,None,408.37469629999987,None,-4.371175294703747,151.4035052868434,0.5279749999999694,0.5446272999997746,,12,001,2021_Apr_09_1054,AB_pic_singleT2,2021.1.2,59.99746810682909,
AB,lag5,5,5,10,0.06000000005000003,0,0.3,main,,,,,0,36,36,36,,,,,,,sausage.jpg,sledgehammer.jpg,lighthouse.jpg,porcupine.jpg,exitsign.jpg,windshieldwiper02.jpg,pingpongtable.jpg,donut.jpg,noparkingsign.jpg,pooltable.jpg,bench01.jpg,mrpotatohead.jpg,waterfall.jpg,leafrake.jpg,dartboard.jpg,airhockeytable.jpg,microwave.jpg,,,,,0,0,12,,,,,.\resources\pooltable.jpg,,,1,,,,,,,,,1,,,,,,,,,None,412.94054063000004,None,412.94054063000004,None,,,,,,,408.54136340000014,411.2907645999999,411.02412799999956,None,0.0381725320186499,0.04471139999986917,0.06140199999936158,0.07820059999994555,0.09466939999947499,0.12807530000009137,0.1446349999996528,0.16130279999924824,0.1780875999993441,0.19421859999965818,0.21130379999976867,0.24466630000006262,0.26092199999948207,0.27796589999979915,0.2947056999992128,0.31087659999957395,0.3280434999996942,0.3447040000000925,0.36141609999958746,0.3946477999998024,0.41133609999997134,0.42755189999934373,0.44462599999951635,0.4613165000000663,0.47811449999971956,0.5112591999995857,0.5280173999999533,,,411.5412099,None,411.5412099,None,412.07451660000015,None,412.07451660000015,None,right,0.635524099999202,412.07451660000015,None,412.7577653000003,None,right,0.1521446000006108,412.7577653000003,None,412.7577653000003,None,-4.3084837244610705,151.45451171851587,,,,12,001,2021_Apr_09_1054,AB_pic_singleT2,2021.1.2,59.99746810682909,
AB,lag7,7,3,10,0.06000000005000003,0,0.3,main,,,,,0,37,37,37,,,,,,,crosscountryski.jpg,turnstile.jpg,shower.jpg,eyepatch.jpg,chainsaw.jpg,waterfall.jpg,flamingo.jpg,uprightpiano01.jpg,football.jpg,redfox.jpg,trampoline.jpg,baseballbat.jpg,paperairplane.jpg,spicerack.jpg,witchhat.jpg,banjo.jpg,swordfish.jpg,,,,,0,0,12,,,,,.\resources\redfox.jpg,,,1,,,,,,,,,1,,,,,,,,,None,417.2402998300002,None,417.2402998300002,None,,,,,,,412.9577506999999,415.70713579999983,415.44052320000037,None,0.033958544685918884,0.043460099999720114,0.060119599999779894,0.07677179999973305,0.09342729999934818,0.11009609999928216,0.12675909999961732,0.14342109999961394,0.1601290999997218,0.17673179999928834,0.19345160000011674,0.21017789999950764,0.2267824999998993,0.2434090999995533,0.26010369999949035,0.2768017999997028,0.2934152999996513,0.3100697999998374,0.32674450000013167,0.3434029999998529,0.3602635999995982,0.3767478999998275,0.3934185999996771,0.41009549999944284,0.42673029999969003,0.4433880999995381,0.46003299999938463,,,415.95716089999996,None,415.95716089999996,None,416.4238061000001,None,416.4238061000001,None,right,0.6141109999998662,416.4238061000001,None,417.0570458999996,None,right,0.1568864000000758,417.0570458999996,None,417.0570458999996,None,-4.269489570575647,151.5082504427454,,,,12,001,2021_Apr_09_1054,AB_pic_singleT2,2021.1.2,59.99746810682909,
AB,lag4,4,3,7,0.06000000005000003,0,0.3,main,,,,,0,38,38,38,,,,,,,parachute.jpg,africanelephant.jpg,duck01.jpg,toyanimal05.jpg,windshieldwiper02.jpg,musicsheet.jpg,cymbal.jpg,frenchfries.jpg,locker.jpg,zipper.jpg,tiger02.jpg,horseshoe.jpg,chimney.jpg,handcuffs.jpg,arrow02.jpg,giraffe.jpg,fishskeleton.jpg,,,,,1,0,9,,,,,.\resources\cymbal.jpg,,,1,,,,,,,,,1,,,,,,,,,None,427.38968473000006,None,427.38968473000006,None,,,,,,,417.2570461999999,420.00689509999984,419.7402328000003,None,0.034943705547607895,0.044043900000360736,0.06072390000008454,0.07753180000054272,0.09404840000024706,0.11072430000058375,0.12738489999992453,0.14401380000072095,0.16067580000071757,0.17734810000001744,0.19401190000007773,0.21065730000009353,0.2273408000000927,0.2606786000005741,0.27734010000040143,0.29401750000033644,0.31077000000004773,0.3273462000006475,0.343991200000346,0.3606556000004275,0.37733699999989767,,,,,,,,,420.2568790999999,None,420.2568790999999,None,420.64016180000044,None,420.64016180000044,None,left,3.5258232999995016,420.64016180000044,None,424.1899575000002,None,right,3.183950900000127,424.1899575000002,None,424.1899575000002,None,-4.207943769957476,151.56491477758613,,,,12,001,2021_Apr_09_1054,AB_pic_singleT2,2021.1.2,59.99746810682909,
AB,lag3,3,5,8,0.06000000005000003,0,0.3,main,,,,,0,39,39,39,,,,,,,corn02.jpg,butterfly.jpg,callbell.jpg,cupcake.jpg,parrot01.jpg,greywolf.jpg,mummy.jpg,tiger02.jpg,rubikcube.jpg,funnel.jpg,electricguitar01.jpg,africanelephant.jpg,firehydrant.jpg,stool01.jpg,pingpongtable.jpg,bumpercar.jpg,flamingo.jpg,,,,,1,0,10,,,,,.\resources\tiger02.jpg,,,1,,,,,,,,,1,,,,,,,,,None,431.80608893000027,None,431.80608893000027,None,,,,,,,427.40646700000025,430.15629130000025,429.88965789999975,None,0.032164710019759755,0.04357609999988199,0.06021039999995992,0.07686569999987114,0.09351969999988796,0.11018169999988459,0.12692250000054628,0.1435114000005342,0.16029440000056638,0.17685100000016973,0.1935113999998066,0.21016580000014073,0.22684140000001207,0.24357740000050399,0.26021880000007513,0.27689550000013696,0.29353770000034274,0.31016619999991235,0.32687369999985094,0.34349420000035025,0.36018479999984265,0.3768465000002834,0.3934854999997697,,,,,,,430.4062792,None,430.4062792,None,430.8062610000002,None,430.8062610000002,None,left,0.791710200000125,430.8062610000002,None,431.6228876,None,right,0.15904950000003737,431.6228876,None,431.6228876,None,-4.157769810253771,151.62373085700938,,,,12,001,2021_Apr_09_1054,AB_pic_singleT2,2021.1.2,59.99746810682909,
AB,lag2,2,4,6,0.06000000005000003,0,0.3,main,,,,,0,40,40,40,,,,,,,drumset.jpg,jackrabbit.jpg,cactus.jpg,coffeemaker.jpg,makiroll.jpg,bull.jpg,knee.jpg,giraffe.jpg,tree.jpg,sword01.jpg,doghouse.jpg,eye.jpg,eyepatch.jpg,saxophone.jpg,wheelchair.jpg,volleyball.jpg,toyanimal05.jpg,,,,,1,0,8,,,,,.\resources\bull.jpg,,,1,,,,,,,,,1,,,,,,,,,None,438.7556773300001,None,438.7556773300001,None,,,,,,,431.82286690000046,434.57269719999977,434.3060481999996,None,0.037666168298573235,0.04327910000029078,0.05993840000064665,0.07665510000060749,0.0933115000007092,0.1266499000003023,0.14328050000040093,0.15992590000041673,0.1767161000007036,0.19327660000089963,0.20996500000001106,0.2266060000001744,0.24329820000002655,0.27659640000001673,0.29326380000020436,0.30992370000058145,0.3266120000007504,0.34326250000049185,0.35995870000078867,,,,,,,,,,,434.82267360000014,None,434.82267360000014,None,435.1893259000003,None,435.1893259000003,None,left,3.3845233000001826,435.1893259000003,None,438.58910570000035,None,right,0.14480880000064644,438.58910570000035,None,438.58910570000035,None,-4.09360825197938,151.6844135135288,,,,12,001,2021_Apr_09_1054,AB_pic_singleT2,2021.1.2,59.99746810682909,
AB,lag1,1,4,5,0.06000000005000003,0,0.3,main,,,,,0,41,41,41,,,,,,,ladder.jpg,cashregister01.jpg,donut.jpg,marble.jpg,ceilingfan01.jpg,baseballbat.jpg,shower.jpg,holdfast.jpg,kangaroo.jpg,hockeypuck.jpg,banjo.jpg,spear02.jpg,pokerchips.jpg,ear.jpg,snowshovel.jpg,tricycle.jpg,sledgehammer.jpg,,,,,1,1,7,,,,,.\resources\ceilingfan01.jpg,,,1,,,,,,,,,1,,,,,,,,,None,443.27207443000026,None,443.27207443000026,None,,,,,,,438.77243959999987,441.5222828000001,441.25562430000036,None,0.04048340565532887,0.04360449999967386,0.06031749999965541,0.09366789999967295,0.11029919999964477,0.1269737000002351,0.1436292999997022,0.1769187999998394,0.19358960000045045,0.21024709999983315,0.2270293000001402,0.24360539999997854,0.2602742999997645,0.29358810000030644,0.31026029999975435,0.3269311000003654,0.3437137000000803,,,,,,,,,,,,,441.77229639999996,None,441.77229639999996,None,442.12228019999975,None,442.12228019999975,None,left,0.9476107000000411,442.12228019999975,None,443.0888474999997,None,left,0.1651412999999593,443.0888474999997,None,443.0888474999997,None,-4.064579666140423,151.74661125174217,,,,12,001,2021_Apr_09_1054,AB_pic_singleT2,2021.1.2,59.99746810682909,
AB,lag6,6,5,11,0.06000000005000003,0,0.3,main,,,,,0,42,42,42,,,,,,,schoolbus.jpg,acorn.jpg,cannon.jpg,bluejay.jpg,statue.jpg,pirateflag.jpg,zebra.jpg,bowtie.jpg,shovel01.jpg,jeans01.jpg,snowshovel.jpg,worldmap.jpg,lizard.jpg,candycane01a.jpg,lollipop04.jpg,englishcucumber.jpg,pig.jpg,,,,,0,0,13,,,,,.\resources\snowshovel.jpg,,,0,,,,,,,,,1,,,,,,,,,None,447.83849122999965,None,447.83849122999965,None,,,,,,,443.28884659999994,446.0386924999998,445.77203280000003,None,0.03610294621006626,0.04346650000024965,0.06014030000005732,0.07677890000013576,0.09358869999960007,0.11013699999966775,0.1268286000004082,0.16014809999978752,0.1767835999999079,0.1935315000000628,0.21011949999956414,0.22678220000034344,0.24347149999994144,0.26012530000025436,0.2768167000003814,0.29342869999982213,0.31010669999977836,0.32676939999964816,0.34342870000000403,0.3768051999995805,0.3935294000002614,0.41013070000008156,0.4268037000001641,0.443444599999566,0.4601730000003954,0.47678869999981544,0.4934425999999803,0.5100911999998061,0.5267819999999119,446.2886811000003,None,446.2886811000003,None,446.82201680000026,None,446.82201680000026,None,left,0.815955699999904,446.82201680000026,None,447.67191589999993,None,right,0.14205690000017057,447.67191589999993,None,447.67191589999993,None,-4.047221936042782,151.8106297547229,,,,12,001,2021_Apr_09_1054,AB_pic_singleT2,2021.1.2,59.99746810682909,
AB,lag5,5,5,10,0.06000000005000003,0,0.3,main,,,,,0,43,43,43,,,,,,,telescope.jpg,athleticsock.jpg,drumset.jpg,motorcycle.jpg,sink.jpg,daddylonglegs.jpg,horse.jpg,fingerprint.jpg,fishskeleton.jpg,dragonfly01.jpg,licenseplate.jpg,xylophone.jpg,saxophone.jpg,bench01.jpg,lion.jpg,rooster.jpg,bridge.jpg,,,,,0,0,12,,,,,.\resources\dragonfly01.jpg,,,0,,,,,,,,,1,,,,,,,,,None,452.8053226299997,None,452.8053226299997,None,,,,,,,447.8552499000002,450.60513649999984,450.3384622999997,None,0.037325809777907955,0.043204500000683765,0.05989030000000639,0.07662260000051901,0.09324600000036298,0.1265321999999287,0.14321910000035132,0.1599065000000337,0.17657130000043253,0.19319590000031894,0.20990570000049047,0.2265346000003774,0.2432131000005029,0.2765313999998398,0.29323610000028566,0.31030400000054215,0.3269638000001578,0.3436507000005804,0.3603689999999915,0.3769498999999996,0.3936315000000832,0.42703720000008616,0.44361920000028476,0.46033770000030927,0.47696690000066155,0.49364169999989826,0.5102751000003991,,,450.85557519999975,None,450.85557519999975,None,451.37221199999976,None,451.37221199999976,None,left,1.2576149000005898,451.37221199999976,None,452.6721007000001,None,right,0.11776969999937137,452.6721007000001,None,452.6721007000001,None,-4.207848683957384,151.85651849278065,,,,12,001,2021_Apr_09_1054,AB_pic_singleT2,2021.1.2,59.99746810682909,
AB,lag7,7,5,12,0.06000000005000003,0,0.3,main,,,,,0,44,44,44,,,,,,,platypus.jpg,skippingrope.jpg,anchor.jpg,dolphin01.jpg,chefshat.jpg,fridge.jpg,redfox.jpg,butterfly.jpg,toucan.jpg,tricycle.jpg,holdfast.jpg,squirrel.jpg,ironingboard01.jpg,humanskeleton.jpg,fishingrod.jpg,microwave.jpg,seagull.jpg,,,,,0,0,14,,,,,.\resources\squirrel.jpg,,,0,,,,,,,,,0,,,,,,,,,None,463.3209407299999,None,463.3209407299999,None,,,,,,,452.82209999999986,455.5886486000004,455.3220077000001,None,0.04071856578294403,0.049033899999813,0.06566759999986971,0.08278729999983625,0.09902019999935874,0.132873099999415,0.14901469999949768,0.16572109999924578,0.18233099999997648,0.2161127999997916,0.232763399999385,0.24946120000004157,0.26629349999984697,0.299429799999416,0.3161151999993308,0.3327205999994476,0.34939219999978377,0.3827296999997998,0.39937909999935073,0.4160627999999633,0.4327260000000024,0.4494980999998006,0.46607009999934235,0.4993853999994826,0.516049999999268,0.5327162999992652,0.5494062999996459,0.5827368000000206,0.5993688999997175,455.8386349999996,None,455.8386349999996,None,456.47188380000034,None,456.47188380000034,None,left,0.8539512000006653,456.47188380000034,None,457.3718636999997,None,left,5.922150899999906,457.3718636999997,None,457.3718636999997,None,-4.357138266251107,151.8886884996383,0.6160426999995252,0.6327125999996497,,12,001,2021_Apr_09_1054,AB_pic_singleT2,2021.1.2,59.99746810682909,
AB,lag3,3,4,7,0.06000000005000003,0,0.3,main,,,,,0,45,45,45,,,,,,,flamingo.jpg,peacock.jpg,basketball01.jpg,jeep.jpg,honeybee.jpg,alligator.jpg,bacon.jpg,grizzly.jpg,rose.jpg,cactus.jpg,englishcucumber.jpg,sheep.jpg,pigeon.jpg,fortunecookie.jpg,ceilingfan01.jpg,saxophone.jpg,crosscountryski.jpg,,,,,1,0,9,,,,,.\resources\bacon.jpg,,,1,,,,,,,,,1,,,,,,,,,None,468.3872904300004,None,468.3872904300004,None,,,,,,,463.3377095000001,466.10419630000024,465.8208762999998,None,0.037321875452038196,0.043245699999715725,0.059457299999849056,0.07648779999999533,0.09315040000001318,0.12641210000037972,0.14310980000027484,0.15984320000006846,0.17600899999979447,0.19309350000003178,0.20977659999971365,0.22646129999975528,0.24309510000057344,0.2765748000001622,0.2931967000004079,0.3097642000002452,0.32649339999989024,0.3426666000004843,0.3597391000002972,0.37641050000001997,0.39328199999999924,,,,,,,,,466.3380404000004,None,466.3380404000004,None,466.7379477999998,None,466.7379477999998,None,left,0.8919732999993357,466.7379477999998,None,467.6707779000003,None,right,0.6871762000000672,467.6707779000003,None,467.6707779000003,None,-4.505288583477525,151.90854467668908,,,,12,001,2021_Apr_09_1054,AB_pic_singleT2,2021.1.2,59.99746810682909,
AB,lag2,2,5,7,0.06000000005000003,0,0.3,main,,,,,0,46,46,46,,,,,,,alligator.jpg,cupcake.jpg,panda.jpg,acorn.jpg,bridge.jpg,snowboard.jpg,safe.jpg,sheep.jpg,rose.jpg,eyepatch.jpg,scorpion.jpg,lizard.jpg,lightswitch01.jpg,barrel01.jpg,icecube02.jpg,helicopter.jpg,jeep.jpg,,,,,0,0,9,,,,,.\resources\safe.jpg,,,1,,,,,,,,,1,,,,,,,,,None,473.08701792999983,None,473.08701792999983,None,,,,,,,468.4040547999998,471.15384159999985,470.88723059999984,None,0.04336847857704693,0.043711700000130804,0.06034129999989091,0.09369320000041625,0.1103718000003937,0.14369760000045062,0.16034430000036082,0.17701910000050702,0.19367180000062945,0.22711070000059408,0.24372540000058507,0.260351100000662,0.2770221999999194,0.31035240000073827,0.32700040000054287,0.3604081000003134,0.3769900000006601,0.3936633000002985,0.4103365000000849,0.443744200000765,0.46031220000077155,,,,,,,,,471.40428569999995,None,471.40428569999995,None,471.8708922999999,None,471.8708922999999,None,right,1.0150462999999945,471.8708922999999,None,472.90376700000024,None,right,0.15805230000023585,472.90376700000024,None,472.90376700000024,None,-4.469616863722091,151.93795306330674,,,,12,001,2021_Apr_09_1054,AB_pic_singleT2,2021.1.2,59.99746810682909,
AB,lag6,6,5,11,0.06000000005000003,0,0.3,main,,,,,0,47,47,47,,,,,,,hulahoop.jpg,dartboard.jpg,sword01.jpg,kneepad01c.jpg,urinal.jpg,spear02.jpg,hand01b.jpg,waterfall.jpg,cobra.jpg,tent.jpg,birdnest.jpg,icecube02.jpg,doghouse.jpg,fireplace.jpg,panda.jpg,birthdaycandle.jpg,honeybee.jpg,,,,,0,1,13,,,,,.\resources\birdnest.jpg,,,1,,,,,,,,,1,,,,,,,,,None,479.55328343,None,479.55328343,None,,,,,,,473.10378249999985,475.8535717999998,475.58694179999975,None,0.043433620703828286,0.04361259999950562,0.060595500000090396,0.09388719999969908,0.11055579999992915,0.14391909999994823,0.16056409999964671,0.17731559999992896,0.1939710999995441,0.22726049999982934,0.2440086999995401,0.27723429999969085,0.29389399999945454,0.3106000999996468,0.32722279999961756,0.3606566999997085,0.3773607999992237,0.39390129999992496,0.4105426999994961,0.4438700000000608,0.46054129999993165,0.49387879999994766,0.5105588999995234,0.5272533999996085,0.5439337999996496,0.577232699999513,0.5940006000000722,0.6105164000000514,0.6272018999998181,476.10400340000024,None,476.10400340000024,None,476.7373365999997,None,476.7373365999997,None,right,2.092544699999962,476.7373365999997,None,478.8534212999998,None,left,0.6803414000005432,478.8534212999998,None,478.8534212999998,None,-4.455297426277928,151.96888510199835,,,,12,001,2021_Apr_09_1054,AB_pic_singleT2,2021.1.2,59.99746810682909,
AB,lag1,1,4,5,0.06000000005000003,0,0.3,main,,,,,0,48,48,48,,,,,,,jellyfish.jpg,parachute.jpg,cloud.jpg,kite.jpg,lizard.jpg,dalmatian.jpg,fingerprint.jpg,car.jpg,cross01.jpg,hammerheadshark.jpg,giraffe.jpg,zebra.jpg,handcuffs.jpg,boxingglove01.jpg,skunk.jpg,holdfast.jpg,peacock.jpg,,,,,0,0,7,,,,,.\resources\lizard.jpg,,,1,,,,,,,,,1,,,,,,,,,None,484.01967253000004,None,484.01967253000004,None,,,,,,,479.57005660000004,482.31986259999985,482.0531970999996,None,0.03703892230561679,0.04349750000073982,0.06026000000019849,0.07645290000073146,0.09348860000045534,0.12701470000047266,0.1430982000001677,0.1601583000001483,0.17685270000038145,0.1931220000005851,0.21016730000064854,0.22682820000045467,0.24352410000028613,0.26015950000055454,0.2768307000005734,0.30977290000009816,0.32686910000029457,,,,,,,,,,,,,482.5702561000003,None,482.5702561000003,None,482.90357710000035,None,482.90357710000035,None,right,0.9103392999995776,482.90357710000035,None,483.83645000000024,None,right,0.16145000000051368,483.83645000000024,None,483.83645000000024,None,-4.441654292658878,152.00220287478479,,,,12,001,2021_Apr_09_1054,AB_pic_singleT2,2021.1.2,59.99746810682909,
AB,lag4,4,3,7,0.06000000005000003,0,0.3,main,,,,,0,49,49,49,,,,,,,cruiseship.jpg,porcupine.jpg,cactus.jpg,safe.jpg,cat.jpg,ostrich.jpg,lighthouse.jpg,chainsaw.jpg,cork02.jpg,rubikcube.jpg,fortunecookie.jpg,cashregister01.jpg,daddylonglegs.jpg,sandcastle.jpg,giraffe.jpg,vulture.jpg,zipper.jpg,,,,,0,0,9,,,,,.\resources\lighthouse.jpg,,,1,,,,,,,,,0,,,,,,,,,None,489.7026470299996,None,489.7026470299996,None,,,,,,,484.03644870000016,486.7862688,486.5196225000004,None,0.03385435981255184,0.043355800000426825,0.06036529999983031,0.07720919999974285,0.09330890000001091,0.11036740000054124,0.12712910000027478,0.14328610000029585,0.16033130000050733,0.17697469999984605,0.1938127000003078,0.20998599999984435,0.2269827999998597,0.24370060000001104,0.2603202999998757,0.276591499999995,0.29363420000026963,0.30992479999986244,0.3269873999997799,0.34366339999996853,0.36036260000037146,,,,,,,,,487.0366300999999,None,487.0366300999999,None,487.40329320000046,None,487.40329320000046,None,right,1.682525799999894,487.40329320000046,None,489.1028161999998,None,left,0.5750508999999511,489.1028161999998,None,489.1028161999998,None,-4.4086108039002525,152.03824029126264,,,,12,001,2021_Apr_09_1054,AB_pic_singleT2,2021.1.2,59.99746810682909,
AB,lag3,3,4,7,0.06000000005000003,0,0.3,main,,,,,0,50,50,50,,,,,,,cocktailshrimp02.jpg,bowlingpin.jpg,slug.jpg,toyanimal05.jpg,ant.jpg,popcorn.jpg,nunchuk.jpg,totempole.jpg,jellyfish.jpg,pumpkin.jpg,butterfly.jpg,apron.jpg,polarbear.jpg,ear.jpg,cashregister01.jpg,flamingo.jpg,exitsign.jpg,,,,,0,1,9,,,,,.\resources\nunchuk.jpg,,,1,,,,,,,,,1,,,,,,,,,None,495.50230292999987,None,495.50230292999987,None,,,,,,,489.71944099999973,492.4694164999996,492.2026166999999,None,0.03580617556508044,0.04324300000007497,0.05944389999967825,0.07656090000000404,0.0931745999996565,0.10990119999951276,0.12651679999999033,0.15999459999966348,0.17615339999974822,0.1931723999996393,0.20983629999955156,0.2261075999995228,0.24316329999965092,0.2599165000001449,0.27667359999941255,0.29283870000017487,0.3098184999998921,0.3265302999998312,0.3427707000000737,0.3598225999994611,0.3765620999993189,,,,,,,,,492.7196730999999,None,492.7196730999999,None,493.10296080000035,None,493.10296080000035,None,right,2.014890500000547,493.10296080000035,None,495.13576890000013,None,left,0.3501686999998128,495.13576890000013,None,495.13576890000013,None,-4.362952327973594,152.0757584464375,,,,12,001,2021_Apr_09_1054,AB_pic_singleT2,2021.1.2,59.99746810682909,
AB,lag7,7,5,12,0.06000000005000003,0,0.3,main,,,,,0,51,51,51,,,,,,,coffeemaker.jpg,wheelbarrow01.jpg,dragonfly01.jpg,cannon.jpg,microphone01.jpg,pingpongtable.jpg,tiger02.jpg,ant.jpg,handcuffs.jpg,mailbox02.jpg,discoball.jpg,foot.jpg,musicsheet.jpg,ceilingfan01.jpg,turnstile.jpg,tie02.jpg,eiffeltower.jpg,,,,,0,1,14,,,,,.\resources\foot.jpg,,,1,,,,,,,,,0,,,,,,,,,None,500.38533672999966,None,500.38533672999966,None,,,,,,,495.5191047000003,498.26887730000044,498.00223080000023,None,0.038446622593721495,0.042258599999513535,0.05915850000019418,0.09221559999969031,0.10895199999959004,0.12520309999945312,0.14227029999983642,0.15892280000025494,0.17520319999948697,0.1922727000001032,0.20895169999948848,0.2418958999996903,0.25891200000023673,0.2756908999999723,0.29194060000008903,0.3089245999999548,0.32559409999976197,0.3589144999996279,0.3755812999997943,0.39227589999973134,0.4085129999994024,0.425554700000248,0.44225209999967774,0.47554959999979474,0.49228690000018105,0.5089582000000519,0.5255689999994502,0.5422786999997697,0.5589116999999533,498.51930289999973,None,498.51930289999973,None,499.1356764999996,None,499.1356764999996,None,right,1.0541352999998708,499.1356764999996,None,500.21876440000005,None,right,0.13895040000079462,500.21876440000005,None,500.21876440000005,None,-4.328629985059857,152.11467061856968,0.5918492000000697,0.6089640999998664,,12,001,2021_Apr_09_1054,AB_pic_singleT2,2021.1.2,59.99746810682909,
AB,lag1,1,5,6,0.06000000005000003,0,0.3,main,,,,,0,52,52,52,,,,,,,donut.jpg,chimney.jpg,christmaslights.jpg,fingerprint.jpg,lizard.jpg,escalator.jpg,peacock.jpg,leafblower01.jpg,microphone01.jpg,uprightpiano01.jpg,swing.jpg,acorn.jpg,sword01.jpg,eye.jpg,penguin.jpg,lion.jpg,jellyfish.jpg,,,,,1,0,8,,,,,.\resources\escalator.jpg,,,0,,,,,,,,,0,,,,,,,,,None,506.75167202999984,None,506.75167202999984,None,,,,,,,500.40210570000045,503.15197789999957,502.8853313000004,None,0.041588178033964765,0.042391399999360146,0.059045899999546236,0.09256430000004912,0.10902679999981046,0.1257581999998365,0.14208549999966635,0.17568599999958678,0.19231779999972787,0.2089799999994284,0.22565109999959532,0.2589799999996103,0.27564449999954377,0.29235849999986385,0.308991299999434,0.3423197000001892,0.35899590000008175,0.375662999999804,0.39234510000005685,,,,,,,,,,,503.4024144,None,503.4024144,None,503.80236660000037,None,503.80236660000037,None,right,2.3474065000000337,503.80236660000037,None,506.1685067000003,None,left,0.5573168000000805,506.1685067000003,None,506.1685067000003,None,-4.305639614208336,152.15503277867765,,,,12,001,2021_Apr_09_1054,AB_pic_singleT2,2021.1.2,59.99746810682909,
AB,lag4,4,4,8,0.06000000005000003,0,0.3,main,,,,,0,53,53,53,,,,,,,tent.jpg,seal.jpg,guitarcase.jpg,squid.jpg,squirrel.jpg,bluecheese.jpg,seagull.jpg,mrpotatohead.jpg,rollerblade.jpg,hockeystick.jpg,icecube02.jpg,redfox.jpg,cloud.jpg,lollipop04.jpg,crown.jpg,skippingrope.jpg,well.jpg,,,,,0,0,10,,,,,.\resources\mrpotatohead.jpg,,,0,,,,,,,,,1,,,,,,,,,None,516.5677770299997,None,516.5677770299997,None,,,,,,,506.76844870000014,509.5182659999996,509.2516136999998,None,0.036739512184175975,0.042740199999570905,0.05945759999940492,0.07606080000005022,0.09317299999929674,0.12606030000006285,0.14318099999945844,0.15941519999978482,0.17665260000012495,0.19273840000005293,0.20983699999942473,0.22607129999960307,0.24274879999939003,0.25946119999935036,0.2764791999998124,0.30940019999979995,0.3265531999995801,0.34272759999930713,0.3594033999997919,0.3765187999997579,0.3927115999995294,0.40944069999932253,0.42605939999975817,,,,,,,509.76866889999974,None,509.76866889999974,None,510.2016073,None,510.2016073,None,left,6.1321366000001944,510.2016073,None,516.3511918999998,None,right,0.19054989999949612,516.3511918999998,None,516.3511918999998,None,-4.43281359007659,152.1761060110265,,,,12,001,2021_Apr_09_1054,AB_pic_singleT2,2021.1.2,59.99746810682909,
AB,lag6,6,5,11,0.06000000005000003,0,0.3,main,,,,,0,54,54,54,,,,,,,hockeypuck.jpg,panda.jpg,honeybee.jpg,jellyfish.jpg,mrpotatohead.jpg,leafblower01.jpg,snowboard.jpg,christmastree.jpg,sheep.jpg,horse.jpg,crown.jpg,sandcastle.jpg,makiroll.jpg,dalmatian.jpg,knee.jpg,mouse.jpg,christmaslights.jpg,,,,,0,0,13,,,,,.\resources\crown.jpg,,,1,,,,,,,,,0,,,,,,,,,None,521.7674626300002,None,521.7674626300002,None,,,,,,,516.5845455000003,519.3343821000003,519.0677025,None,0.03939647068098407,0.04250599999977567,0.05916239999987738,0.09250579999934416,0.10916639999959443,0.12581950000003417,0.1424925000001167,0.15917649999937566,0.17581329999939044,0.20915340000010474,0.22586059999957797,0.24246709999988525,0.2591295000001992,0.27579989999958343,0.29255039999952714,0.325813599999492,0.3425020999993649,0.35916999999972177,0.37582389999988663,0.40918429999965156,0.4258185999997295,0.4424794999995356,0.45917649999955756,0.47584529999949154,0.49255769999945187,0.5258352000000741,0.5424670000002152,0.5591436999993675,0.5758060999996815,519.5847881000004,None,519.5847881000004,None,520.1680791000003,None,520.1680791000003,None,right,1.1017292999995334,520.1680791000003,None,521.3008784999997,None,left,0.44081999999980326,521.3008784999997,None,521.3008784999997,None,-4.536013779815574,152.19252113128735,,,,12,001,2021_Apr_09_1054,AB_pic_singleT2,2021.1.2,59.99746810682909,
AB,lag2,2,4,6,0.06000000005000003,0,0.3,main,,,,,0,55,55,55,,,,,,,cheetah.jpg,beaver.jpg,toucan.jpg,discoball.jpg,uprightpiano01.jpg,bowlingpin.jpg,crosscountryski.jpg,dandelion.jpg,fingerprint.jpg,beerbottle.jpg,totempole.jpg,ladybug03.jpg,elbow.jpg,steeringwheel.jpg,curtain.jpg,sausage.jpg,tulip02.jpg,,,,,0,0,8,,,,,.\resources\bowlingpin.jpg,,,1,,,,,,,,,1,,,,,,,,,None,530.0336156299998,None,530.0336156299998,None,,,,,,,521.7842085999996,524.5340717000004,524.2673718000001,None,0.036496563117498416,0.04325150000022404,0.05989529999988008,0.07654900000034104,0.09323170000061509,0.12653750000026776,0.14322870000069088,0.1599052000001393,0.1761421999999584,0.19320820000029926,0.20985680000012508,0.22676310000042577,0.2428358000006483,0.25991870000052586,0.27652560000024096,0.2931945000000269,0.30993600000056176,0.342819800000143,0.35984499999995023,,,,,,,,,,,524.7844117999998,None,524.7844117999998,None,525.1506823000004,None,525.1506823000004,None,right,4.727075400000103,525.1506823000004,None,529.9003723000001,None,right,0.11332550000042829,529.9003723000001,None,529.9003723000001,None,-4.513893287378689,152.2157911110128,,,,12,001,2021_Apr_09_1054,AB_pic_singleT2,2021.1.2,59.99746810682909,
AB,lag5,5,4,9,0.06000000005000003,0,0.3,main,,,,,0,56,56,56,,,,,,,drumset.jpg,coffeemaker.jpg,parachute.jpg,slug.jpg,snowshoe.jpg,punchingbag.jpg,cocktailshrimp02.jpg,moose.jpg,escalator.jpg,crown.jpg,magneticcompass.jpg,windshieldwiper02.jpg,marble.jpg,ironingboard01.jpg,badmintonracket.jpg,tricycle.jpg,bluejay.jpg,,,,,0,0,11,,,,,.\resources\escalator.jpg,,,0,,,,,,,,,0,,,,,,,,,None,535.2333083299998,None,535.2333083299998,None,,,,,,,530.0503810000005,532.8002041000004,532.5335690999996,None,0.04338188254360478,0.05922680000003311,0.075394999999844,0.0924021000000721,0.10908290000043053,0.14243940000051225,0.15912279999975,0.17572550000022602,0.19243860000005952,0.2257934999997815,0.2423954000005324,0.2757376999998087,0.29240959999970073,0.30908850000014354,0.3257278999999471,0.35910620000049676,0.37582170000041515,0.3924893000003067,0.4091085000000021,0.4423907999998846,0.45910860000003595,0.49239029999989725,0.5091584000001603,0.5257210999998279,0.5424411000003602,,,,,533.0505910999996,None,533.0505910999996,None,533.6006032,None,533.6006032,None,left,1.3730544999998529,533.6006032,None,535.0000795999999,None,left,0.20565739999983634,535.0000795999999,None,535.0000795999999,None,-4.483130458251457,152.24102862796047,,,,12,001,2021_Apr_09_1054,AB_pic_singleT2,2021.1.2,59.99746810682909,
AB,lag2,2,3,5,0.06000000005000003,0,0.3,main,,,,,0,57,57,57,,,,,,,birdhouse.jpg,arrow02.jpg,seal.jpg,calendar.jpg,mattress.jpg,baseballbat.jpg,locker.jpg,tricycle.jpg,hand01b.jpg,marble.jpg,eyepatch.jpg,escalator.jpg,tree.jpg,bow.jpg,funnel.jpg,tortoise01.jpg,raccoon.jpg,,,,,0,0,7,,,,,.\resources\mattress.jpg,,,1,,,,,,,,,0,,,,,,,,,None,540.5163303300003,None,540.5163303300003,None,,,,,,,535.2500840999996,537.9998999000004,537.7332535999999,None,0.041351757263149,0.04242950000025303,0.05909669999982725,0.09238559999994322,0.109127300000182,0.12572720000025583,0.14238720000048488,0.17581020000034187,0.1923821999998836,0.20905380000021978,0.22573610000017652,0.25905190000048606,0.27574079999976675,0.2924567999998544,0.30904629999986355,0.34244719999969675,0.3590460000004896,,,,,,,,,,,,,538.2502793999997,None,538.2502793999997,None,538.6169272000002,None,538.6169272000002,None,right,1.484809700000369,538.6169272000002,None,540.1331471999997,None,left,0.3606063000006543,540.1331471999997,None,540.1331471999997,None,-4.594752820054883,152.24713319381988,,,,12,001,2021_Apr_09_1054,AB_pic_singleT2,2021.1.2,59.99746810682909,
AB,lag6,6,5,11,0.06000000005000003,0,0.3,main,,,,,0,58,58,58,,,,,,,dartboard.jpg,banjo.jpg,snowman.jpg,statue.jpg,shower.jpg,shovel01.jpg,windshieldwiper02.jpg,well.jpg,trampoline.jpg,nose.jpg,birdnest.jpg,jackrabbit.jpg,locker.jpg,church.jpg,corn02.jpg,dalmatian.jpg,hand01b.jpg,,,,,0,0,13,,,,,.\resources\birdnest.jpg,,,1,,,,,,,,,1,,,,,,,,,space,545.0495099000004,None,545.0495099000004,None,,,,,,,540.5331055000001,543.2828906999998,543.0162256999997,None,0.03425430843504076,0.043071200000667886,0.05972250000013446,0.07665040000028966,0.0926833000003171,0.10974130000067817,0.12658569999985048,0.14270350000060716,0.1597394999998869,0.17642690000047878,0.1927709000001414,0.20976390000032552,0.2264378999998371,0.24327570000059495,0.2594137000005503,0.27641250000033324,0.29318899999998393,0.30940240000018093,0.3265160000000833,0.3431147000001147,0.359872600000017,0.393187399999988,0.4098407999999836,0.42602549999992334,0.44316549999985,0.4597246000002997,0.47658450000017183,0.4927298000002338,0.5097738000004028,543.5332812000001,None,543.5332812000001,None,544.0499740999999,None,544.0499740999999,None,right,0.6277033999995183,544.0499740999999,None,544.6994539000002,None,right,0.3062924000005296,544.6994539000002,None,544.6994539000002,None,-4.577915617794563,152.25975621909222,,,8.14019240000016,12,001,2021_Apr_09_1054,AB_pic_singleT2,2021.1.2,59.99746810682909,
AB,lag7,7,4,11,0.06000000005000003,0,0.3,main,,,,,0,59,59,59,,,,,,,pigeon.jpg,birdnest.jpg,fishingrod.jpg,swordfish.jpg,dreamcatcher.jpg,mrpotatohead.jpg,parkfountain.jpg,dormer.jpg,brownsugar.jpg,toad.jpg,leafblower01.jpg,lizard.jpg,schoolbus.jpg,englishcucumber.jpg,golfball.jpg,motorcycle.jpg,foldingchair.jpg,,,,,0,0,13,,,,,.\resources\leafblower01.jpg,,,0,,,,,,,,,0,,,,,,,,,None,561.5818400300002,None,561.5818400300002,None,,,,,,,553.2324653999999,555.9994156999996,555.7327384000005,None,0.041385429689858824,0.049435100000664534,0.0660662999998749,0.08281850000003033,0.09942360000059125,0.1327318000003288,0.1494914000004428,0.16614800000024843,0.18277330000000802,0.21606140000039886,0.23278639999989537,0.24938079999992624,0.2660431000003882,0.29939830000057555,0.31598160000066855,0.33273150000059104,0.3493326000007073,0.38265039999987494,0.3994183000004341,0.4159973000005266,0.43266920000041864,0.46598420000009355,0.4826583000003666,0.4993592999999237,0.5160352000002604,0.5492973999998867,0.5659823000005417,0.582647199999883,0.5993265000006431,556.2493595999999,None,556.2493595999999,None,556.8659553000002,None,556.8659553000002,None,left,3.3637268000002223,556.8659553000002,None,560.2657529000003,None,left,1.2998764000003575,560.2657529000003,None,560.2657529000003,None,-4.538894559057194,152.2682242105249,,,,12,001,2021_Apr_09_1054,AB_pic_singleT2,2021.1.2,59.99746810682909,
AB,lag5,5,3,8,0.06000000005000003,0,0.3,main,,,,,0,60,60,60,,,,,,,safe.jpg,dartboard.jpg,urinal.jpg,acousticguitar02.jpg,microphone01.jpg,skateboard.jpg,tennisracket.jpg,beaver.jpg,airhockeytable.jpg,bowlingball.jpg,arrow02.jpg,cruiseship.jpg,raccoon.jpg,cow.jpg,shovel01.jpg,moon.jpg,mummy.jpg,,,,,0,1,10,,,,,.\resources\beaver.jpg,,,0,,,,,,,,,1,,,,,,,,,None,565.9153018300001,None,565.9153018300001,None,,,,,,,561.5990177999997,564.3655123000003,564.0988628999999,None,0.04388845963538623,0.049450900000010733,0.06614860000081535,0.09951950000049692,0.11612610000065615,0.13280660000054922,0.1494869000007384,0.18276030000015453,0.19945040000038716,0.23279030000048806,0.2494542000004003,0.26622260000021924,0.28279230000043754,0.31613580000066577,0.3327591000006578,0.3660975000002509,0.38284290000046894,0.39952570000059495,0.41608220000034635,0.4494430000004286,0.4661026000003403,0.4993971000003512,0.5161563000001479,,,,,,,564.6154843999998,None,564.6154843999998,None,565.1488044000002,None,565.1488044000002,None,left,0.5690238000006502,565.1488044000002,None,565.7821172999998,None,left,0.10368300000027375,565.7821172999998,None,565.7821172999998,None,-4.637521998656777,152.2664397037867,,,,12,001,2021_Apr_09_1054,AB_pic_singleT2,2021.1.2,59.99746810682909,
AB,lag3,3,5,8,0.06000000005000003,0,0.3,main,,,,,0,61,61,61,,,,,,,xylophone.jpg,knee.jpg,bench01.jpg,sheep.jpg,jeep.jpg,spicerack.jpg,mummy.jpg,swing.jpg,armadillo.jpg,safe.jpg,totempole.jpg,pig.jpg,seagull.jpg,fortunecookie.jpg,englishcucumber.jpg,toucan.jpg,squirrel.jpg,,,,,0,1,10,,,,,.\resources\swing.jpg,,,1,,,,,,,,,1,,,,,,,,,None,570.3984214299996,None,570.3984214299996,None,,,,,,,565.9320892999999,568.6985665999996,568.4319455,None,0.04435371700594363,0.04942470000059984,0.06616070000018226,0.09952860000066721,0.11608710000018618,0.1494817000002513,0.1660979000007501,0.18277350000062142,0.19942380000065896,0.23277930000040215,0.24942300000020623,0.26617460000034043,0.28275480000047537,0.3161227000000508,0.33276480000040465,0.3660933000001023,0.3828177000004871,0.3994087999999465,0.4161055000004126,0.449432300000808,0.46609540000008565,0.4994008000003305,0.516079200000604,,,,,,,568.9485718999999,None,568.9485718999999,None,569.4818841000001,None,569.4818841000001,None,right,0.5316871000004539,569.4818841000001,None,570.0651644000004,None,left,0.31645190000017465,570.0651644000004,None,570.0651644000004,None,-4.735624182726754,152.25822375253864,,,,12,001,2021_Apr_09_1054,AB_pic_singleT2,2021.1.2,59.99746810682909,
AB,lag4,4,5,9,0.06000000005000003,0,0.3,main,,,,,0,62,62,62,,,,,,,greatwhiteshark.jpg,witchhat.jpg,dormer.jpg,birthdaycandle.jpg,firehydrant.jpg,slug.jpg,cashregister01.jpg,seagull.jpg,cow.jpg,eye.jpg,ant.jpg,swordfish.jpg,mattress.jpg,alligator.jpg,xylophone.jpg,parkingmeter.jpg,sink.jpg,,,,,0,0,11,,,,,.\resources\cow.jpg,,,1,,,,,,,,,1,,,,,,,,,None,575.1647473299997,None,575.1647473299997,None,,,,,,,570.4151299999999,573.1816136000002,572.9150112000002,None,0.03962020243521987,0.04944939999950293,0.06612820000009378,0.08279940000011266,0.09946109999964392,0.13280699999995704,0.14948639999965962,0.16614669999944454,0.1828280999998242,0.19956329999968148,0.21615579999979673,0.24956119999933435,0.26615489999949205,0.28284099999928003,0.29948739999963436,0.33280479999939416,0.3494377999995777,0.3661106999998083,0.38278639999953157,0.39948269999968034,0.4161346999999296,0.4495595999997022,0.4661427000000913,0.482880199999272,0.4994786999995995,,,,,573.4315821000005,None,573.4315821000005,None,573.9482598,None,573.9482598,None,right,1.0253491000003123,573.9482598,None,575.0148788000001,None,right,0.12682000000040716,575.0148788000001,None,575.0148788000001,None,-4.72395923121016,152.25491828644482,,,,12,001,2021_Apr_09_1054,AB_pic_singleT2,2021.1.2,59.99746810682909,
AB,lag1,1,3,4,0.06000000005000003,0,0.3,main,,,,,0,63,63,63,,,,,,,parkfountain.jpg,spear02.jpg,horseshoe.jpg,peacock.jpg,lawnmower.jpg,dormer.jpg,witchhat.jpg,butterfly.jpg,microwave.jpg,toucan.jpg,ear.jpg,bathtub.jpg,saxophone.jpg,cow.jpg,candycane01a.jpg,spicerack.jpg,leafblower01.jpg,,,,,0,1,6,,,,,.\resources\peacock.jpg,,,1,,,,,,,,,1,,,,,,,,,None,580.3477704300001,None,580.3477704300001,None,,,,,,,575.1815343000003,577.9479962,577.6814170000002,None,0.040202840653373366,0.04943309999998746,0.06612550000045303,0.08279839999977412,0.0994313000001057,0.13274460000047839,0.14944120000018302,0.16610860000037064,0.18276280000009137,0.21610539999983303,0.23279550000006566,0.24942840000039723,0.26612699999986944,0.2827870000000985,0.2994565999997576,,,,,,,,,,,,,,,578.1979721000002,None,578.1979721000002,None,578.5146251000001,None,578.5146251000001,None,right,1.5389850999999908,578.5146251000001,None,580.1145788999997,None,left,0.21107729999948788,580.1145788999997,None,580.1145788999997,None,-4.70233037135982,152.25307745053325,,,,12,001,2021_Apr_09_1054,AB_pic_singleT2,2021.1.2,59.99746810682909,
AB,lag5,5,4,9,0.06000000005000003,0,0.3,main,,,,,0,64,64,64,,,,,,,greywolf.jpg,windshieldwiper02.jpg,scorpion.jpg,noparkingsign.jpg,seal.jpg,knee.jpg,dalmatian.jpg,pirateflag.jpg,bow.jpg,paperairplane.jpg,nose.jpg,peacock.jpg,toyanimal05.jpg,treadmill.jpg,swordfish.jpg,safe.jpg,telescope.jpg,,,,,0,0,11,,,,,.\resources\bow.jpg,,,1,,,,,,,,,0,,,,,,,,,None,585.9307810300004,None,585.9307810300004,None,,,,,,,580.3645626000002,583.1310822999999,582.8644239,None,0.03749285127668176,0.04944769999929122,0.06614089999948192,0.0827605999993466,0.09943199999997887,0.11611489999995683,0.13283689999934722,0.16608809999979712,0.1828747999998086,0.1994156999999177,0.2160966000001281,0.2327490999996371,0.24943309999980556,0.2660736999996516,0.2827446000001146,0.3161237999993318,0.3327994999999646,0.34942580000006274,0.3660909999998694,0.38280089999989286,0.39941019999969285,0.4160740999996051,0.4327549999998155,0.4660623999998279,0.482749299999341,,,,,583.3810307999997,None,583.3810307999997,None,583.8810047000002,None,583.8810047000002,None,right,0.8445434000004752,583.8810047000002,None,584.7643383,None,left,1.1372047000004386,584.7643383,None,584.7643383,None,-4.682865393912349,152.2522680117962,,,,12,001,2021_Apr_09_1054,AB_pic_singleT2,2021.1.2,59.99746810682909,
AB,lag4,4,3,7,0.06000000005000003,0,0.3,main,,,,,0,65,65,65,,,,,,,vacuumcleaner01.jpg,spicerack.jpg,bat.jpg,rubikcube.jpg,wheelchair.jpg,eiffeltower.jpg,curtain.jpg,calendar.jpg,rooster.jpg,boxingglove01.jpg,crown.jpg,christmastree.jpg,dandelion.jpg,wheelbarrow01.jpg,sandcastle.jpg,ostrich.jpg,skateboard.jpg,,,,,1,0,9,,,,,.\resources\curtain.jpg,,,1,,,,,,,,,1,,,,,,,,,None,591.0138276300002,None,591.0138276300002,None,,,,,,,585.9475663999997,588.7140608000004,588.4474386999996,None,0.043152844201951285,0.049463500000456406,0.06613740000011603,0.09946430000036344,0.11612530000002153,0.13277890000063053,0.1494540000003326,0.18280810000032943,0.19940670000050886,0.21606550000069547,0.23273210000024847,0.2661039000004166,0.2828493000006347,0.3160990000005768,0.3327638000000661,0.349449000000277,0.3660711000002266,0.3993946999999025,0.4160654000006616,0.43274210000072344,0.4495182999999088,,,,,,,,,588.9640610000001,None,588.9640610000001,None,589.4307169999997,None,589.4307169999997,None,left,1.1991818999995303,589.4307169999997,None,590.6639327999997,None,right,0.3336306000001059,590.6639327999997,None,590.6639327999997,None,-4.656630195868484,152.25256577027986,,,,12,001,2021_Apr_09_1054,AB_pic_singleT2,2021.1.2,59.99746810682909,
AB,lag7,7,3,10,0.06000000005000003,0,0.3,main,,,,,0,66,66,66,,,,,,,shovel01.jpg,table01.jpg,mattress.jpg,skippingrope.jpg,lizard.jpg,crown.jpg,lightswitch01.jpg,birdhouse.jpg,birdnest.jpg,skateboard.jpg,bullet.jpg,flamingo.jpg,horseshoe.jpg,honeybee.jpg,lip.jpg,witchhat.jpg,leafblower01.jpg,,,,,1,0,12,,,,,.\resources\skateboard.jpg,,,1,,,,,,,,,0,,,,,,,,,None,595.8468595299998,None,595.8468595299998,None,,,,,,,591.0305984000001,593.7970989,593.5304572,None,0.034836906511842146,0.049355900000591646,0.06603379999978642,0.08268860000043787,0.0993890999998257,0.11602180000045337,0.13269750000017666,0.1493796000004295,0.16607500000009168,0.18276010000045062,0.19937230000050477,0.2160095999997793,0.2327039000001605,0.24936130000060075,0.2660464000000502,0.28268220000063593,0.2993528000006336,0.3160150000003341,0.33267090000026656,0.34934700000030716,0.3660144000004948,0.39933190000010654,0.4160130999998728,0.4326633999999103,0.44931869999982155,0.4659828000003472,0.4827273000000787,,,594.0470802000004,None,594.0470802000004,None,594.5470539000003,None,594.5470539000003,None,left,1.0506167000003188,594.5470539000003,None,595.6303351000001,None,left,0.1912244000004648,595.6303351000001,None,595.6303351000001,None,-4.644444676499294,152.25342248885036,,,,12,001,2021_Apr_09_1054,AB_pic_singleT2,2021.1.2,59.99746810682909,
