trialType,cndTyp,lag,T1_loc,T2_loc,stimLen,isi,skipProb,phase,trials.thisRepN,trials.thisTrialN,trials.thisN,trials.thisIndex,trials2.thisRepN,trials2.thisTrialN,trials2.thisN,trials2.thisIndex,key_resp_4.keys,key_resp_4.rt,key_resp_4.started,key_resp_4.stopped,textbox.started,textbox.stopped,img0,img1,img2,img3,img4,img5,img6,img7,img8,img9,img10,img11,img12,img13,img14,img15,img16,option1.started,option1.stopped,text_2.started,text_2.stopped,skip1,skip2,lastPresent,displayPicture.started,displayPicture.stopped,polygon_2.started,polygon_2.stopped,opt1_t1,polygon_4.started,polygon_4.stopped,cor1,option1_t1.started,option1_t1.stopped,key_resp.keys,key_resp.rt,key_resp.started,key_resp.stopped,polygon_5.started,polygon_5.stopped,cor2,key_resp_2.keys,key_resp_2.rt,key_resp_2.started,key_resp_2.stopped,textbox_2.started,textbox_2.stopped,textbox_3.started,textbox_3.stopped,key_resp_3.keys,key_resp_3.started,key_resp_3.stopped,textbox_6.started,textbox_6.stopped,key_resp_7.keys,key_resp_7.rt,key_resp_7.started,key_resp_7.stopped,textbox_4.started,textbox_4.stopped,option1_3.started,option1_3.stopped,text_7.started,text_7.stopped,curStimTim,stimOFF0,stimON0,stimOFF1,stimON1,stimOFF2,stimON2,stimOFF3,stimON3,stimOFF4,stimON4,stimOFF5,stimON5,stimOFF6,stimON6,stimOFF7,stimON7,stimOFF8,stimON8,stimOFF9,stimON9,stimOFF10,stimON10,stimOFF11,stimON11,stimOFF12,stimON12,stimOFF13,stimON13,displayPicture_4.started,displayPicture_4.stopped,polygon_16.started,polygon_16.stopped,polygon_7.started,polygon_7.stopped,option1_t1_2.started,option1_t1_2.stopped,key_resp_6.keys,key_resp_6.rt,key_resp_6.started,key_resp_6.stopped,polygon_17.started,polygon_17.stopped,key_resp_8.keys,key_resp_8.rt,key_resp_8.started,key_resp_8.stopped,textbox_5.started,textbox_5.stopped,B0,B1,stimOFF14,stimON14,key_resp_3.rt,participant,session,date,expName,psychopyVersion,frameRate,
,,,,,,,,,,,,,,,,,space,9.180854299999737,19.295641699999578,None,,,,,,,,,,,,,,,,,,,,,,,,,,,,,,,,,,,,,,,,,,,,,,,,,,,,,,,,,,,,,,,,,,,,,,,,,,,,,,,,,,,,,,,,,,,,,,,,,,,,,,,,,,,,,,,,,,,,,,,,,13,001,2021_Apr_09_1120,AB_pic_singleT2,2021.1.2,59.98422414916361,
AB,lag2,2,5,7,0.2,0.05,0.5,,0,0,0,9,,,,,,,,,19.295641699999578,None,volleyball.jpg,magneticcompass.jpg,hotdogweiner.jpg,greathornowl.jpg,parkingmeter.jpg,squid.jpg,football.jpg,brownsugar.jpg,steeringwheel.jpg,cross01.jpg,coffeemaker.jpg,crosscountryski.jpg,daddylonglegs.jpg,giraffe.jpg,badmintonracket.jpg,windmill.jpg,tent.jpg,28.521724600000198,31.272096099999544,31.005286700000397,None,1,0,9,31.52208419999988,None,31.52208419999988,None,.\resources\football.jpg,34.02145389999987,None,1,34.02145389999987,None,left,1.3510606999998345,34.02145389999987,None,35.40512419999959,None,1,right,0.9993100000001505,35.40512419999959,None,35.40512419999959,None,36.438415700000405,None,None,37.437945900000344,None,37.437945900000344,None,,,,,,,,,,,,,,,,,,,,,,,,,,,,,,,,,,,,,,,,,,,,,,,,,,,,,,,,,,,,,,,,,13,001,2021_Apr_09_1120,AB_pic_singleT2,2021.1.2,59.98422414916361,
AB,lag4,4,4,8,0.2,0.05,0.5,,0,1,1,13,,,,,,,,,,,bat.jpg,beerbottle.jpg,cobra.jpg,peacock.jpg,flag.jpg,moose.jpg,crown.jpg,parrot01.jpg,cork02.jpg,volleyball.jpg,bluecheese.jpg,bow.jpg,bowlingpin.jpg,honeybee.jpg,redfox.jpg,magneticcompass.jpg,waterfountain02.jpg,37.454588599999624,40.20442920000005,39.921124899999995,None,0,1,10,40.437750799999776,None,40.437750799999776,None,.\resources\parrot01.jpg,43.18758259999959,None,1,43.18758259999959,None,right,1.896912600000178,43.18758259999959,None,45.121224399999846,None,1,left,0.13921810000010737,45.121224399999846,None,45.121224399999846,None,45.304539900000236,None,None,46.30450200000014,None,46.30450200000014,None,,,,,,,,,,,,,,,,,,,,,,,,,,,,,,,,,,,,,,,,,,,,,,,,,,,,,,,,,,,,,,,,,13,001,2021_Apr_09_1120,AB_pic_singleT2,2021.1.2,59.98422414916361,
AB,lag4,4,3,7,0.2,0.05,0.5,,0,2,2,1,,,,,,,,,,,grizzly.jpg,slug.jpg,scorpion.jpg,hotdogweiner.jpg,snowshovel.jpg,escalator.jpg,arrow02.jpg,baseballbat.jpg,zebra.jpg,hockeypuck.jpg,tarantula.jpg,scooter.jpg,butterfly.jpg,ear.jpg,rose.jpg,airhockeytable.jpg,snowman.jpg,46.32117010000002,49.07057809999969,48.78726139999981,None,0,1,9,49.28724669999974,None,49.28724669999974,None,.\resources\arrow02.jpg,51.803767600000356,None,1,51.803767600000356,None,right,2.3446790999996665,51.803767600000356,None,54.18691909999961,None,1,left,1.217530799999622,54.18691909999961,None,54.18691909999961,None,55.453508200000215,None,None,56.45345219999963,None,56.45345219999963,None,,,,,,,,,,,,,,,,,,,,,,,,,,,,,,,,,,,,,,,,,,,,,,,,,,,,,,,,,,,,,,,,,13,001,2021_Apr_09_1120,AB_pic_singleT2,2021.1.2,59.98422414916361,
AB,lag5,5,4,9,0.2,0.05,0.5,,0,3,3,11,,,,,,,,,,,rubikcube.jpg,rooster.jpg,boxingglove01.jpg,eyepatch.jpg,trampoline.jpg,sword01.jpg,hulahoop.jpg,coffeemaker.jpg,funnel.jpg,sledgehammer.jpg,cobra.jpg,soccerball.jpg,snowshoe.jpg,corn02.jpg,lollipop04.jpg,bluejay.jpg,microphone01.jpg,56.453457499999786,59.203694599999835,58.93702829999984,None,1,0,11,59.45368299999973,None,59.45368299999973,None,.\resources\funnel.jpg,62.453093799999806,None,1,62.453093799999806,None,left,1.0714993000001414,62.453093799999806,None,63.553035900000395,None,0,left,1.01145329999963,63.553035900000395,None,63.553035900000395,None,64.5862747000001,None,None,65.58621869999952,None,65.58621869999952,None,,,,,,,,,,,,,,,,,,,,,,,,,,,,,,,,,,,,,,,,,,,,,,,,,,,,,,,,,,,,,,,,,13,001,2021_Apr_09_1120,AB_pic_singleT2,2021.1.2,59.98422414916361,
AB,lag7,7,5,12,0.2,0.05,0.5,,0,4,4,7,,,,,,,,,,,lighthouse.jpg,cocktailshrimp02.jpg,crown.jpg,sink.jpg,bow.jpg,well.jpg,bowlingpin.jpg,chair.jpg,lily.jpg,dreamcatcher.jpg,fishskeleton.jpg,scorpion.jpg,cashregister01.jpg,bluecheese.jpg,tulip02.jpg,curtain.jpg,knee.jpg,65.60289060000014,68.35310870000012,68.08648290000019,None,0,1,14,68.60311009999987,None,68.60311009999987,None,.\resources\scorpion.jpg,72.3524967000003,None,1,72.3524967000003,None,right,0.5238607999999658,72.3524967000003,None,72.90246380000008,None,1,left,0.30199220000031346,72.90246380000008,None,72.90246380000008,None,73.25244300000031,None,None,74.25240979999963,None,74.25240979999963,None,,,,,,,,,,,,,,,,,,,,,,,,,,,,,,,,,,,,,,,,,,,,,,,,,,,,,,,,,,,,,,,,,13,001,2021_Apr_09_1120,AB_pic_singleT2,2021.1.2,59.98422414916361,
AB,lag6,6,5,11,0.2,0.05,0.5,,0,5,5,8,,,,,,,,,,,cigar.jpg,cork02.jpg,slug.jpg,masquerademask01.jpg,skateboard.jpg,toad.jpg,rollerblade.jpg,christmaslights.jpg,pig.jpg,anchor.jpg,swordfish.jpg,sword01.jpg,guitarcase.jpg,tent.jpg,barrel01.jpg,tulip02.jpg,dreamcatcher.jpg,74.25241399999959,77.00275340000007,76.7356835999999,None,1,0,13,77.25274460000037,None,77.25274460000037,None,.\resources\swordfish.jpg,80.75204880000001,None,1,80.75204880000001,None,left,1.1722970999999234,80.75204880000001,None,81.9686942999997,None,0,left,0.9156077999996342,81.9686942999997,None,81.9686942999997,None,82.91900900000019,None,None,83.91896449999986,None,83.91896449999986,None,,,,,,,,,,,,,,,,,,,,,,,,,,,,,,,,,,,,,,,,,,,,,,,,,,,,,,,,,,,,,,,,,13,001,2021_Apr_09_1120,AB_pic_singleT2,2021.1.2,59.98422414916361,
AB,lag2,2,3,5,0.2,0.05,0.5,,0,6,6,4,,,,,,,,,,,noparkingsign.jpg,statue.jpg,donut.jpg,waterfall.jpg,trophy01.jpg,lollipop04.jpg,cigar.jpg,golfball.jpg,magneticcompass.jpg,musicsheet.jpg,dreamcatcher.jpg,ipad02.jpg,crab01.jpg,zipper.jpg,discoball.jpg,hockeypuck.jpg,skunk.jpg,83.93566470000042,86.68504140000005,86.40173909999976,None,1,0,7,86.91836049999984,None,86.91836049999984,None,.\resources\trophy01.jpg,88.91827009999997,None,1,88.91827009999997,None,left,1.8620891999999003,88.91827009999997,None,90.81810529999984,None,0,left,0.2502532999997129,90.81810529999984,None,90.81810529999984,None,91.08478569999988,None,None,92.08469869999972,None,92.08469869999972,None,,,,,,,,,,,,,,,,,,,,,,,,,,,,,,,,,,,,,,,,,,,,,,,,,,,,,,,,,,,,,,,,,13,001,2021_Apr_09_1120,AB_pic_singleT2,2021.1.2,59.98422414916361,
AB,lag7,7,4,11,0.2,0.05,0.5,,0,7,7,2,,,,,,,,,,,butterfly.jpg,greywolf.jpg,accordion01.jpg,sword01.jpg,uprightpiano01.jpg,nosmokingsign.jpg,ceilingfan01.jpg,waterfall.jpg,football.jpg,steeringwheel.jpg,ironingboard01.jpg,dolphin01.jpg,cannon.jpg,squid.jpg,cashregister01.jpg,mouse.jpg,pingpongtable.jpg,92.10136789999979,94.8516268000003,94.58496070000001,None,0,0,13,95.08452060000036,None,95.08452060000036,None,.\resources\ironingboard01.jpg,98.60098079999989,None,1,98.60098079999989,None,right,2.0113059000004796,98.60098079999989,None,100.65088050000031,None,1,right,0.12949420000040845,100.65088050000031,None,100.65088050000031,None,100.80085309999959,None,None,101.80078619999968,None,101.80078619999968,None,,,,,,,,,,,,,,,,,,,,,,,,,,,,,,,,,,,,,,,,,,,,,,,,,,,,,,,,,,,,,,,,,13,001,2021_Apr_09_1120,AB_pic_singleT2,2021.1.2,59.98422414916361,
AB,lag3,3,3,6,0.2,0.05,0.5,,0,8,8,5,,,,,,,,,,,africanelephant.jpg,kangaroo.jpg,coffeemaker.jpg,hammerheadshark.jpg,marble.jpg,redfox.jpg,kite.jpg,wheelbarrow01.jpg,giraffe.jpg,bowlingball.jpg,pingpongtable.jpg,noparkingsign.jpg,locker.jpg,parkingmeter.jpg,fishskeleton.jpg,escalator.jpg,horseshoe.jpg,101.8174597999996,104.56770299999971,104.30067950000011,None,0,0,8,104.81769879999956,None,104.81769879999956,None,.\resources\redfox.jpg,107.06714579999971,None,1,107.06714579999971,None,right,1.793239900000117,107.06714579999971,None,108.88368749999972,None,0,left,0.9205929999998261,108.88368749999972,None,108.88368749999972,None,109.85030319999987,None,None,110.8502386000002,None,110.8502386000002,None,,,,,,,,,,,,,,,,,,,,,,,,,,,,,,,,,,,,,,,,,,,,,,,,,,,,,,,,,,,,,,,,,13,001,2021_Apr_09_1120,AB_pic_singleT2,2021.1.2,59.98422414916361,
AB,lag1,1,4,5,0.2,0.05,0.5,,0,9,9,12,,,,,,,,,,,toad.jpg,seal.jpg,frisbee.jpg,crosscountryski.jpg,athleticsock.jpg,waterfountain02.jpg,lion.jpg,birthdaycandle.jpg,jeep.jpg,moose.jpg,triangle.jpg,christmastree.jpg,doghouse.jpg,dolphin01.jpg,hockeypuck.jpg,bow.jpg,kiwi03.jpg,110.86690590000035,113.61711259999993,113.3504769000001,None,1,0,7,113.85006080000039,None,113.85006080000039,None,.\resources\athleticsock.jpg,115.86663299999964,None,1,115.86663299999964,None,left,2.209632000000056,115.86663299999964,None,118.0998110999999,None,1,right,1.7365786999998818,118.0998110999999,None,118.0998110999999,None,119.88303799999994,None,None,120.88299829999978,None,120.88299829999978,None,,,,,,,,,,,,,,,,,,,,,,,,,,,,,,,,,,,,,,,,,,,,,,,,,,,,,,,,,,,,,,,,,13,001,2021_Apr_09_1120,AB_pic_singleT2,2021.1.2,59.98422414916361,
AB,lag5,5,4,9,0.2,0.05,0.5,,0,10,10,6,,,,,,,,,,,rubikcube.jpg,lily.jpg,chimney.jpg,pirateflag.jpg,eye.jpg,stool01.jpg,football.jpg,anchor.jpg,jeep.jpg,dalmatian.jpg,tie02.jpg,drumset.jpg,frenchfries.jpg,frisbee.jpg,nunchuk.jpg,car.jpg,greywolf.jpg,120.88297539999985,123.63290659999984,123.36670219999996,None,0,0,11,123.88288879999982,None,123.88288879999982,None,.\resources\jeep.jpg,126.88269000000037,None,1,126.88269000000037,None,right,0.7135938000001261,126.88269000000037,None,127.63263879999977,None,0,left,0.4117160999994667,127.63263879999977,None,127.63263879999977,None,128.0826178999996,None,None,129.08301369999953,None,129.08301369999953,None,,,,,,,,,,,,,,,,,,,,,,,,,,,,,,,,,,,,,,,,,,,,,,,,,,,,,,,,,,,,,,,,,13,001,2021_Apr_09_1120,AB_pic_singleT2,2021.1.2,59.98422414916361,
AB,lag3,3,5,8,0.2,0.05,0.5,,0,11,11,10,,,,,,,,,,,icecube02.jpg,cross01.jpg,toucan.jpg,sausage.jpg,scooter.jpg,parachute.jpg,apron.jpg,dromedary.jpg,africanelephant.jpg,tennisracket.jpg,firehydrant.jpg,granolabar01.jpg,lighthouse.jpg,table01.jpg,surfboard.jpg,telescope.jpg,saxophone.jpg,129.09965529999954,131.84905979999985,131.56579039999997,None,1,1,10,132.0823835000001,None,132.0823835000001,None,.\resources\dromedary.jpg,134.83225519999996,None,1,134.83225519999996,None,left,0.8279505999998946,134.83225519999996,None,135.69883779999964,None,1,left,0.13757079999959387,135.69883779999964,None,135.69883779999964,None,135.88215649999984,None,None,136.88256000000018,None,136.88256000000018,None,,,,,,,,,,,,,,,,,,,,,,,,,,,,,,,,,,,,,,,,,,,,,,,,,,,,,,,,,,,,,,,,,13,001,2021_Apr_09_1120,AB_pic_singleT2,2021.1.2,59.98422414916361,
AB,lag6,6,5,11,0.2,0.05,0.5,,0,12,12,0,,,,,,,,,,,uprightpiano01.jpg,witchhat.jpg,worldmap.jpg,rollerblade.jpg,honeybee.jpg,sandcastle.jpg,spiderweb.jpg,lily.jpg,raccoon.jpg,lizard.jpg,armadillo.jpg,chainsaw.jpg,eiffeltower.jpg,makiroll.jpg,microphone01.jpg,moose.jpg,penguin.jpg,136.8991984000004,139.64860810000027,139.3652877000004,None,1,0,13,139.8652616999998,None,139.8652616999998,None,.\resources\armadillo.jpg,143.3817213000002,None,1,143.3817213000002,None,left,1.6546234000006734,143.3817213000002,None,145.09866969999985,None,1,right,0.5055404999993698,145.09866969999985,None,145.09866969999985,None,145.63197209999998,None,None,146.6314975999996,None,146.6314975999996,None,,,,,,,,,,,,,,,,,,,,,,,,,,,,,,,,,,,,,,,,,,,,,,,,,,,,,,,,,,,,,,,,,13,001,2021_Apr_09_1120,AB_pic_singleT2,2021.1.2,59.98422414916361,
AB,lag1,1,3,4,0.2,0.05,0.5,,0,13,13,3,,,,,,,,,,,schoolbus.jpg,acorn.jpg,tent.jpg,fridge.jpg,stool01.jpg,duck01.jpg,cross01.jpg,football.jpg,jackrabbit.jpg,eyepatch.jpg,hotdogweiner.jpg,popcorn.jpg,exitsign.jpg,mummy.jpg,punchingbag.jpg,mailbox02.jpg,jeep.jpg,146.64817029999995,149.3984035000003,149.1150759000002,None,1,0,6,149.61466120000023,None,149.61466120000023,None,.\resources\fridge.jpg,151.38122550000026,None,1,151.38122550000026,None,left,1.3511231000002226,151.38122550000026,None,152.7478275000003,None,1,right,0.7604524999997011,152.7478275000003,None,152.7478275000003,None,153.53110039999956,None,None,154.53103049999953,None,154.53103049999953,None,,,,,,,,,,,,,,,,,,,,,,,,,,,,,,,,,,,,,,,,,,,,,,,,,,,,,,,,,,,,,,,,,13,001,2021_Apr_09_1120,AB_pic_singleT2,2021.1.2,59.98422414916361,
,,,,,,,,,,,,,,,,,,,,,,,,,,,,,,,,,,,,,,,,,,,,,,,,,,,,,,,,,,,,,,,,,,,,,,,,,,,,,space,5.455143500000304,154.54769980000037,None,,,,,,,,,,,,,,,,,,,,,,,,,,,,,,,,,,,,,,,,,,,,,,,,,,,,,,,,,,,,,13,001,2021_Apr_09_1120,AB_pic_singleT2,2021.1.2,59.98422414916361,
AB,lag6,6,5,11,0.2,0.05,0.5,ramp,,,,,0,0,0,0,,,,,,,jellyfish.jpg,bull.jpg,ostrich.jpg,dartboard.jpg,electricguitar01.jpg,ladder.jpg,waterfall.jpg,arrow02.jpg,stubbywrench01a.jpg,table01.jpg,dragonfly01.jpg,badmintonracket.jpg,sink.jpg,popcorn.jpg,redfox.jpg,fridge.jpg,bluejay.jpg,,,,,1,0,13,,,,,.\resources\dragonfly01.jpg,,,0,,,,,,,,,0,,,,,,,,,None,168.14691150000016,None,168.14691150000016,None,,,,,154.54769980000037,None,160.14778839999963,162.89721780000036,162.6305736000004,None,0.2,0.21585310000045865,0.2658547000000908,0.46583819999978004,0.5158356000001731,0.7158239000000322,0.7658209000001079,0.9658552999999301,1.0158534000001964,1.2157955000002403,1.2657931000003373,1.4657843000004505,1.5157790000002933,1.7157685000001948,1.7657681000000593,1.9657521999997698,2.0157498999997188,2.2157804999997097,2.2657358000005843,2.4657327000004443,2.515698899999734,2.7157081000004837,2.765707200000179,2.9656906999998682,3.015693000000283,3.215674900000522,3.265678700000535,3.465669500000331,3.5156634000004487,163.06388119999974,None,163.06388119999974,None,166.58038550000038,None,166.58038550000038,None,right,1.3198873999999705,166.58038550000038,None,167.94692209999994,None,left,0.16922620000059396,167.94692209999994,None,167.94692209999994,None,,,,,,13,001,2021_Apr_09_1120,AB_pic_singleT2,2021.1.2,59.98422414916361,
AB,lag4,4,4,8,0.19066666667,0.046667,0.48,ramp,,,,,0,1,1,1,,,,,,,spicerack.jpg,whiteout.jpg,raccoon.jpg,bluejay.jpg,pingpongtable.jpg,mrpotatohead.jpg,mailbox02.jpg,penguin.jpg,wheelbarrow01.jpg,licenseplate.jpg,harmonica.jpg,bridge.jpg,golfball.jpg,toolbox02.jpg,ear.jpg,dalmatian.jpg,drumstick.jpg,,,,,1,1,10,,,,,.\resources\penguin.jpg,,,1,,,,,,,,,0,,,,,,,,,None,175.61362109999953,None,175.61362109999953,None,,,,,,,168.16357729999982,170.91390789999969,170.6474801000004,None,0.19066666667,0.19743300000027375,0.24742520000017976,0.4307195999999749,0.4807032999997318,0.680757299999641,0.7140442999998413,0.9140310000002501,0.9640249000003678,1.1474840999999287,1.1974460000001272,1.3806617999998707,1.430699800000184,1.6306441999995513,1.6639750000003914,1.863962000000356,1.9139594999996916,2.0973339000001943,2.147345200000018,2.3306265000001076,2.38060299999961,2.5805951000002096,2.6139212999996744,,,,,,,171.1638995000003,None,171.1638995000003,None,173.77993630000037,None,173.77993630000037,None,left,1.5922056999997949,173.77993630000037,None,175.41359809999994,None,right,0.18270430000029592,175.41359809999994,None,175.41359809999994,None,,,,,,13,001,2021_Apr_09_1120,AB_pic_singleT2,2021.1.2,59.98422414916361,
AB,lag7,7,4,11,0.18133333334,0.043334,0.45999999999999996,ramp,,,,,0,2,2,2,,,,,,,doghouse.jpg,bullet.jpg,surfboard.jpg,saltshaker03a.jpg,marble.jpg,pig.jpg,christmastree.jpg,parkfountain.jpg,hotdogweiner.jpg,redfox.jpg,bluecheese.jpg,drumstick.jpg,helicopter.jpg,sausage.jpg,horse.jpg,lollipop04.jpg,mouse.jpg,,,,,0,1,13,,,,,.\resources\bluecheese.jpg,,,1,,,,,,,,,1,,,,,,,,,None,182.57945349999972,None,182.57945349999972,None,,,,,,,175.63028380000014,178.3796996000001,178.11301269999967,None,0.18133333334,0.19625559999985853,0.22962890000053449,0.41288650000024063,0.46288689999983035,0.6462049000001571,0.6795883000004324,0.8628712999998243,0.9128639999998995,1.096187799999825,1.1295739000006506,1.3128483999998934,1.3628397000002224,1.5295503000006647,1.5795480000006137,1.7628099000003203,1.8128113000002486,1.9795215000003736,2.0295122000006813,2.212785600000643,2.2627904999999373,2.4294957000001887,2.4794959000000745,2.662771000000248,2.696095199999945,2.879418500000611,2.929468199999974,3.1127402000001894,3.1460868000003757,178.62964780000038,None,178.62964780000038,None,181.77947229999972,None,181.77947229999972,None,right,0.5286310999999841,181.77947229999972,None,182.34610489999977,None,left,0.20219900000029156,182.34610489999977,None,182.34610489999977,None,-27.747710406684426,146.33193657902984,,,,13,001,2021_Apr_09_1120,AB_pic_singleT2,2021.1.2,59.98422414916361,
AB,lag5,5,5,10,0.17200000001000001,0.040000999999999995,0.43999999999999995,ramp,,,,,0,3,3,3,,,,,,,soccerball.jpg,trumpet.jpg,cow.jpg,toyanimal05.jpg,cross01.jpg,parkingmeter.jpg,tortoise01.jpg,panda.jpg,uprightpiano01.jpg,bridge.jpg,snowboard.jpg,xylophone.jpg,athleticsock.jpg,honeybee.jpg,beerbottle.jpg,foosballtable.jpg,footballhelmet.jpg,,,,,0,1,12,,,,,.\resources\bridge.jpg,,,1,,,,,,,,,1,,,,,,,,,None,190.96269260000025,None,190.96269260000025,None,,,,,,,182.5960938999997,185.34593080000013,185.07931000000008,None,0.17200000001000001,0.17940420000013546,0.21278970000003028,0.3960607999997592,0.4293887000003451,0.5960901999997077,0.646039600000222,0.8126996999999392,0.862750799999958,1.0293598999996902,1.0627360999997109,1.2460093999998207,1.2793397000004916,1.445998199999849,1.4959914999999455,1.662699900000007,1.712697500000104,1.8792997999998988,1.9126391999998305,2.0959600000005594,2.1292926000005536,2.295948699999826,2.345959899999798,2.512652000000344,2.5459326999998666,2.7292702000004283,2.762632500000109,,,185.59591629999977,None,185.59591629999977,None,188.36241809999956,None,188.36241809999956,None,right,0.9539235000002009,188.36241809999956,None,189.37902529999974,None,left,1.5452552999995532,189.37902529999974,None,189.37902529999974,None,-26.59298461560292,146.2013061421497,,,,13,001,2021_Apr_09_1120,AB_pic_singleT2,2021.1.2,59.98422414916361,
AB,lag2,2,3,5,0.16266666668000002,0.03666799999999999,0.41999999999999993,ramp,,,,,0,4,4,4,,,,,,,bed.jpg,popcorn.jpg,slug.jpg,trumpet.jpg,lizard.jpg,jeep.jpg,airhockeytable.jpg,tricycle.jpg,drumset.jpg,hulahoop.jpg,horseshoe.jpg,car.jpg,hotdogweiner.jpg,stool01.jpg,turnstile.jpg,foot.jpg,seal.jpg,,,,,1,0,7,,,,,.\resources\lizard.jpg,,,1,,,,,,,,,0,,,,,,,,,None,201.6120173000001,None,201.6120173000001,None,,,,,,,190.97937029999957,193.72880629999963,193.46212250000008,None,0.16266666668000002,0.16329789999963396,0.2132965000000695,0.36328409999987343,0.4132795999994414,0.5632697999999436,0.6132691999991948,0.7632610999999088,0.8132612999997946,0.9632588999993459,1.0132487000000765,1.163240599999881,1.1965682000000015,1.3633012000000235,1.396555599999374,1.563216999999895,1.5965452999998888,,,,,,,,,,,,,193.9787637999998,None,193.9787637999998,None,195.57866709999962,None,195.57866709999962,None,left,1.721422600000551,195.57866709999962,None,197.34519720000026,None,left,4.218892199999573,197.34519720000026,None,197.34519720000026,None,-25.371274489119195,145.95020190329018,,,,13,001,2021_Apr_09_1120,AB_pic_singleT2,2021.1.2,59.98422414916361,
AB,lag3,3,5,8,0.15333333335000002,0.03333499999999999,0.3999999999999999,ramp,,,,,0,5,5,5,,,,,,,parrot01.jpg,lawnmower.jpg,callbell.jpg,christmaslights.jpg,dandelion.jpg,englishcucumber.jpg,spear02.jpg,xylophone.jpg,musicsheet.jpg,chefshat.jpg,icecube02.jpg,coffeemaker.jpg,cloud.jpg,fortunecookie.jpg,lighthouse.jpg,sword01.jpg,boxingglove01.jpg,,,,,0,0,10,,,,,.\resources\xylophone.jpg,,,1,,,,,,,,,0,,,,,,,,,None,207.89459959999948,None,207.89459959999948,None,,,,,,,201.62869429999955,204.37812089999989,204.11147319999964,None,0.15333333335000002,0.16190939999978582,0.19529550000061136,0.3452664000005825,0.37856420000025537,0.5285546000004615,0.5618893000000753,0.728541899999982,0.7618730000003779,0.9118625000000975,0.9452416000003723,1.0952392999997755,1.1285566000005929,1.2785052999997788,1.3118503000005148,1.4618295999998736,1.4952232000005097,1.6618448999997781,1.6952057999997123,1.8452224000002388,1.8784727000002022,2.028467300000557,2.061828599999899,,,,,,,204.6281108000003,None,204.6281108000003,None,206.69465359999958,None,206.69465359999958,None,right,0.6694657000007282,206.69465359999958,None,207.39460979999967,None,left,0.473548099999789,207.39460979999967,None,207.39460979999967,None,-24.04718204848643,145.62087948832053,,,,13,001,2021_Apr_09_1120,AB_pic_singleT2,2021.1.2,59.98422414916361,
AB,lag1,1,4,5,0.14400000002000002,0.03000199999999999,0.3799999999999999,ramp,,,,,0,6,6,6,,,,,,,microwave.jpg,frisbee.jpg,trophy01.jpg,humanskeleton.jpg,lightswitch01.jpg,rollerblade.jpg,boxingglove01.jpg,worldmap.jpg,apron.jpg,windmill.jpg,birdnest.jpg,ducttape.jpg,swing.jpg,toolbox02.jpg,pig.jpg,tiger02.jpg,key07.jpg,,,,,0,0,7,,,,,.\resources\lightswitch01.jpg,,,1,,,,,,,,,1,,,,,,,,,None,213.97756839999983,None,213.97756839999983,None,,,,,,,207.91124430000036,210.6610897999999,210.3944752999996,None,0.14400000002000002,0.14518970000062836,0.17854480000005424,0.32852490000004764,0.36187210000025516,0.49519750000035856,0.5284805999999662,0.6785127000002831,0.7118028000004415,0.8451730000006137,0.8785329000002093,1.0284494000006816,1.0451182000006156,1.1951066999999966,1.2284589000000778,1.3784327000003032,1.395134300000791,,,,,,,,,,,,,210.91107350000038,None,210.91107350000038,None,212.31098779999957,None,212.31098779999957,None,right,0.8610410000001139,212.31098779999957,None,213.2109360000004,None,right,0.7371416000005411,213.2109360000004,None,213.2109360000004,None,-22.662794270889968,145.23206972382684,,,,13,001,2021_Apr_09_1120,AB_pic_singleT2,2021.1.2,59.98422414916361,
AB,lag6,6,5,11,0.13466666669000002,0.02666899999999999,0.3599999999999999,ramp,,,,,0,7,7,7,,,,,,,chimney.jpg,motorcycle.jpg,chainsaw.jpg,scorpion.jpg,vacuumcleaner01.jpg,toolbox02.jpg,africanelephant.jpg,crown.jpg,scooter.jpg,key07.jpg,discoball.jpg,nose.jpg,fishskeleton.jpg,spiderweb.jpg,marble.jpg,bench01.jpg,lawnmower.jpg,,,,,0,1,13,,,,,.\resources\discoball.jpg,,,1,,,,,,,,,1,,,,,,,,,None,221.24426630000033,None,221.24426630000033,None,,,,,,,213.9942172000001,216.74414669999987,216.47746720000032,None,0.13466666669000002,0.14630810000016936,0.16297500000018772,0.29634970000006433,0.32969410000077914,0.4629579000002195,0.496285700000044,0.6296625000004497,0.6462847000002512,0.7962668000000122,0.8129702000005636,0.9462750000002416,0.979639700000007,1.112912800000231,1.129635600000256,1.2795991000002687,1.2962653000004138,1.4295885000001363,1.4628661000006105,1.5961999000001015,1.6295780000000377,1.7628496000006635,1.77957140000035,1.912839000000531,1.9461761000002298,2.079540200000338,2.112827200000538,2.2461646000001565,2.26282110000011,216.99410369999987,None,216.99410369999987,None,219.260628,None,219.260628,None,right,1.2074182999995173,219.260628,None,220.5109683999999,None,left,0.7011787000001277,220.5109683999999,None,220.5109683999999,None,-21.256143392492845,144.8021499432063,,,,13,001,2021_Apr_09_1120,AB_pic_singleT2,2021.1.2,59.98422414916361,
AB,lag3,3,4,7,0.12533333336000002,0.023335999999999992,0.33999999999999986,ramp,,,,,0,8,8,8,,,,,,,jeep.jpg,chair.jpg,tarantula.jpg,frenchfries.jpg,volleyball.jpg,stubbywrench01a.jpg,waterfall.jpg,barrel01.jpg,ant.jpg,dromedary.jpg,discoball.jpg,bullet.jpg,anchor.jpg,triangle.jpg,musicsheet.jpg,tree.jpg,birdfeeder.jpg,,,,,0,0,9,,,,,.\resources\waterfall.jpg,,,1,,,,,,,,,1,,,,,,,,,None,226.89351000000005,None,226.89351000000005,None,,,,,,,221.26092400000016,224.01032980000036,223.74367749999965,None,0.12533333336000002,0.12835600000016711,0.16174490000048536,0.2784079000002748,0.31167960000038875,0.4283364000002621,0.4617247000005591,0.5783298000005743,0.5949977000000217,0.7283244000000195,0.7449905000003127,0.8783122000004369,0.8949834000004557,1.0283207000002221,1.045029599999907,1.178294299999834,1.1950100000003658,1.3283024000002115,1.344958399999996,1.4782790999997815,1.494949099999758,,,,,,,,,224.26031559999956,None,224.26031559999956,None,225.76022840000041,None,225.76022840000041,None,right,0.9477738999994472,225.76022840000041,None,226.72684610000033,None,right,0.14919000000008964,226.72684610000033,None,226.72684610000033,None,-19.843883457903175,144.33153662827576,,,,13,001,2021_Apr_09_1120,AB_pic_singleT2,2021.1.2,59.98422414916361,
AB,lag4,4,4,8,0.11600000003000002,0.020002999999999993,0.31999999999999984,ramp,,,,,0,9,9,9,,,,,,,escalator.jpg,sandcastle.jpg,makiroll.jpg,waterfall.jpg,cheetah.jpg,corn02.jpg,arrow02.jpg,foosballtable.jpg,cruiseship.jpg,floorlamp.jpg,flamingo.jpg,cow.jpg,car.jpg,uprightpiano01.jpg,cork02.jpg,ipad02.jpg,foot.jpg,,,,,0,0,10,,,,,.\resources\foosballtable.jpg,,,1,,,,,,,,,1,,,,,,,,,None,231.79323829999993,None,231.79323829999993,None,,,,,,,226.9101628999997,229.66000090000034,229.39339389999986,None,0.11600000003000002,0.12948289999985718,0.14609359999940352,0.2627526999995098,0.27942069999971864,0.3960743999996339,0.41276419999940117,0.5294065999996747,0.5460741999995662,0.6627350999997361,0.6960623999993913,0.7960583999993105,0.8293870999996216,0.9460470999993049,0.9627100999996401,1.079427499999838,1.0960377000001245,1.2127095999994708,1.2293657000000167,1.3460230000000593,1.3626865999995061,1.4793365999994421,1.5126837999996496,,,,,,,229.90998459999992,None,229.90998459999992,None,231.4265637999997,None,231.4265637999997,None,right,0.16946360000019922,231.4265637999997,None,231.6432160000004,None,right,0.12881190000007336,231.6432160000004,None,231.6432160000004,None,-18.434100010661865,143.8288223484393,,,,13,001,2021_Apr_09_1120,AB_pic_singleT2,2021.1.2,59.98422414916361,
AB,lag5,5,4,9,0.10666666670000002,0.016669999999999994,0.2999999999999998,ramp,,,,,0,10,10,10,,,,,,,urinal.jpg,microwave.jpg,trumpet.jpg,dandelion.jpg,dragonfly01.jpg,sink.jpg,boxingglove01.jpg,ladybug03.jpg,tie02.jpg,birthdaycandle.jpg,bullet.jpg,corn02.jpg,lawnmower.jpg,toucan.jpg,worldmap.jpg,crab01.jpg,acousticguitar02.jpg,,,,,0,0,11,,,,,.\resources\tie02.jpg,,,1,,,,,,,,,1,,,,,,,,,None,236.8429134,None,236.8429134,None,,,,,,,231.80987490000007,234.55971229999977,234.29309980000016,None,0.10666666670000002,0.11255090000031487,0.1292724000004455,0.24587760000031267,0.26254599999992934,0.36254420000022947,0.3792436000003363,0.4792539999998553,0.4958581000000777,0.6125207000004593,0.6292401999999129,0.7292365000002974,0.7458472999996957,0.8625173999998879,0.8791768000000957,0.9792206000001897,0.9958385999998427,1.0958269000002474,1.1124995999998646,1.229210499999681,1.245833400000265,1.3458014999996522,1.3624786999998832,1.4791268999997556,1.4958016999999018,,,,,234.80969559999994,None,234.80969559999994,None,236.3096161000003,None,236.3096161000003,None,right,0.31045779999931256,236.3096161000003,None,236.6595887000003,None,right,0.13656619999983377,236.6595887000003,None,236.6595887000003,None,-17.03072933631408,143.3014642471398,,,,13,001,2021_Apr_09_1120,AB_pic_singleT2,2021.1.2,59.98422414916361,
AB,lag2,2,3,5,0.09733333337000002,0.013336999999999995,0.3,ramp,,,,,0,11,11,11,,,,,,,table01.jpg,tree.jpg,jackrabbit.jpg,soccerball.jpg,turnstile.jpg,footballhelmet.jpg,polarbear.jpg,boat.jpg,whiteout.jpg,hotdogweiner.jpg,snowboard.jpg,ironingboard01.jpg,paperairplane.jpg,bluejay.jpg,humanskeleton.jpg,calendar.jpg,bluecheese.jpg,,,,,0,1,7,,,,,.\resources\turnstile.jpg,,,1,,,,,,,,,1,,,,,,,,,None,241.89261709999954,None,241.89261709999954,None,,,,,,,236.85957870000038,239.60945269999957,239.34277180000026,None,0.09733333337000002,0.11224990000027901,0.12896340000042983,0.21224230000007083,0.2289621999998417,0.32895379999990837,0.3455749000004289,0.4455594999999448,0.4622269999999844,0.5455573999997796,0.5622229999999035,0.6622199000003093,0.6789376000006087,0.7622071000005235,0.778878000000077,0.878916499999832,0.8955401000002894,,,,,,,,,,,,,239.8594089999997,None,239.8594089999997,None,240.75935409999965,None,240.75935409999965,None,right,0.9407710999994379,240.75935409999965,None,241.7592924999999,None,left,0.0848563000008653,241.7592924999999,None,241.7592924999999,None,-15.634671500841042,142.74837235102868,,,,13,001,2021_Apr_09_1120,AB_pic_singleT2,2021.1.2,59.98422414916361,
AB,lag1,1,4,5,0.08800000004000003,0.010003999999999996,0.3,ramp,,,,,0,12,12,12,,,,,,,chefshat.jpg,bowlingball.jpg,lightswitch01.jpg,key07.jpg,penguin.jpg,scorpion.jpg,bumpercar.jpg,statue.jpg,urinal.jpg,beaver.jpg,magneticcompass.jpg,mouse.jpg,hulahoop.jpg,vulture.jpg,footballhelmet.jpg,kite.jpg,jackrabbit.jpg,,,,,0,0,7,,,,,.\resources\penguin.jpg,,,1,,,,,,,,,1,,,,,,,,,None,246.47570749999994,None,246.47570749999994,None,,,,,,,241.90928460000032,244.6591513000003,244.39247350000005,None,0.08800000004000003,0.09628149999934976,0.11294659999930445,0.1962720999999874,0.21298949999982142,0.29626489999918704,0.31293339999956515,0.39625899999919056,0.4129276999992726,0.4962569999997868,0.5129197999995085,0.5796339999997144,0.5962465999991764,0.6796220999995057,0.6962415999996665,0.7795678999991651,0.7962401999993745,,,,,,,,,,,,,244.9091083000003,None,244.9091083000003,None,245.70906379999997,None,245.70906379999997,None,right,0.5910744000002524,245.70906379999997,None,246.35902929999975,None,right,0.08514140000079351,246.35902929999975,None,246.35902929999975,None,-14.246365077632047,142.1675998478662,,,,13,001,2021_Apr_09_1120,AB_pic_singleT2,2021.1.2,59.98422414916361,
AB,lag7,7,5,12,0.07866666671000003,0.0066709999999999955,0.3,ramp,,,,,0,13,13,13,,,,,,,zebra.jpg,cannon.jpg,toyanimal05.jpg,ladybug03.jpg,skateboard.jpg,cobra.jpg,greatwhiteshark.jpg,cruiseship.jpg,rollerblade.jpg,snowman.jpg,sandcastle.jpg,electrictoothbrush01c.jpg,boat.jpg,christmaslights.jpg,humanskeleton.jpg,fishingrod.jpg,holdfast.jpg,,,,,0,0,14,,,,,.\resources\electrictoothbrush01c.jpg,,,1,,,,,,,,,1,,,,,,,,,None,251.35876649999972,None,251.35876649999972,None,,,,,,,246.49234890000025,249.24218790000032,248.9755353999999,None,0.07866666671000003,0.09396699999979319,0.11057230000005802,0.17724279999947612,0.19395900000017718,0.26056139999946026,0.27723429999969085,0.3439485999997487,0.36056339999959164,0.4272270000001299,0.4439440999994986,0.5105570999994598,0.5272169999998368,0.5938876000000164,0.6105453000000125,0.6772094999996625,0.6939338000001953,0.7772034999998141,0.7939244999997754,0.8605271999995239,0.8771982999996908,0.9438634999996793,0.9605430000001434,1.027188699999897,1.0439105999994354,1.110510699999395,1.1271855999993932,1.193904400000065,1.2105083999995259,249.49217399999998,None,249.49217399999998,None,250.79209269999956,None,250.79209269999956,None,right,0.37991109999984474,250.79209269999956,None,251.20874420000018,None,right,0.13151620000007824,251.20874420000018,None,251.20874420000018,None,-12.867815621488162,141.56464240340745,1.2771757000000434,1.2938462000001891,,13,001,2021_Apr_09_1120,AB_pic_singleT2,2021.1.2,59.98422414916361,
AB,lag1,1,3,4,0.06933333338000003,0.0033379999999999955,0.3,ramp,,,,,0,14,14,14,,,,,,,skunk.jpg,dandelion.jpg,crosscountryski.jpg,cobra.jpg,alligator.jpg,makiroll.jpg,toad.jpg,trophy01.jpg,safe.jpg,sink.jpg,chainsaw.jpg,car.jpg,swing.jpg,recyclingbin.jpg,jeans01.jpg,ipad02.jpg,sheep.jpg,,,,,0,1,6,,,,,.\resources\cobra.jpg,,,1,,,,,,,,,1,,,,,,,,,None,257.40881889999963,None,257.40881889999963,None,,,,,,,251.37539230000039,254.12523220000003,253.8586191000004,None,0.06933333338000003,0.0781306000008044,0.09479580000061105,0.14478990000043268,0.16151020000052085,0.22811020000062854,0.2447851000006267,0.29478890000063984,0.31144880000010744,0.3614500000003318,0.37811099999998987,0.4447732000007818,0.46156150000024354,0.5114879000002475,0.5281251000005796,,,,,,,,,,,,,,,254.37523020000026,None,254.37523020000026,None,254.90852069999983,None,254.90852069999983,None,right,2.3274498999999196,254.90852069999983,None,257.2754746999999,None,left,0.11256419999972422,257.2754746999999,None,257.2754746999999,None,-11.499524575952627,140.94087463654787,,,,13,001,2021_Apr_09_1120,AB_pic_singleT2,2021.1.2,59.98422414916361,
AB,lag6,6,5,11,0.06000000005000003,0,0.3,main,,,,,0,15,15,15,,,,,,,jeans01.jpg,cactus.jpg,hammerheadshark.jpg,daddylonglegs.jpg,boxingglove01.jpg,bull.jpg,flag.jpg,jackrabbit.jpg,toolbox02.jpg,leafrake.jpg,nose.jpg,airhockeytable.jpg,witchhat.jpg,harmonica.jpg,swordfish.jpg,dormer.jpg,telescope.jpg,,,,,0,0,13,,,,,.\resources\nose.jpg,,,1,,,,,,,,,1,,,,,,,,,None,262.25811790000006,None,262.25811790000006,None,,,,,,,257.4421384999996,260.1915455999997,259.90826019999986,None,0.08574723287294121,0.09508669999922859,0.11174909999954252,0.1783966999992117,0.19508489999952872,0.26175339999917924,0.27840939999987313,0.3450770999997985,0.3617341999997734,0.44506579999961104,0.461782200000016,0.5284367999993265,0.5450616999996782,0.6117715999998836,0.628421200000048,0.6950563999998849,0.7117556999992303,0.7784284999997908,0.7950612999993609,0.8617064999998547,0.8784235999992234,0.9450462999993761,0.9616989999994985,1.0450289999998859,1.0616964999999254,1.1284143999992011,1.1450207999996564,1.2116856999991796,1.2283995999996478,260.4248679000002,None,260.4248679000002,None,261.65812840000035,None,261.65812840000035,None,right,0.4258775999996942,261.65812840000035,None,262.12473859999955,None,right,0.11120910000045114,262.12473859999955,None,262.12473859999955,None,-10.143508651402177,140.3015662240723,,,,13,001,2021_Apr_09_1120,AB_pic_singleT2,2021.1.2,59.98422414916361,
AB,lag1,1,5,6,0.06000000005000003,0,0.3,main,,,,,0,16,16,16,,,,,,,statue.jpg,boat.jpg,apron.jpg,athleticsock.jpg,birdnest.jpg,shower.jpg,dromedary.jpg,dartboard.jpg,masquerademask01.jpg,fishingrod.jpg,scorpion.jpg,anchor.jpg,alligator.jpg,electricguitar01.jpg,saltshaker03a.jpg,mummy.jpg,bowtie.jpg,,,,,0,0,8,,,,,.\resources\shower.jpg,,,1,,,,,,,,,1,,,,,,,,,None,266.9745149000002,None,266.9745149000002,None,,,,,,,262.27473089999967,265.0246215999996,264.7579718999996,None,0.08451900581092527,0.0957949000003282,0.1123886000004859,0.1791047000006074,0.195701900000131,0.2623751999999513,0.27904560000024503,0.3457054999998945,0.3624305000003005,0.4290320999998585,0.4457294000003458,0.5123612000006688,0.5290830000003552,0.5956820000001244,0.612397100000635,0.6790883000003305,0.6956905000006373,0.7623699000005217,0.7790134000006219,,,,,,,,,,,265.27460020000035,None,265.27460020000035,None,266.0579067999997,None,266.0579067999997,None,right,0.7141729999993913,266.0579067999997,None,266.8078585000003,None,right,0.14815749999979744,266.8078585000003,None,266.8078585000003,None,-9.864716640322177,139.62519803738576,,,,13,001,2021_Apr_09_1120,AB_pic_singleT2,2021.1.2,59.98422414916361,
AB,lag5,5,3,8,0.06000000005000003,0,0.3,main,,,,,0,17,17,17,,,,,,,hockeystick.jpg,tank.jpg,tortoise01.jpg,wallclock.jpg,kite.jpg,bow.jpg,toucan.jpg,anchor.jpg,helicopter.jpg,rubikcube.jpg,donut.jpg,cow.jpg,sheep.jpg,apron.jpg,triangle.jpg,tree.jpg,chefshat.jpg,,,,,1,1,10,,,,,.\resources\anchor.jpg,,,1,,,,,,,,,0,,,,,,,,,None,271.80757420000026,None,271.80757420000026,None,,,,,,,266.99117490000026,269.7409981999999,269.4743576000001,None,0.08242535302994405,0.09569749999991473,0.11235359999955108,0.1790301000000909,0.19568960000015068,0.26240710000001854,0.2790200999997978,0.3456789000001663,0.3624015999994299,0.4123338999997941,0.42900879999979225,0.4956628999998429,0.5124054999996588,0.5789982999995118,0.5956694999995307,0.66238710000016,0.678994099999727,0.745669099999759,0.7623794000000998,0.8289814999998271,0.845649400000184,0.9123720999996294,0.928976799999873,,,,,,,269.9909969999999,None,269.9909969999999,None,270.9242709,None,270.9242709,None,left,0.7197330999997575,270.9242709,None,271.69089840000015,None,right,0.08905869999944116,271.69089840000015,None,271.69089840000015,None,-9.638454557826895,138.98982282876486,,,,13,001,2021_Apr_09_1120,AB_pic_singleT2,2021.1.2,59.98422414916361,
AB,lag3,3,4,7,0.06000000005000003,0,0.3,main,,,,,0,18,18,18,,,,,,,airhockeytable.jpg,sink.jpg,baseballbat.jpg,tree.jpg,calendar.jpg,jeep.jpg,honeybee.jpg,foldingchair.jpg,pigeon.jpg,dandelion.jpg,mattress.jpg,treadmill.jpg,bullet.jpg,helicopter.jpg,tank.jpg,spicerack.jpg,telescope.jpg,,,,,0,0,9,,,,,.\resources\honeybee.jpg,,,1,,,,,,,,,1,,,,,,,,,None,276.2073022999995,None,276.2073022999995,None,,,,,,,271.82423409999956,274.5740641000002,274.30743379999967,None,0.0775139266218405,0.07761409999966418,0.0942773999995552,0.160937699999522,0.17766239999946265,0.2442681000002267,0.260941599999569,0.3109315000001516,0.32765589999962685,0.39426110000022163,0.4109269000000495,0.4775853000001007,0.4942537999995693,0.5442542000000685,0.5609139999996842,0.6276299000001018,0.6442453999998179,0.7109104000001025,0.7276166000001467,0.7776198000001386,0.7942420999997921,,,,,,,,,274.82404529999985,None,274.82404529999985,None,275.6240017,None,275.6240017,None,right,0.39602239999931044,275.6240017,None,276.0573070999999,None,right,0.10685449999982666,276.0573070999999,None,276.0573070999999,None,-9.41218748466102,138.39681024088043,,,,13,001,2021_Apr_09_1120,AB_pic_singleT2,2021.1.2,59.98422414916361,
AB,lag2,2,5,7,0.06000000005000003,0,0.3,main,,,,,0,19,19,19,,,,,,,surfboard.jpg,soccerball.jpg,scooter.jpg,sledgehammer.jpg,cigar.jpg,jeans01.jpg,spicerack.jpg,parachute.jpg,cymbal.jpg,crown.jpg,cashregister01.jpg,nunchuk.jpg,electrictoothbrush01c.jpg,acousticguitar02.jpg,knee.jpg,lily.jpg,mrpotatohead.jpg,,,,,1,0,9,,,,,.\resources\spicerack.jpg,,,1,,,,,,,,,1,,,,,,,,,None,281.70732590000006,None,281.70732590000006,None,,,,,,,276.2239860999998,278.97380499999963,278.7071539999997,None,0.071310314408677,0.07896739999978308,0.09557870000026014,0.14557710000008228,0.16224740000052407,0.2289470000005167,0.24560990000009042,0.29557089999980235,0.31223969999973633,0.36223510000036185,0.37895709999975224,0.42895080000016605,0.44560360000014043,0.5122268000004624,0.5289457999997467,0.578886500000408,0.5955298999997467,0.6455238999997164,0.662194499999714,0.7289068999998563,0.745516800000587,,,,,,,,,279.2237954000002,None,279.2237954000002,None,279.9737216000003,None,279.9737216000003,None,left,1.574200999999448,279.9737216000003,None,281.59066520000033,None,right,0.093250299999454,281.59066520000033,None,281.59066520000033,None,-9.120910825603586,137.8404006421502,,,,13,001,2021_Apr_09_1120,AB_pic_singleT2,2021.1.2,59.98422414916361,
AB,lag4,4,3,7,0.06000000005000003,0,0.3,main,,,,,0,20,20,20,,,,,,,fishskeleton.jpg,kneepad01c.jpg,penguin.jpg,porcupine.jpg,dragonfly01.jpg,saxophone.jpg,rubikcube.jpg,schoolbus.jpg,pig.jpg,duck01.jpg,toucan.jpg,skippingrope.jpg,ceilingfan01.jpg,jeans01.jpg,shower.jpg,xylophone.jpg,whiteout.jpg,,,,,0,1,9,,,,,.\resources\rubikcube.jpg,,,1,,,,,,,,,1,,,,,,,,,None,286.45664380000034,None,286.45664380000034,None,,,,,,,281.7240015999996,284.4734287000001,284.2067777000002,None,0.07442294357819734,0.07875030000013794,0.09538840000004711,0.16204339999967488,0.1787002000000939,0.22869830000036018,0.24536619999980758,0.31202659999962634,0.32873769999969227,0.37873450000006414,0.39537360000031185,0.4620164999996632,0.47872889999962354,0.5286778999998205,0.5453472999997757,0.6120091000002503,0.6287240999999995,0.6786754000004294,0.6953376000001299,0.7453408999999738,0.7620067999996536,,,,,,,,,284.7234179999996,None,284.7234179999996,None,285.4900365000003,None,285.4900365000003,None,right,0.7860977999998795,285.4900365000003,None,286.3233207000003,None,left,0.09663779999937105,286.3233207000003,None,286.3233207000003,None,-8.72287914786798,137.31361348651586,,,,13,001,2021_Apr_09_1120,AB_pic_singleT2,2021.1.2,59.98422414916361,
AB,lag7,7,5,12,0.06000000005000003,0,0.3,main,,,,,0,21,21,21,,,,,,,lily.jpg,foldingchair.jpg,drumset.jpg,waterfountain02.jpg,cigar.jpg,bed.jpg,cat.jpg,turnstile.jpg,stubbywrench01a.jpg,birdhouse.jpg,football.jpg,wheelbarrow01.jpg,tent.jpg,flamingo.jpg,dartboard.jpg,foot.jpg,crown.jpg,,,,,1,1,14,,,,,.\resources\wheelbarrow01.jpg,,,1,,,,,,,,,0,,,,,,,,,None,291.42304189999976,None,291.42304189999976,None,,,,,,,286.4733119000002,289.2231880999998,288.95650039999964,None,0.07104216343680843,0.07861160000084055,0.09528090000003431,0.14531980000083422,0.1619380000001911,0.2285992000006445,0.24526820000028238,0.29525069999999687,0.31195000000025175,0.3619295000007696,0.3786472000001595,0.4285869000004823,0.44525510000039503,0.5119198000002143,0.5285827000006975,0.578579300000456,0.5952465000000302,0.6453107000006639,0.6619157000004634,0.7119052000007287,0.72862620000069,0.7952253000003111,0.8119061000006695,0.8619064000004073,0.8785673000002134,0.9285620000000563,0.9452802000005249,0.9952261000007638,1.0119119000000865,289.4731431,None,289.4731431,None,290.57307539999965,None,290.57307539999965,None,left,0.6787841999994271,290.57307539999965,None,291.2896956000004,None,right,0.11419810000006692,291.2896956000004,None,291.2896956000004,None,-8.480383363204199,136.79785219339072,1.0785549000001993,1.0952156000003015,,13,001,2021_Apr_09_1120,AB_pic_singleT2,2021.1.2,59.98422414916361,
AB,lag6,6,5,11,0.06000000005000003,0,0.3,main,,,,,0,22,22,22,,,,,,,squid.jpg,windmill.jpg,football.jpg,skateboard.jpg,cigar.jpg,bowtie.jpg,elbow.jpg,totempole.jpg,kangaroo.jpg,microphone01.jpg,acousticguitar02.jpg,ceilingfan01.jpg,sausage.jpg,christmastree.jpg,nunchuk.jpg,xylophone.jpg,africanelephant.jpg,,,,,0,0,13,,,,,.\resources\acousticguitar02.jpg,,,1,,,,,,,,,1,,,,,,,,,None,298.42264470000026,None,298.42264470000026,None,,,,,,,291.43972909999957,294.1895241000002,293.9228740999997,None,0.07084843168828997,0.07770470000014029,0.0943133000000671,0.14429250000011962,0.16097509999963222,0.2276302999998734,0.2443094000000201,0.294307199999821,0.31096720000005007,0.3609599999999773,0.37763149999955203,0.42770000000018626,0.4442877999999837,0.5109568999996554,0.5276195999995252,0.5776667999998608,0.5942844999999579,0.6442813000003298,0.6609434000001784,0.7109491000001071,0.727662600000258,0.7942716999996264,0.810947799999667,0.8609306999996988,0.877654199999597,0.9276477000003069,0.9443031000000701,0.994254500000352,1.0109248999997362,294.4395064,None,294.4395064,None,295.4561567999999,None,295.4561567999999,None,right,1.3797036999994816,295.4561567999999,None,296.8727038999996,None,right,1.5232009000001199,296.8727038999996,None,296.8727038999996,None,-8.208359897811864,136.30549033884384,,,,13,001,2021_Apr_09_1120,AB_pic_singleT2,2021.1.2,59.98422414916361,
AB,lag7,7,5,12,0.06000000005000003,0,0.3,main,,,,,0,23,23,23,,,,,,,tricycle.jpg,urinal.jpg,worldmap.jpg,microphone01.jpg,cocktailshrimp02.jpg,windmill.jpg,jellyfish.jpg,butterfly.jpg,greatwhiteshark.jpg,beerbottle.jpg,surfboard.jpg,icecube02.jpg,acousticguitar02.jpg,leafrake.jpg,toyanimal05.jpg,wallclock.jpg,swordfish.jpg,,,,,1,0,14,,,,,.\resources\icecube02.jpg,,,1,,,,,,,,,1,,,,,,,,,None,305.02224570000016,None,305.02224570000016,None,,,,,,,298.43965800000024,301.1891169999999,300.92249400000037,None,0.07311372592244457,0.0775855000001684,0.09418949999962933,0.1608568000001469,0.17752350000046135,0.22756079999999201,0.2441847999998572,0.2941828000002715,0.3109070000000429,0.3775593000000299,0.39417890000004263,0.4441680999998425,0.46090949999961595,0.5275573999997505,0.544147200000225,0.5941916000001584,0.6108277000003,0.6608267999999953,0.6775735999999597,0.7441570999999385,0.7608189000002312,0.810816000000159,0.8274874999997337,0.8775250999997297,0.894143399999848,0.9608479999997144,0.9775231000003259,1.0275478000003204,1.0441377999995893,301.4390991,None,301.4390991,None,302.57236999999986,None,302.57236999999986,None,left,1.7834842000002027,302.57236999999986,None,304.3889294999999,None,right,0.6149758999999904,304.3889294999999,None,304.3889294999999,None,-7.9755192743110515,135.8305746663349,1.110828599999877,1.1275158999997075,,13,001,2021_Apr_09_1120,AB_pic_singleT2,2021.1.2,59.98422414916361,
AB,lag5,5,3,8,0.06000000005000003,0,0.3,main,,,,,0,24,24,24,,,,,,,cork02.jpg,ipad02.jpg,boat.jpg,cobra.jpg,crosscountryski.jpg,cymbal.jpg,chair.jpg,safe.jpg,firehydrant.jpg,soccerball.jpg,flamingo.jpg,wheelchair.jpg,floorlamp.jpg,butterfly.jpg,swordfish.jpg,rooster.jpg,whiteout.jpg,,,,,1,0,10,,,,,.\resources\safe.jpg,,,1,,,,,,,,,1,,,,,,,,,None,310.7722929000003,None,310.7722929000003,None,,,,,,,305.03890799999954,307.7887466000002,307.5221207000004,None,0.06616550464212193,0.07856589999937569,0.09519019999970624,0.1451694999996107,0.16183879999971396,0.21183279999968363,0.22855019999951764,0.2785496999995303,0.29515379999975266,0.3452136999994764,0.36182519999965734,0.41182449999996606,0.42854219999935594,0.47853679999934684,0.49515729999984615,0.54514669999935,0.5618150999998761,0.6118472999996811,0.6285373000000618,0.6618089999992662,0.6785227999998824,0.7285271999999168,0.7451351999998224,,,,,,,308.0387178000001,None,308.0387178000001,None,308.7886778000002,None,308.7886778000002,None,left,1.3591995000006136,308.7886778000002,None,310.1885893999997,None,right,0.5354192999993757,310.1885893999997,None,310.1885893999997,None,-7.811753848475665,135.3738558288247,,,,13,001,2021_Apr_09_1120,AB_pic_singleT2,2021.1.2,59.98422414916361,
AB,lag3,3,3,6,0.06000000005000003,0,0.3,main,,,,,0,25,25,25,,,,,,,guitarcase.jpg,tortoise01.jpg,foldingchair.jpg,snowboard.jpg,soccerball.jpg,stool01.jpg,greywolf.jpg,uprightpiano01.jpg,whiteout.jpg,alligator.jpg,eye.jpg,cymbal.jpg,sink.jpg,snowshoe.jpg,snowman.jpg,fridge.jpg,leafblower01.jpg,,,,,0,0,8,,,,,.\resources\stool01.jpg,,,1,,,,,,,,,0,,,,,,,,,None,315.27167500000013,None,315.27167500000013,None,,,,,,,310.78896199999963,313.53843810000035,313.2717894999996,None,0.07047041033274631,0.07720480000079988,0.09386570000060601,0.14387020000049233,0.16052960000070016,0.22719130000041332,0.24386070000036852,0.2938709000000017,0.31051860000025044,0.3605161000004955,0.37717850000080944,0.42717609999999695,0.44384160000026895,0.4938408000007257,0.5105008000000453,0.5771747000007963,0.5938325000006444,0.6438480000006166,0.6604977000006329,,,,,,,,,,,313.78843059999963,None,313.78843059999963,None,314.45505870000034,None,314.45505870000034,None,right,0.6288673999997627,314.45505870000034,None,315.12167880000015,None,left,0.13018539999939094,315.12167880000015,None,315.12167880000015,None,-7.544797362978671,134.93603006731436,,,,13,001,2021_Apr_09_1120,AB_pic_singleT2,2021.1.2,59.98422414916361,
AB,lag2,2,3,5,0.06000000005000003,0,0.3,main,,,,,0,26,26,26,,,,,,,mattress.jpg,scorpion.jpg,ladder.jpg,grizzly.jpg,africanelephant.jpg,noparkingsign.jpg,dalmatian.jpg,bed.jpg,guitarcase.jpg,dartboard.jpg,skateboard.jpg,panda.jpg,cashregister01.jpg,platypus.jpg,seal.jpg,shower.jpg,boxingglove01.jpg,,,,,0,1,7,,,,,.\resources\africanelephant.jpg,,,1,,,,,,,,,1,,,,,,,,,None,320.1052166000001,None,320.1052166000001,None,,,,,,,315.28834149999966,318.0382135,317.7715288999998,None,0.06484640260574398,0.0783545000003869,0.09494329999961337,0.14499619999969582,0.16161339999962365,0.19494240000040008,0.2116001000003962,0.26160989999971207,0.2782758000003014,0.3282683999996152,0.34493120000024646,0.3949214000003849,0.4115982000002987,0.4615929000001415,0.47831810000025143,0.5283087999996496,0.5449174000004859,,,,,,,,,,,,,318.28817230000004,None,318.28817230000004,None,318.83813120000013,None,318.83813120000013,None,right,1.0776884999995673,318.83813120000013,None,319.9551886999998,None,left,0.12877270000080898,319.9551886999998,None,319.9551886999998,None,-7.391057651628792,134.5442371041713,,,,13,001,2021_Apr_09_1120,AB_pic_singleT2,2021.1.2,59.98422414916361,
AB,lag1,1,5,6,0.06000000005000003,0,0.3,main,,,,,0,27,27,27,,,,,,,sausage.jpg,hammerheadshark.jpg,fireplace.jpg,bacon.jpg,basketball01.jpg,vulture.jpg,calendar.jpg,recyclingbin.jpg,harmonica.jpg,skippingrope.jpg,tent.jpg,fridge.jpg,cannon.jpg,dolphin01.jpg,birdhouse.jpg,toad.jpg,dandelion.jpg,,,,,0,0,8,,,,,.\resources\vulture.jpg,,,1,,,,,,,,,0,,,,,,,,,None,324.47114170000003,None,324.47114170000003,None,,,,,,,320.1218337999999,322.87125190000006,322.6212415,None,0.06310109902513669,0.06618299999990995,0.0828561999996964,0.13284419999945385,0.14951599999949394,0.19952379999995173,0.21617869999954564,0.2661723000001075,0.28283319999991363,0.3161651999998867,0.3328371999996307,0.38283080000019254,0.3995491999994556,0.44949149999956717,0.46616029999950115,0.5161536999994496,0.5328220999999758,0.5828237999994599,0.5994849999997314,,,,,,,,,,,323.12121639999987,None,323.12121639999987,None,323.73784629999955,None,323.73784629999955,None,right,0.5779788999998345,323.73784629999955,None,324.35447289999956,None,left,0.0893525999999838,324.35447289999956,None,324.35447289999956,None,-7.167113526049647,134.17397529711926,,,,13,001,2021_Apr_09_1120,AB_pic_singleT2,2021.1.2,59.98422414916361,
AB,lag4,4,5,9,0.06000000005000003,0,0.3,main,,,,,0,28,28,28,,,,,,,jellybean.jpg,cat.jpg,cymbal.jpg,ear.jpg,dolphin01.jpg,seal.jpg,zipper.jpg,jellyfish.jpg,panda.jpg,pig.jpg,slug.jpg,swing.jpg,brownsugar.jpg,schoolbus.jpg,mummy.jpg,frenchfries.jpg,cruiseship.jpg,,,,,0,0,11,,,,,.\resources\panda.jpg,,,1,,,,,,,,,1,,,,,,,,,None,331.07120589999994,None,331.07120589999994,None,,,,,,,324.48780309999984,327.2376747999997,326.97099530000014,None,0.06299034536942179,0.07835340000019642,0.09504310000011174,0.12831950000054348,0.14504269999997632,0.1950384000001577,0.21164540000063425,0.26164650000009715,0.2783100000006016,0.3283095000006142,0.3450347000007241,0.37830680000024586,0.39497100000062346,0.44497730000057345,0.46163720000004105,0.5116406000006464,0.5283031000008123,0.5782962000002954,0.5950192000000243,0.6450208000005659,0.6616235000001325,0.6950341000001572,0.7116194000000178,0.7616155000005165,0.7782848000006197,,,,,327.48762780000015,None,327.48762780000015,None,328.2709140999996,None,328.2709140999996,None,right,2.3729044000001522,328.2709140999996,None,330.6878972000004,None,right,0.3639001999999891,330.6878972000004,None,330.6878972000004,None,-6.934839377198559,133.78737780913866,,,,13,001,2021_Apr_09_1120,AB_pic_singleT2,2021.1.2,59.98422414916361,
AB,lag3,3,4,7,0.06000000005000003,0,0.3,main,,,,,0,29,29,29,,,,,,,africanelephant.jpg,calendar.jpg,fishskeleton.jpg,cruiseship.jpg,coffeemaker.jpg,xylophone.jpg,acousticguitar02.jpg,pirateflag.jpg,tennisracket.jpg,horseshoe.jpg,zebra.jpg,bumpercar.jpg,telescope.jpg,uprightpiano01.jpg,frenchfries.jpg,helicopter.jpg,toucan.jpg,,,,,0,0,9,,,,,.\resources\acousticguitar02.jpg,,,1,,,,,,,,,0,,,,,,,,,None,341.80383960000034,None,341.80383960000034,None,,,,,,,331.0878763999999,333.8543765000004,333.5710607000001,None,0.06437301510051746,0.0662333000000217,0.08294469999964349,0.13294299999961368,0.14955860000009125,0.19954770000003919,0.21626959999957762,0.26623039999958564,0.282888599999751,0.3329362000004039,0.34955249999984517,0.3995441999995819,0.4162176999998337,0.4662066999999297,0.48288830000001326,0.5161540999997669,0.5328700000000026,0.5828246000000945,0.5994811000000482,0.6494887999997445,0.6661482999998043,,,,,,,,,334.08770769999956,None,334.08770769999956,None,334.77093739999964,None,334.77093739999964,None,right,6.864856999999574,334.77093739999964,None,341.6705257000003,None,left,0.11739309999938996,341.6705257000003,None,341.6705257000003,None,-6.750117314290489,133.50319107681509,,,,13,001,2021_Apr_09_1120,AB_pic_singleT2,2021.1.2,59.98422414916361,
AB,lag1,1,4,5,0.06000000005000003,0,0.3,main,,,,,0,30,30,30,,,,,,,pingpongtable.jpg,dragonfly01.jpg,callbell.jpg,sledgehammer.jpg,fireplace.jpg,greywolf.jpg,musicsheet.jpg,handcuffs.jpg,cashregister01.jpg,flag.jpg,ceilingfan01.jpg,mummy.jpg,wheelchair.jpg,cruiseship.jpg,steeringwheel.jpg,microphone01.jpg,waterfountain02.jpg,,,,,0,0,7,,,,,.\resources\fireplace.jpg,,,1,,,,,,,,,0,,,,,,,,,None,347.0368756999998,None,347.0368756999998,None,,,,,,,341.82052769999973,344.57035989999986,344.32037820000005,None,0.05694075633593942,0.0662467000001925,0.08289870000044175,0.11623760000020411,0.13289760000043316,0.18289260000074137,0.19962149999992107,0.23289010000007693,0.24962320000031468,0.2996141000003263,0.31623209999997925,0.34955429999990884,0.36621050000030664,0.39955530000042927,0.4162099000004673,0.46622370000022784,0.4828739000004134,,,,,,,,,,,,,344.82035069999984,None,344.82035069999984,None,345.32032160000017,None,345.32032160000017,None,right,1.547486299999946,345.32032160000017,None,346.9035606999996,None,left,0.1161830999999438,346.9035606999996,None,346.9035606999996,None,-6.596140548788575,133.1986196578409,,,,13,001,2021_Apr_09_1120,AB_pic_singleT2,2021.1.2,59.98422414916361,
AB,lag4,4,5,9,0.06000000005000003,0,0.3,main,,,,,0,31,31,31,,,,,,,bowtie.jpg,foot.jpg,nosmokingsign.jpg,pigeon.jpg,moose.jpg,cymbal.jpg,calendar.jpg,slug.jpg,church.jpg,giraffe.jpg,basketball01.jpg,horse.jpg,wallclock.jpg,recyclingbin.jpg,fireplace.jpg,tire.jpg,beaver.jpg,,,,,1,1,11,,,,,.\resources\church.jpg,,,1,,,,,,,,,0,,,,,,,,,None,354.4530759000001,None,354.4530759000001,None,,,,,,,347.05356349999965,349.8200538000001,349.5367409999999,None,0.05549564437479673,0.060218499999791675,0.07689819999995962,0.1268873999997595,0.14349959999981365,0.1768367999993643,0.19350119999944582,0.22683319999941887,0.24349609999990207,0.2934964999994918,0.3101627999994889,0.3434936999992715,0.3601571999997759,0.39322829999946407,0.41015799999968294,0.46015170000009675,0.4764470000000074,0.5101482999998552,0.5269936999993661,0.5601642999999967,0.5768331999997827,0.626809599999433,0.6434762999997474,0.6764250999995056,0.693034699999771,,,,,350.0533747999998,None,350.0533747999998,None,350.7533469,None,350.7533469,None,left,3.0187841999995726,350.7533469,None,353.8030864000002,None,right,0.6326641999994536,353.8030864000002,None,353.8030864000002,None,-6.343866261691097,132.9085452411574,,,,13,001,2021_Apr_09_1120,AB_pic_singleT2,2021.1.2,59.98422414916361,
AB,lag6,6,3,9,0.06000000005000003,0,0.3,main,,,,,0,32,32,32,,,,,,,ducttape.jpg,shower.jpg,kite.jpg,lizard.jpg,grizzly.jpg,dartboard.jpg,raccoon.jpg,duck01.jpg,fingerprint.jpg,pooltable.jpg,musicsheet.jpg,athleticsock.jpg,triangle.jpg,tank.jpg,ear.jpg,totempole.jpg,fishskeleton.jpg,,,,,1,0,11,,,,,.\resources\fingerprint.jpg,,,1,,,,,,,,,1,,,,,,,,,None,362.50223079999995,None,362.50223079999995,None,,,,,,,354.4697292000001,357.2191501999996,356.95255180000004,None,0.05715743819537623,0.06069469999965804,0.07730290000017703,0.12731579999945097,0.1440082999997685,0.1773003999996945,0.19396989999950165,0.24395519999961834,0.2606134999996357,0.2939532999998846,0.31065810000018246,0.34398109999983717,0.3606798999999228,0.4106202000002668,0.4272699000002831,0.4606277000002592,0.4772868000000017,0.527274000000034,0.543956900000012,0.577286799999456,0.5939363999996203,0.643927099999928,0.6605976000000737,0.693921600000067,0.7106246000003011,,,,,357.46921699999984,None,357.46921699999984,None,358.1857995999999,None,358.1857995999999,None,left,4.042001799999525,358.1857995999999,None,362.26890230000026,None,right,0.2149464000003718,362.26890230000026,None,362.26890230000026,None,-6.082691434485242,132.55543654836887,,,,13,001,2021_Apr_09_1120,AB_pic_singleT2,2021.1.2,59.98422414916361,
AB,lag2,2,3,5,0.06000000005000003,0,0.3,main,,,,,0,33,33,33,,,,,,,frenchfries.jpg,witchhat.jpg,tarantula.jpg,footballhelmet.jpg,makiroll.jpg,lion.jpg,bull.jpg,raccoon.jpg,fingerprint.jpg,jeans01.jpg,schoolbus.jpg,zebra.jpg,marble.jpg,panda.jpg,butterfly.jpg,mailbox02.jpg,saxophone.jpg,,,,,0,0,7,,,,,.\resources\makiroll.jpg,,,1,,,,,,,,,1,,,,,,,,,None,369.2018047000003,None,369.2018047000003,None,,,,,,,362.5189029000003,365.26874640000005,365.0020973999999,None,0.052192649313493336,0.06040480000046955,0.07707010000012815,0.11040279999997438,0.12707310000041616,0.16039679999994405,0.1770778000000064,0.21039199999995617,0.22706519999974262,0.2770607000002201,0.29373279999981605,0.32706169999983103,0.34372830000029353,0.37705629999982193,0.3937224999999671,0.42705410000053234,0.44372050000038143,,,,,,,,,,,,,365.5187457000002,None,365.5187457000002,None,365.9687094000001,None,365.9687094000001,None,right,1.7630566999996518,365.9687094000001,None,367.7518809000003,None,right,1.4199486999996225,367.7518809000003,None,367.7518809000003,None,-5.898916729602883,132.20662156147654,,,,13,001,2021_Apr_09_1120,AB_pic_singleT2,2021.1.2,59.98422414916361,
AB,lag5,5,4,9,0.06000000005000003,0,0.3,main,,,,,0,34,34,34,,,,,,,smokingpipe.jpg,tortoise01.jpg,porcupine.jpg,leafblower01.jpg,locker.jpg,sausage.jpg,ladder.jpg,cactus.jpg,bench01.jpg,dalmatian.jpg,eyepatch.jpg,bumpercar.jpg,trampoline.jpg,totempole.jpg,humanskeleton.jpg,saxophone.jpg,apron.jpg,,,,,0,0,11,,,,,.\resources\bench01.jpg,,,0,,,,,,,,,1,,,,,,,,,None,374.6181533999999,None,374.6181533999999,None,,,,,,,369.2185105999997,371.96830990000035,371.70167409999976,None,0.049955624752167874,0.061059300000124495,0.0777312999998685,0.11110290000033274,0.12769779999962338,0.1610676999998759,0.17778069999985746,0.21105379999971774,0.22772019999956683,0.2610471999996662,0.2777676999994583,0.3111073000000033,0.3278413999996701,0.36106930000005377,0.37771369999973103,0.4110928000000058,0.4277013999999326,0.4610330999994403,0.47770760000003065,0.5110982999995031,0.5276936000000205,0.5610564999997223,0.5777225000001636,0.6109851000001072,0.6276895000000877,,,,,372.21830599999976,None,372.21830599999976,None,372.8516072000002,None,372.8516072000002,None,left,1.4482436999996935,372.8516072000002,None,374.31817260000025,None,right,0.2696660999999949,374.31817260000025,None,374.31817260000025,None,-5.660241645286123,131.86923758139713,,,,13,001,2021_Apr_09_1120,AB_pic_singleT2,2021.1.2,59.98422414916361,
AB,lag7,7,5,12,0.06000000005000003,0,0.3,main,,,,,0,35,35,35,,,,,,,surfboard.jpg,toad.jpg,lollipop04.jpg,boxingglove01.jpg,tulip02.jpg,bowlingball.jpg,englishcucumber.jpg,worldmap.jpg,parkingmeter.jpg,baseballbat.jpg,pingpongtable.jpg,humanskeleton.jpg,seal.jpg,bow.jpg,mattress.jpg,magneticcompass.jpg,bacon.jpg,,,,,0,1,14,,,,,.\resources\humanskeleton.jpg,,,1,,,,,,,,,1,,,,,,,,,None,380.2511940999995,None,380.2511940999995,None,,,,,,,374.63487929999974,377.38466510000035,377.1180347999998,None,0.05798211677224869,0.06026709999969171,0.07692539999970904,0.12691720000020723,0.14362009999967995,0.1769230999998399,0.1936030999995637,0.2435856000001877,0.2602821000000404,0.29357749999962834,0.31023869999989984,0.36023999999997613,0.37693769999987126,0.41026770000007673,0.4269027999998798,0.47690700000021025,0.4936048999998093,0.5269016000002011,0.5435678000003463,0.5935933999999179,0.6102645999999368,0.6435916999998881,0.660242300000391,0.7102174000001469,0.7268985000000612,0.7602444000003743,0.7769519000003129,0.8268900000002759,0.8435430999998061,377.6346606999996,None,377.6346606999996,None,378.5346019999997,None,378.5346019999997,None,right,0.48522849999972095,378.5346019999997,None,379.05124199999955,None,left,1.1845910000001822,379.05124199999955,None,379.05124199999955,None,-6.099566021597577,131.51528924162255,0.8768755999999485,0.8935601000002862,,13,001,2021_Apr_09_1120,AB_pic_singleT2,2021.1.2,59.98422414916361,
AB,lag5,5,5,10,0.06000000005000003,0,0.3,main,,,,,0,36,36,36,,,,,,,trampoline.jpg,pooltable.jpg,squid.jpg,guitarcase.jpg,escalator.jpg,kite.jpg,well.jpg,chair.jpg,parachute.jpg,noparkingsign.jpg,vacuumcleaner01.jpg,motorcycle.jpg,spicerack.jpg,worldmap.jpg,cloud.jpg,table01.jpg,key07.jpg,,,,,0,0,12,,,,,.\resources\noparkingsign.jpg,,,0,,,,,,,,,1,,,,,,,,,None,385.5842093000003,None,385.5842093000003,None,,,,,,,380.26787129999957,383.0176699000003,382.7510142000001,None,0.05742092915233487,0.06042799999977433,0.07705609999993612,0.12710299999980634,0.14371289999962755,0.17708179999954154,0.19371489999957703,0.24370029999954568,0.2603613999999652,0.2937289999999848,0.31036760000006325,0.3603600999995251,0.3770342999996501,0.41042579999975715,0.427025699999831,0.4603527999997823,0.4770249999992302,0.5270479999999225,0.5436915000000226,0.5770647999997891,0.5937188999996579,0.6436786999993274,0.6603503999995155,0.6937136999995346,0.7104202000000441,0.7603423000000475,0.7770228999997926,,,383.26766059999954,None,383.26766059999954,None,384.05094889999964,None,384.05094889999964,None,left,1.09683909999967,384.05094889999964,None,385.16753080000035,None,right,0.38818520000040735,385.16753080000035,None,385.16753080000035,None,-5.992057449527814,131.20250171721437,,,,13,001,2021_Apr_09_1120,AB_pic_singleT2,2021.1.2,59.98422414916361,
AB,lag7,7,3,10,0.06000000005000003,0,0.3,main,,,,,0,37,37,37,,,,,,,saltshaker03a.jpg,pigeon.jpg,butterfly.jpg,pokerchips.jpg,funnel.jpg,foosballtable.jpg,beaver.jpg,lawnmower.jpg,microphone01.jpg,mailbox02.jpg,pooltable.jpg,key07.jpg,wheelchair.jpg,chainsaw.jpg,vacuumcleaner01.jpg,steeringwheel.jpg,snowshoe.jpg,,,,,0,1,12,,,,,.\resources\mailbox02.jpg,,,1,,,,,,,,,1,,,,,,,,,None,391.00055639999954,None,391.00055639999954,None,,,,,,,385.6008734999996,388.35072279999986,388.08404510000037,None,0.05834630331921304,0.060898599999745784,0.07753570000022592,0.12754580000000715,0.1441908999995576,0.1775551999999152,0.1941925999999512,0.24418839999998454,0.2608791000002384,0.29419640000014624,0.3108842999999979,0.36089480000009644,0.37754250000034517,0.4108789000001707,0.42750770000020566,0.4775547999997798,0.49419310000030237,0.527487100000144,0.5441633000000365,0.594167600000219,0.6108547000003455,0.6441805000004024,0.6608686999998099,0.7108354000001782,0.7274844000003213,0.7608202000001256,0.7775086000001465,,,388.60068369999954,None,388.60068369999954,None,389.3839914,None,389.3839914,None,right,1.419711699999425,389.3839914,None,390.8338869999998,None,left,0.14586229999986244,390.8338869999998,None,390.8338869999998,None,-6.354641298394319,130.8722010788593,,,,13,001,2021_Apr_09_1120,AB_pic_singleT2,2021.1.2,59.98422414916361,
AB,lag4,4,3,7,0.06000000005000003,0,0.3,main,,,,,0,38,38,38,,,,,,,saxophone.jpg,cruiseship.jpg,birthdaycandle.jpg,dartboard.jpg,honeybee.jpg,wheelbarrow01.jpg,mouse.jpg,tulip02.jpg,flag.jpg,snowshovel.jpg,doghouse.jpg,curtain.jpg,bumpercar.jpg,popcorn.jpg,vacuumcleaner01.jpg,englishcucumber.jpg,pokerchips.jpg,,,,,1,0,9,,,,,.\resources\mouse.jpg,,,0,,,,,,,,,1,,,,,,,,,None,397.75014519999985,None,397.75014519999985,None,,,,,,,391.0172070999997,393.7670435,393.5003708000004,None,0.06340074480460625,0.07688479999978881,0.09350670000003447,0.12686029999986204,0.14356299999963085,0.1935196000003998,0.2101916000001438,0.26017959999990126,0.2768457000001945,0.32683340000039607,0.3435495000003357,0.3935324000003675,0.41025489999992715,0.46017810000012105,0.47686290000001463,0.5102028999999675,0.5269177999998647,0.576817299999675,0.5935018999998647,0.6435789999995905,0.6602088999998159,,,,,,,,,394.0170968000002,None,394.0170968000002,None,394.68365989999984,None,394.68365989999984,None,right,1.7840613999997004,394.68365989999984,None,396.48353450000013,None,right,1.2402705999993486,396.48353450000013,None,396.48353450000013,None,-6.252664457639679,130.57757589163077,,,,13,001,2021_Apr_09_1120,AB_pic_singleT2,2021.1.2,59.98422414916361,
AB,lag3,3,5,8,0.06000000005000003,0,0.3,main,,,,,0,39,39,39,,,,,,,tie02.jpg,ironingboard01.jpg,dromedary.jpg,beerbottle.jpg,alligator.jpg,bull.jpg,boxingglove01.jpg,leafblower01.jpg,bridge.jpg,slug.jpg,fishskeleton.jpg,barrel01.jpg,church.jpg,cat.jpg,chefshat.jpg,cigar.jpg,fishingrod.jpg,,,,,1,0,10,,,,,.\resources\leafblower01.jpg,,,0,,,,,,,,,1,,,,,,,,,None,405.61633739999996,None,405.61633739999996,None,,,,,,,397.7668107999998,400.5166460999999,400.24999130000015,None,0.0646139977765129,0.07735529999990831,0.09398200000032375,0.1439451000005647,0.16060319999996864,0.1940029000006689,0.21060880000004545,0.26064510000014707,0.2772798000005423,0.32732410000062373,0.3439310000003388,0.3939448999999513,0.4105888000003688,0.46057939999991504,0.47728640000059386,0.5272598000001381,0.5439198000003671,0.5939502000001085,0.6107013000000734,0.6605729000002611,0.6772774000000936,0.7272442000003139,0.7439166000003752,,,,,,,400.76664400000027,None,400.76664400000027,None,401.5165909999996,None,401.5165909999996,None,right,0.5591798000004928,401.5165909999996,None,402.0998804000001,None,right,3.4959015000004,402.0998804000001,None,402.0998804000001,None,-6.552320569994966,130.2582594278652,,,,13,001,2021_Apr_09_1120,AB_pic_singleT2,2021.1.2,59.98422414916361,
AB,lag2,2,4,6,0.06000000005000003,0,0.3,main,,,,,0,40,40,40,,,,,,,saltshaker03a.jpg,flamingo.jpg,statue.jpg,soccerball.jpg,boxingglove01.jpg,pokerchips.jpg,knee.jpg,lizard.jpg,rollerblade.jpg,uprightpiano01.jpg,bullet.jpg,frisbee.jpg,marble.jpg,trampoline.jpg,hammerheadshark.jpg,telescope.jpg,tarantula.jpg,,,,,1,0,8,,,,,.\resources\pokerchips.jpg,,,1,,,,,,,,,1,,,,,,,,,None,410.6327465999995,None,410.6327465999995,None,,,,,,,405.6330138000003,408.38285859999996,408.11620589999984,None,0.058068679740125355,0.06094440000015311,0.07746950000000652,0.12750919999962207,0.14416259999961767,0.17759810000006837,0.19414580000011483,0.24414139999953477,0.26089479999973264,0.29415379999954894,0.3107929999996486,0.3608128999994733,0.3774686999995538,0.41082449999976234,0.42748070000016014,0.4775062999997317,0.4941742000000886,0.5275544999994963,0.5441307000000961,,,,,,,,,,,408.6328391999996,None,408.6328391999996,None,409.18281079999997,None,409.18281079999997,None,left,0.7328551999999036,409.18281079999997,None,409.9327678999998,None,right,0.6710033999997904,409.9327678999998,None,409.9327678999998,None,-6.7943494855836235,129.94115063527227,,,,13,001,2021_Apr_09_1120,AB_pic_singleT2,2021.1.2,59.98422414916361,
AB,lag1,1,4,5,0.06000000005000003,0,0.3,main,,,,,0,41,41,41,,,,,,,chimney.jpg,tennisracket.jpg,snowboard.jpg,tarantula.jpg,kneepad01c.jpg,bacon.jpg,dragonfly01.jpg,pirateflag.jpg,lollipop04.jpg,hotdogweiner.jpg,toilet.jpg,bullet.jpg,cruiseship.jpg,africanelephant.jpg,panda.jpg,fireplace.jpg,harmonica.jpg,,,,,0,1,7,,,,,.\resources\kneepad01c.jpg,,,1,,,,,,,,,1,,,,,,,,,None,415.8324321000002,None,415.8324321000002,None,,,,,,,410.6494223999998,413.3992681,413.1326288999999,None,0.061225267992983855,0.07639040000049135,0.09303730000010546,0.12635790000058478,0.14302450000013778,0.1930606000005355,0.20970960000067862,0.25969530000020313,0.2763512000001356,0.3097309000004316,0.32642520000081277,0.3763345000006666,0.3930428000003303,0.44299950000004173,0.45972580000034213,0.49302720000014233,0.5096794999999474,,,,,,,,,,,,,413.64926430000014,None,413.64926430000014,None,414.1659049,None,414.1659049,None,right,0.7578139999995983,414.1659049,None,414.96585479999976,None,left,0.8379726000002847,414.96585479999976,None,414.96585479999976,None,-6.690165818171615,129.65117248490043,,,,13,001,2021_Apr_09_1120,AB_pic_singleT2,2021.1.2,59.98422414916361,
AB,lag6,6,5,11,0.06000000005000003,0,0.3,main,,,,,0,42,42,42,,,,,,,steeringwheel.jpg,bridge.jpg,birdfeeder.jpg,ladybug03.jpg,wheelbarrow01.jpg,greywolf.jpg,acorn.jpg,smokingpipe.jpg,duck01.jpg,slug.jpg,key07.jpg,airhockeytable.jpg,waterfall.jpg,snowboard.jpg,porcupine.jpg,cymbal.jpg,beaver.jpg,,,,,0,0,13,,,,,.\resources\key07.jpg,,,1,,,,,,,,,1,,,,,,,,,None,420.89879149999996,None,420.89879149999996,None,,,,,,,415.8491131999999,418.59894170000007,418.3322969000001,None,0.061684079663923606,0.07718819999990956,0.09386240000003454,0.12779779999982566,0.1438836999996056,0.19388660000004165,0.21097109999936947,0.26106939999954193,0.2772101999998995,0.31092589999934717,0.32717859999957,0.3777708999996321,0.39394569999967644,0.4438481999995929,0.46050519999971584,0.49441599999954633,0.5105556999997134,0.5605031999994026,0.5771659000001819,0.6271625999997923,0.6438547999996445,0.6939298999996026,0.7105044999998427,0.7438500999996904,0.7605173000001741,0.8104961999997613,0.827161399999568,0.8771906000001763,0.8938084000001254,418.8493533999999,None,418.8493533999999,None,419.74888589999955,None,419.74888589999955,None,right,0.3347913999996308,419.74888589999955,None,420.1155058000004,None,right,0.7602552999996988,420.1155058000004,None,420.1155058000004,None,-6.6137415305958775,129.36755844029398,,,,13,001,2021_Apr_09_1120,AB_pic_singleT2,2021.1.2,59.98422414916361,
AB,lag5,5,5,10,0.06000000005000003,0,0.3,main,,,,,0,43,43,43,,,,,,,cork02.jpg,marble.jpg,triangle.jpg,christmaslights.jpg,leafblower01.jpg,cannon.jpg,surfboard.jpg,worldmap.jpg,ironingboard01.jpg,popcorn.jpg,crown.jpg,dreamcatcher.jpg,microphone01.jpg,steeringwheel.jpg,frisbee.jpg,scooter.jpg,vulture.jpg,,,,,0,1,12,,,,,.\resources\popcorn.jpg,,,1,,,,,,,,,1,,,,,,,,,None,426.1818396999999,None,426.1818396999999,None,,,,,,,420.9154785999999,423.66530929999954,423.39865999999984,None,0.06448515117563332,0.07651640000040061,0.09319560000039928,0.14322010000068985,0.15982070000063686,0.1936083000000508,0.2098139000008814,0.2598531000003277,0.27648580000004586,0.32647760000054404,0.34355690000029426,0.3935585000008359,0.4098124000001917,0.46021400000063295,0.47647430000051827,0.5269050000006246,0.5431279000003997,0.5931230000005598,0.6098141000002215,0.6598320000002786,0.6764236000008168,0.7097988000004989,0.7264624000008553,0.7764727000003404,0.793117500000335,0.8430471000001489,0.8597415000003821,,,423.9157118000003,None,423.9157118000003,None,424.7818981999999,None,424.7818981999999,None,right,0.32579379999970115,424.7818981999999,None,425.1319018000004,None,left,1.0238036000000648,425.1319018000004,None,425.1319018000004,None,-6.544103561251525,129.09140992596994,,,,13,001,2021_Apr_09_1120,AB_pic_singleT2,2021.1.2,59.98422414916361,
AB,lag7,7,5,12,0.06000000005000003,0,0.3,main,,,,,0,44,44,44,,,,,,,hand01b.jpg,seal.jpg,jackrabbit.jpg,trampoline.jpg,boat.jpg,christmastree.jpg,boxingglove01.jpg,leafblower01.jpg,funnel.jpg,doghouse.jpg,jeep.jpg,fridge.jpg,banjo.jpg,bluecheese.jpg,cannon.jpg,lip.jpg,seagull.jpg,,,,,0,0,14,,,,,.\resources\fridge.jpg,,,1,,,,,,,,,1,,,,,,,,,None,431.53148270000037,None,431.53148270000037,None,,,,,,,426.1985315000002,428.9483263000002,428.6817191,None,0.06344132235284962,0.07626750000054017,0.09293720000005123,0.1429295000007187,0.16001000000051135,0.1929299000003084,0.2096030000002429,0.2599921999999424,0.27668400000038673,0.3267366000000038,0.34332420000009733,0.39345330000014656,0.4099818000004234,0.46001650000016525,0.4766419000006863,0.5099883000002592,0.5266947000000073,0.5766007000001991,0.5932788000000073,0.6432672000000821,0.6599302000004172,0.7099260000004506,0.7266229000006206,0.7765908999999738,0.793267900000501,0.8265906000005998,0.843305500000497,0.8932715999999346,0.9099269000007553,429.1987422000002,None,429.1987422000002,None,430.1820101000003,None,430.1820101000003,None,right,0.373603600000024,430.1820101000003,None,430.5815031000002,None,right,0.9261321999993015,430.5815031000002,None,430.5815031000002,None,-6.4908677121543,128.82242578920898,0.9599184000007881,0.9765790999999808,,13,001,2021_Apr_09_1120,AB_pic_singleT2,2021.1.2,59.98422414916361,
AB,lag3,3,4,7,0.06000000005000003,0,0.3,main,,,,,0,45,45,45,,,,,,,lip.jpg,greathornowl.jpg,beerbottle.jpg,horse.jpg,pumpkin.jpg,bow.jpg,cupcake.jpg,shower.jpg,porcupine.jpg,seagull.jpg,crab01.jpg,rooster.jpg,bat.jpg,christmastree.jpg,tie02.jpg,handcuffs.jpg,foot.jpg,,,,,1,0,9,,,,,.\resources\cupcake.jpg,,,1,,,,,,,,,1,,,,,,,,,None,437.33114029999996,None,437.33114029999996,None,,,,,,,431.5481614999999,434.2980153999997,434.0313325999996,None,0.06035786700121882,0.0763228000005256,0.09337010000035662,0.12640920000012557,0.14344400000027235,0.19336720000046626,0.2100257000001875,0.2433606000004147,0.26006670000060694,0.31004529999972874,0.32672400000046764,0.37672220000058587,0.3934429999999338,0.4266910000005737,0.4433596999997462,0.49336850000054255,0.5100253000000521,0.5433585000000676,0.560019900000043,0.610009799999716,0.626680899999883,,,,,,,,,434.5483770000001,None,434.5483770000001,None,435.1816732999996,None,435.1816732999996,None,left,1.8860137000001487,435.1816732999996,None,437.0977891000002,None,right,0.20184919999974227,437.0977891000002,None,437.0977891000002,None,-6.435495432039816,128.56116229698785,,,,13,001,2021_Apr_09_1120,AB_pic_singleT2,2021.1.2,59.98422414916361,
AB,lag2,2,5,7,0.06000000005000003,0,0.3,main,,,,,0,46,46,46,,,,,,,waterfountain02.jpg,ant.jpg,trophy01.jpg,ducttape.jpg,bowtie.jpg,candycane01a.jpg,tank.jpg,greatwhiteshark.jpg,horse.jpg,cocktailshrimp02.jpg,eye.jpg,snowboard.jpg,funnel.jpg,spear02.jpg,greathornowl.jpg,cactus.jpg,saltshaker03a.jpg,,,,,0,0,9,,,,,.\resources\tank.jpg,,,1,,,,,,,,,1,,,,,,,,,None,441.98089350000026,None,441.98089350000026,None,,,,,,,437.34779720000006,440.09765140000036,439.83099109999966,None,0.057525348978187736,0.060446200000114914,0.07710599999973056,0.12727579999955196,0.14340420000007725,0.17701620000025287,0.19371729999966192,0.2436888000002,0.26039920000039274,0.2936848999997892,0.3103696999996828,0.3603911000000153,0.37701300000026094,0.41038490000028105,0.42702120000012656,0.4603869000002305,0.4770101000003706,0.5267065999996703,0.5437060000003839,0.576990399999886,0.5936609000000317,,,,,,,,,440.3480362999999,None,440.3480362999999,None,440.9479948999997,None,440.9479948999997,None,right,0.3195657000005667,440.9479948999997,None,441.29756720000023,None,right,0.6580060000005687,441.29756720000023,None,441.29756720000023,None,-6.368022874291813,128.30706410078395,,,,13,001,2021_Apr_09_1120,AB_pic_singleT2,2021.1.2,59.98422414916361,
AB,lag6,6,5,11,0.06000000005000003,0,0.3,main,,,,,0,47,47,47,,,,,,,snowshoe.jpg,spicerack.jpg,ironingboard01.jpg,licenseplate.jpg,statue.jpg,uprightpiano01.jpg,kite.jpg,hockeypuck.jpg,squid.jpg,chefshat.jpg,donut.jpg,cruiseship.jpg,pirateflag.jpg,tent.jpg,frisbee.jpg,steeringwheel.jpg,icecube02.jpg,,,,,0,1,13,,,,,.\resources\donut.jpg,,,1,,,,,,,,,1,,,,,,,,,None,447.13054670000037,None,447.13054670000037,None,,,,,,,441.9975508999996,444.74740139999994,444.4807214000002,None,0.05506617455898687,0.06026250000013533,0.07654170000023441,0.11034199999994598,0.12697100000059436,0.17694610000035027,0.1935910000001968,0.2270565999997416,0.24378119999983028,0.27692230000047857,0.2936275000001842,0.343622399999731,0.36031780000030267,0.3935877000003529,0.41026609999971697,0.4436083000000508,0.4598684000002322,0.5098610000004555,0.5265260000005583,0.5598540000000867,0.5765689999998358,0.6099271000002773,0.6265291999998226,0.6765290000003006,0.6932046000001719,0.7265323999999964,0.7431869000001825,0.776513700000578,0.7931817999997293,444.99775709999994,None,444.99775709999994,None,445.7973487999998,None,445.7973487999998,None,right,0.06239300000015646,445.7973487999998,None,445.88063580000016,None,left,1.218891800000165,445.88063580000016,None,445.88063580000016,None,-6.288123001973211,128.0586715478363,,,,13,001,2021_Apr_09_1120,AB_pic_singleT2,2021.1.2,59.98422414916361,
AB,lag1,1,4,5,0.06000000005000003,0,0.3,main,,,,,0,48,48,48,,,,,,,snowboard.jpg,windshieldwiper02.jpg,floorlamp.jpg,toilet.jpg,snowshovel.jpg,slug.jpg,parkingmeter.jpg,rose.jpg,bowlingball.jpg,bull.jpg,skippingrope.jpg,coffeemaker.jpg,lighthouse.jpg,tank.jpg,toolbox02.jpg,bat.jpg,wheelbarrow01.jpg,,,,,0,0,7,,,,,.\resources\snowshovel.jpg,,,1,,,,,,,,,1,,,,,,,,,None,451.7802985,None,451.7802985,None,,,,,,,447.1472136000002,449.8970706,449.6304176000003,None,0.06219871384526226,0.07652629999938654,0.09320339999976568,0.126183299999866,0.14321879999988596,0.19319529999938823,0.20985879999989265,0.259900000000016,0.2765875999994023,0.3262513999998191,0.34280739999940124,0.37614599999960774,0.39281969999956345,0.4428308999995352,0.45950639999955456,0.5094639999997526,0.5261236999995162,,,,,,,,,,,,,450.1474752000004,None,450.1474752000004,None,450.6803851000004,None,450.6803851000004,None,right,0.2833533000002717,450.6803851000004,None,450.98035869999967,None,right,0.7752996999997777,450.98035869999967,None,450.98035869999967,None,-6.197226209918101,127.8143418721099,,,,13,001,2021_Apr_09_1120,AB_pic_singleT2,2021.1.2,59.98422414916361,
AB,lag4,4,3,7,0.06000000005000003,0,0.3,main,,,,,0,49,49,49,,,,,,,bench01.jpg,spicerack.jpg,toyanimal05.jpg,lion.jpg,mailbox02.jpg,tree.jpg,showerhead01.jpg,cigar.jpg,turnstile.jpg,elbow.jpg,floorlamp.jpg,lollipop04.jpg,alligator.jpg,boat.jpg,ironingboard01.jpg,athleticsock.jpg,donut.jpg,,,,,0,0,9,,,,,.\resources\showerhead01.jpg,,,1,,,,,,,,,1,,,,,,,,,None,456.43006429999986,None,456.43006429999986,None,,,,,,,451.79698480000025,454.54679789999955,454.2801510999998,None,0.06222603682747555,0.07637890000023617,0.09307890000036423,0.12633050000022195,0.1430199000005814,0.19303450000006706,0.20977490000041144,0.25966580000022077,0.27631840000049124,0.3259378000002471,0.34298350000062783,0.37633460000051855,0.3926697000006243,0.44258950000039476,0.45962780000081693,0.5093062000005375,0.5262958000002982,0.5759317000001829,0.5929966000003333,0.6259413000007044,0.6429640000005747,,,,,,,,,454.79718310000044,None,454.79718310000044,None,455.4467622000002,None,455.4467622000002,None,right,0.33288010000069335,455.4467622000002,None,455.7967232000001,None,right,0.6149602000004961,455.7967232000001,None,455.7967232000001,None,-6.147869025746162,127.57405330768937,,,,13,001,2021_Apr_09_1120,AB_pic_singleT2,2021.1.2,59.98422414916361,
AB,lag3,3,4,7,0.06000000005000003,0,0.3,main,,,,,0,50,50,50,,,,,,,chefshat.jpg,pokerchips.jpg,pooltable.jpg,skunk.jpg,surfboard.jpg,bullet.jpg,discoball.jpg,seal.jpg,baseballbat.jpg,xylophone.jpg,hammerheadshark.jpg,granolabar01.jpg,bull.jpg,ant.jpg,toad.jpg,helicopter.jpg,schoolbus.jpg,,,,,0,0,9,,,,,.\resources\discoball.jpg,,,1,,,,,,,,,1,,,,,,,,,None,460.8970946000001,None,460.8970946000001,None,,,,,,,456.4467384999998,459.2304148000003,458.9637644000004,None,0.05775001319681266,0.06610600000021805,0.08274800000071991,0.11611970000012661,0.13273530000060418,0.18270920000031765,0.19937650000065332,0.23273909999988973,0.2493668000006437,0.2993586000002324,0.3160280000001876,0.34944160000031843,0.36602829999992537,0.4160230000006777,0.4327110000003813,0.4660631000006106,0.48267200000009325,0.5326875999999174,0.5493403000000399,0.5826663000007102,0.5993730000000141,,,,,,,,,459.4470535999999,None,459.4470535999999,None,460.063631,None,460.063631,None,right,0.27596400000038557,460.063631,None,460.3802783000001,None,right,0.49530219999996916,460.3802783000001,None,460.3802783000001,None,-6.102734808690962,127.37790910853589,,,,13,001,2021_Apr_09_1120,AB_pic_singleT2,2021.1.2,59.98422414916361,
AB,lag7,7,5,12,0.06000000005000003,0,0.3,main,,,,,0,51,51,51,,,,,,,surfboard.jpg,accordion01.jpg,tank.jpg,toolbox02.jpg,hulahoop.jpg,saxophone.jpg,greywolf.jpg,uprightpiano01.jpg,lip.jpg,armadillo.jpg,ladybug03.jpg,christmaslights.jpg,wheelchair.jpg,pigeon.jpg,microwave.jpg,sink.jpg,knee.jpg,,,,,0,0,14,,,,,.\resources\christmaslights.jpg,,,1,,,,,,,,,1,,,,,,,,,None,465.82994700000035,None,465.82994700000035,None,,,,,,,460.9135855000004,463.66341660000035,463.4134517000002,None,0.06013026038238598,0.06619380000029196,0.08285869999963325,0.1328561999998783,0.14948499999991327,0.18282079999971756,0.1995788000003813,0.2494736999997258,0.2661558999998306,0.3161532000003717,0.33280009999998583,0.3661552000003212,0.3828462999999829,0.43279749999965134,0.44949980000001233,0.48284549999971205,0.49949560000004567,0.5495075999997425,0.566137400000116,0.6161143999997876,0.6327989000001253,0.6661181999998007,0.6827900999996928,0.7328080999996018,0.7494660000002114,0.7827885999995488,0.7994560999995883,0.8494971999998597,0.8661531999996441,463.91339789999984,None,463.91339789999984,None,464.86335599999984,None,464.86335599999984,None,right,0.5003034999999727,464.86335599999984,None,465.39666990000023,None,right,0.4149088000003758,465.39666990000023,None,465.39666990000023,None,-6.041706697143927,127.21378720303612,0.9162318999997296,0.9328146999996534,,13,001,2021_Apr_09_1120,AB_pic_singleT2,2021.1.2,59.98422414916361,
AB,lag1,1,5,6,0.06000000005000003,0,0.3,main,,,,,0,52,52,52,,,,,,,dragonfly01.jpg,ladder.jpg,eye.jpg,spicerack.jpg,duck01.jpg,worldmap.jpg,redfox.jpg,uprightpiano01.jpg,horse.jpg,frisbee.jpg,sheep.jpg,banjo.jpg,bacon.jpg,crown.jpg,bowtie.jpg,horseshoe.jpg,baseballbat.jpg,,,,,0,0,8,,,,,.\resources\worldmap.jpg,,,1,,,,,,,,,1,,,,,,,,,None,470.32968610000006,None,470.32968610000006,None,,,,,,,465.84665060000043,468.6131661999998,468.3631569999998,None,0.05647407292529035,0.06606599999940954,0.08273359999930108,0.11611009999978705,0.1328083999997034,0.1827728999996907,0.1994459999996252,0.23274579999997513,0.2494048999997176,0.2827743999996528,0.29942599999958475,0.34939699999995355,0.3660439999994196,0.39940440000009403,0.4160530999997718,0.46607510000012553,0.48271479999948497,0.5160697999999684,0.532706899999539,,,,,,,,,,,468.84646200000043,None,468.84646200000043,None,469.3964132000001,None,469.3964132000001,None,right,0.3751756999999998,469.3964132000001,None,469.81312119999984,None,right,0.4865362999998979,469.81312119999984,None,469.81312119999984,None,-5.994786410963412,127.06533290359391,,,,13,001,2021_Apr_09_1120,AB_pic_singleT2,2021.1.2,59.98422414916361,
AB,lag4,4,4,8,0.06000000005000003,0,0.3,main,,,,,0,53,53,53,,,,,,,jellyfish.jpg,cactus.jpg,dromedary.jpg,granolabar01.jpg,skippingrope.jpg,airhockeytable.jpg,sausage.jpg,dormer.jpg,saltshaker03a.jpg,calendar.jpg,eiffeltower.jpg,skunk.jpg,windshieldwiper02.jpg,trampoline.jpg,eyepatch.jpg,leafblower01.jpg,bluejay.jpg,,,,,0,0,10,,,,,.\resources\dormer.jpg,,,1,,,,,,,,,1,,,,,,,,,None,475.17941439999976,None,475.17941439999976,None,,,,,,,470.3463617999996,473.0962063999996,472.84623329999977,None,0.05506879771426575,0.0659881999999925,0.08273269999972399,0.11608699999942473,0.13271639999948093,0.16601169999921694,0.18268979999993462,0.23267459999988205,0.24934619999930874,0.2826850999999806,0.299337800000103,0.3326657999996314,0.34933060000003024,0.3993243999993865,0.4159866999998485,0.4493287999994209,0.46599829999922804,0.4993549000000712,0.5159956999996211,0.5659753999998429,0.5826469999992696,0.6160079999999653,0.6326507999992828,,,,,,,473.3461877,None,473.3461877,None,473.99612979999984,None,473.99612979999984,None,right,0.311362100000224,473.99612979999984,None,474.34614619999957,None,right,0.8094821000004231,474.34614619999957,None,474.34614619999957,None,-5.933996128403008,126.9302790054999,,,,13,001,2021_Apr_09_1120,AB_pic_singleT2,2021.1.2,59.98422414916361,
AB,lag6,6,5,11,0.06000000005000003,0,0.3,main,,,,,0,54,54,54,,,,,,,nose.jpg,showerhead01.jpg,sledgehammer.jpg,bench01.jpg,rubikcube.jpg,punchingbag.jpg,smokingpipe.jpg,bluejay.jpg,platypus.jpg,musicsheet.jpg,swordfish.jpg,acousticguitar02.jpg,floorlamp.jpg,shovel01.jpg,motorcycle.jpg,sink.jpg,harmonica.jpg,,,,,0,0,13,,,,,.\resources\swordfish.jpg,,,1,,,,,,,,,1,,,,,,,,,None,482.0123352000002,None,482.0123352000002,None,,,,,,,475.1960927,477.9792719999996,477.71256919999996,None,0.0559562281237402,0.06612150000000838,0.0827448000000004,0.11613699999998062,0.13275759999942238,0.18276669999977457,0.1994696000001568,0.23273340000014286,0.24939919999997073,0.2827556000002005,0.2993937000001097,0.3494412000000011,0.366056099999696,0.3995015999998941,0.4160604999997304,0.449461600000177,0.46613999999954103,0.5161219000001438,0.5327275999998164,0.5660913000001528,0.5827228999996805,0.6160601000001407,0.6327444999997169,0.682785299999523,0.6993811000002097,0.7327841999995144,0.7494190999996135,0.7994066000001112,0.8160394999995333,478.19587349999983,None,478.19587349999983,None,479.0291833000001,None,479.0291833000001,None,right,2.030436799999734,479.0291833000001,None,481.0957509,None,right,0.8998625000003813,481.0957509,None,481.0957509,None,-5.87020037661666,126.81577911915215,,,,13,001,2021_Apr_09_1120,AB_pic_singleT2,2021.1.2,59.98422414916361,
AB,lag2,2,4,6,0.06000000005000003,0,0.3,main,,,,,0,55,55,55,,,,,,,cloud.jpg,safe.jpg,barrel01.jpg,jeep.jpg,windshieldwiper02.jpg,toolbox02.jpg,spear02.jpg,kiwi03.jpg,bumpercar.jpg,tarantula.jpg,crown.jpg,ceilingfan01.jpg,electricguitar01.jpg,christmastree.jpg,spicerack.jpg,microphone01.jpg,rose.jpg,,,,,0,1,8,,,,,.\resources\toolbox02.jpg,,,1,,,,,,,,,1,,,,,,,,,None,486.6954005999998,None,486.6954005999998,None,,,,,,,482.02899679999973,484.81219580000015,484.5455356000002,None,0.05707274768953685,0.0660728000002564,0.08273610000014742,0.11607389999971929,0.1327806999997847,0.1827263999994102,0.19944349999968836,0.2327170999997179,0.24937659999977768,0.29940480000004754,0.31613430000015796,0.3493858000001637,0.36609539999972185,0.41609280000011495,0.43276160000004893,0.466088199999831,0.4827503999995315,0.5160384999999224,0.532749099999819,,,,,,,,,,,485.0455076999997,None,485.0455076999997,None,485.5954658999999,None,485.5954658999999,None,right,0.3200202000007266,485.5954658999999,None,485.97878630000014,None,left,0.6968085999997129,485.97878630000014,None,485.97878630000014,None,-5.813413058602203,126.70295371100357,,,,13,001,2021_Apr_09_1120,AB_pic_singleT2,2021.1.2,59.98422414916361,
AB,lag5,5,4,9,0.06000000005000003,0,0.3,main,,,,,0,56,56,56,,,,,,,tulip02.jpg,cobra.jpg,safe.jpg,magneticcompass.jpg,flamingo.jpg,escalator.jpg,sword01.jpg,statue.jpg,waterfall.jpg,horseshoe.jpg,urinal.jpg,skunk.jpg,guitarcase.jpg,car.jpg,well.jpg,brownsugar.jpg,horse.jpg,,,,,0,0,11,,,,,.\resources\waterfall.jpg,,,1,,,,,,,,,1,,,,,,,,,None,491.9783723000002,None,491.9783723000002,None,,,,,,,486.71206470000016,489.47857440000007,489.2119541000002,None,0.053237442722946476,0.06610650000038731,0.08276740000019345,0.11607670000012149,0.13275760000033188,0.166092700000263,0.18275620000076742,0.21608500000002095,0.23274380000020756,0.28274210000017774,0.2994077000003017,0.33274620000065624,0.34942120000050636,0.3828136000001905,0.3994118000000526,0.4327498000002379,0.44940610000048764,0.48278990000017075,0.4994034000001193,0.5327216000005137,0.5494132000003447,0.5994066000002931,0.6160574000004999,0.649434800000563,0.6660995000002004,,,,,489.7118989999999,None,489.7118989999999,None,490.39520749999974,None,490.39520749999974,None,right,1.0323667000002388,490.39520749999974,None,491.4617995999997,None,right,0.5016480000003867,491.4617995999997,None,491.4617995999997,None,-5.764823412725163,126.59780773793106,,,,13,001,2021_Apr_09_1120,AB_pic_singleT2,2021.1.2,59.98422414916361,
AB,lag2,2,3,5,0.06000000005000003,0,0.3,main,,,,,0,57,57,57,,,,,,,tennisracket.jpg,mouse.jpg,cobra.jpg,smokingpipe.jpg,ant.jpg,eyepatch.jpg,airhockeytable.jpg,tricycle.jpg,football.jpg,urinal.jpg,frisbee.jpg,cupcake.jpg,calendar.jpg,basketball01.jpg,foot.jpg,spear02.jpg,foldingchair.jpg,,,,,1,1,7,,,,,.\resources\ant.jpg,,,1,,,,,,,,,0,,,,,,,,,None,496.57814199999956,None,496.57814199999956,None,,,,,,,491.9950461999997,494.7782556000002,494.5116074999996,None,0.053112372867773414,0.06608539999979257,0.08276029999979073,0.11609719999978552,0.13275859999976092,0.16611469999952533,0.1827677000001131,0.2160963999995147,0.2327556000000186,0.2661486999995759,0.28273239999998623,0.3327480999996624,0.34941539999999804,0.38281019999976706,0.3994518999998036,0.4327408999997715,0.4494838000000527,,,,,,,,,,,,,494.99490049999986,None,494.99490049999986,None,495.4615587999997,None,495.4615587999997,None,left,0.6540275999996084,495.4615587999997,None,496.1615402999996,None,right,0.38597870000012335,496.1615402999996,None,496.1615402999996,None,-5.699687611027808,126.4903027408487,,,,13,001,2021_Apr_09_1120,AB_pic_singleT2,2021.1.2,59.98422414916361,
AB,lag6,6,5,11,0.06000000005000003,0,0.3,main,,,,,0,58,58,58,,,,,,,shower.jpg,snowshoe.jpg,football.jpg,stool01.jpg,tire.jpg,jackrabbit.jpg,exitsign.jpg,totempole.jpg,wallclock.jpg,cupcake.jpg,snowman.jpg,honeybee.jpg,horse.jpg,turnstile.jpg,birthdaycandle.jpg,cymbal.jpg,panda.jpg,,,,,0,0,13,,,,,.\resources\snowman.jpg,,,1,,,,,,,,,1,,,,,,,,,space,501.66071720000036,None,501.66071720000036,None,,,,,,,496.59481810000034,499.3613556999999,499.0946836000003,None,0.056012172162206414,0.06616600000052131,0.08280009999998583,0.11616870000034396,0.13279140000031475,0.18274170000040613,0.19942420000006678,0.23274490000039805,0.24946360000012646,0.28274620000047435,0.2994083000003229,0.3494657000001098,0.3661399000002348,0.39945369999986724,0.4161081000002014,0.449427999999898,0.46612809999987803,0.5161643000001277,0.5327554000004966,0.566125600000305,0.5827398999999787,0.632746500000394,0.6494842000001881,0.6827683000001343,0.6994684000001143,0.7327562000000398,0.749467900000127,0.7994261000003462,0.8161167000007481,499.61130330000015,None,499.61130330000015,None,500.44458269999996,None,500.44458269999996,None,right,0.6070438000006106,500.44458269999996,None,501.07738830000017,None,right,0.5422058000003744,501.07738830000017,None,501.07738830000017,None,-5.637498086133224,126.38979589287761,,,2.302821799999947,13,001,2021_Apr_09_1120,AB_pic_singleT2,2021.1.2,59.98422414916361,
AB,lag7,7,4,11,0.06000000005000003,0,0.3,main,,,,,0,59,59,59,,,,,,,ipad02.jpg,foldingchair.jpg,grizzly.jpg,wallclock.jpg,tortoise01.jpg,dartboard.jpg,baseballbat.jpg,birthdaycandle.jpg,bridge.jpg,crab01.jpg,bowlingpin.jpg,ceilingfan01.jpg,curtain.jpg,chimney.jpg,worldmap.jpg,jeans01.jpg,parrot01.jpg,,,,,0,0,13,,,,,.\resources\bowlingpin.jpg,,,1,,,,,,,,,1,,,,,,,,,None,509.0608002999999,None,509.0608002999999,None,,,,,,,504.01063520000025,506.79425379999975,506.4942715999996,None,0.05625934767694119,0.06603769999946962,0.08267559999967489,0.11607509999976173,0.13266529999964405,0.18266380000022764,0.19933769999988726,0.23267149999992398,0.24930829999993875,0.28265860000010434,0.2992735999996512,0.3493054000000484,0.36594009999953414,0.3993294000001697,0.41595909999978176,0.46592989999953716,0.48261509999974805,0.5159692999995968,0.5326035999996748,0.5659746999999697,0.5825967999999193,0.6326860999997734,0.6492849999995087,0.6826364999997168,0.699276600000303,0.7325878000001467,0.7493015000000014,0.7995134000002508,0.8159258999994563,507.0275789999996,None,507.0275789999996,None,507.8441307000003,None,507.8441307000003,None,right,0.5513768999999229,507.8441307000003,None,508.44412569999986,None,right,0.5994618000004266,508.44412569999986,None,508.44412569999986,None,-5.588137174420263,126.25359349916377,,,,13,001,2021_Apr_09_1120,AB_pic_singleT2,2021.1.2,59.98422414916361,
AB,lag5,5,3,8,0.06000000005000003,0,0.3,main,,,,,0,60,60,60,,,,,,,dormer.jpg,bluecheese.jpg,acorn.jpg,key07.jpg,calendar.jpg,car.jpg,shower.jpg,mummy.jpg,eye.jpg,flamingo.jpg,lip.jpg,englishcucumber.jpg,flag.jpg,dartboard.jpg,xylophone.jpg,showerhead01.jpg,banjo.jpg,,,,,0,0,10,,,,,.\resources\mummy.jpg,,,1,,,,,,,,,1,,,,,,,,,None,515.0266358000001,None,515.0266358000001,None,,,,,,,509.07741350000015,511.8439152000001,511.5772871999998,None,0.05187261013160649,0.06606259999989561,0.08262589999958436,0.11602550000043266,0.13265159999991738,0.16598200000044017,0.18265249999967637,0.21596820000013395,0.23266100000000733,0.26599979999991774,0.28266720000010537,0.3159967000001416,0.33262639999975363,0.3660363999997571,0.3826590999997279,0.4159842999997636,0.4326528999999937,0.48263330000008864,0.49936150000030466,0.5326175000000148,0.5493483999998716,0.5826150000002599,0.5993426000004547,,,,,,,512.0938821999998,None,512.0938821999998,None,512.7105927000002,None,512.7105927000002,None,right,0.08487359999980981,512.7105927000002,None,512.8605361999998,None,right,2.150985799999944,512.8605361999998,None,512.8605361999998,None,-5.545762620592856,126.15599581392516,,,,13,001,2021_Apr_09_1120,AB_pic_singleT2,2021.1.2,59.98422414916361,
AB,lag3,3,5,8,0.06000000005000003,0,0.3,main,,,,,0,61,61,61,,,,,,,chimney.jpg,beerbottle.jpg,grizzly.jpg,jellybean.jpg,ipad02.jpg,swordfish.jpg,chefshat.jpg,floorlamp.jpg,sledgehammer.jpg,tiger02.jpg,helicopter.jpg,fishskeleton.jpg,shovel01.jpg,airhockeytable.jpg,bat.jpg,leafrake.jpg,steeringwheel.jpg,,,,,0,0,10,,,,,.\resources\floorlamp.jpg,,,1,,,,,,,,,1,,,,,,,,,None,519.9934115999997,None,519.9934115999997,None,,,,,,,515.0433468000001,517.8269238000003,517.5602908999999,None,0.05346809492450112,0.0662017000004198,0.08281100000021979,0.11617149999983667,0.1327729000004183,0.16611360000024433,0.18277579999994487,0.21611639999991894,0.23276590000023134,0.28277170000001206,0.29946819999986474,0.3328054000003249,0.3494650000002366,0.38278820000050473,0.39949849999993603,0.43278449999979784,0.4494649999996909,0.48276390000046376,0.4994649999998728,0.5494500000004336,0.5661415000004126,0.5994187000005695,0.6161397000005309,,,,,,,518.0435598000004,None,518.0435598000004,None,518.6768745999998,None,518.6768745999998,None,right,0.7266112000006615,518.6768745999998,None,519.4601689000001,None,right,0.5032959000000119,519.4601689000001,None,519.4601689000001,None,-5.483134667130387,126.03900925609028,,,,13,001,2021_Apr_09_1120,AB_pic_singleT2,2021.1.2,59.98422414916361,
AB,lag4,4,5,9,0.06000000005000003,0,0.3,main,,,,,0,62,62,62,,,,,,,humanskeleton.jpg,musicsheet.jpg,kite.jpg,chair.jpg,lion.jpg,squid.jpg,mouse.jpg,beaver.jpg,tortoise01.jpg,bowlingpin.jpg,boat.jpg,birthdaycandle.jpg,horse.jpg,seal.jpg,sink.jpg,parkfountain.jpg,bacon.jpg,,,,,1,1,11,,,,,.\resources\tortoise01.jpg,,,1,,,,,,,,,1,,,,,,,,,None,524.7931486,None,524.7931486,None,,,,,,,520.0100998999997,522.7766279999996,522.5100086000002,None,0.0503003658767622,0.06614139999965118,0.08273449999978766,0.11605520000011893,0.13270899999952235,0.1660917999997764,0.18272689999957947,0.21607899999980873,0.23269170000003214,0.26603309999973135,0.28276350000032835,0.3160181000002922,0.33279859999947803,0.3660698000003322,0.38278770000033546,0.4161125999999058,0.432778800000051,0.46604740000020684,0.4826978000000963,0.5160010999998121,0.53271549999954,0.5660480999995343,0.5827080999997634,0.6160115000002406,0.6326645999997709,,,,,523.0265723000002,None,523.0265723000002,None,523.6765640000003,None,523.6765640000003,None,left,0.6709420999995928,523.6765640000003,None,524.409877,None,left,0.35356339999998454,524.409877,None,524.409877,None,-5.433132513294937,125.94463455036713,,,,13,001,2021_Apr_09_1120,AB_pic_singleT2,2021.1.2,59.98422414916361,
AB,lag1,1,3,4,0.06000000005000003,0,0.3,main,,,,,0,63,63,63,,,,,,,snowman.jpg,sheep.jpg,fingerprint.jpg,bowtie.jpg,waterfall.jpg,butterfly.jpg,holdfast.jpg,trampoline.jpg,bullet.jpg,nosmokingsign.jpg,windshieldwiper02.jpg,tent.jpg,brownsugar.jpg,snowshovel.jpg,cobra.jpg,dreamcatcher.jpg,football.jpg,,,,,0,0,6,,,,,.\resources\bowtie.jpg,,,1,,,,,,,,,1,,,,,,,,,None,529.2928801999999,None,529.2928801999999,None,,,,,,,524.8098372000004,527.5763827000001,527.3097545,None,0.05664241716678225,0.06604400000014721,0.08270119999997405,0.11609649999991234,0.13271260000055918,0.1826918000006117,0.19936700000016572,0.23282040000049165,0.24936370000068564,0.2993993000000046,0.31608390000019426,0.34936390000075335,0.36602700000003097,0.3993761000001541,0.4160130999998728,,,,,,,,,,,,,,,527.8262894999998,None,527.8262894999998,None,528.259634,None,528.259634,None,right,0.2718416999996407,528.259634,None,528.5763067999997,None,right,0.6912634000000253,528.5763067999997,None,528.5763067999997,None,-5.369946830365469,125.85191402178347,,,,13,001,2021_Apr_09_1120,AB_pic_singleT2,2021.1.2,59.98422414916361,
AB,lag5,5,4,9,0.06000000005000003,0,0.3,main,,,,,0,64,64,64,,,,,,,licenseplate.jpg,ostrich.jpg,pokerchips.jpg,moon.jpg,ceilingfan01.jpg,nose.jpg,ladybug03.jpg,parachute.jpg,leafblower01.jpg,chainsaw.jpg,boat.jpg,wheelchair.jpg,wheelbarrow01.jpg,noparkingsign.jpg,crown.jpg,bluecheese.jpg,smokingpipe.jpg,,,,,1,0,11,,,,,.\resources\leafblower01.jpg,,,1,,,,,,,,,0,,,,,,,,,None,534.0092451000003,None,534.0092451000003,None,,,,,,,529.3095580999998,532.0760645999999,531.8094566999998,None,0.04994906899935105,0.06615189999956783,0.08280779999950028,0.11619579999933194,0.13287769999988086,0.16620590000002267,0.18281019999994896,0.21612869999989925,0.23282529999960389,0.2661066999999093,0.28282519999993383,0.31611939999947936,0.3327836999997089,0.36613129999932426,0.3827771999995093,0.41613580000012007,0.43280589999994845,0.4661347000001115,0.4828014999993684,0.5160894000000553,0.5327557000000525,0.5660991999993712,0.5828188999994381,0.5994141999999556,0.616099299999405,,,,,532.3260768999999,None,532.3260768999999,None,532.9593349999996,None,532.9593349999996,None,left,0.6520915000000969,532.9593349999996,None,533.6592996999998,None,left,0.32859980000012,533.6592996999998,None,533.6592996999998,None,-5.334800403879223,125.75970088801452,,,,13,001,2021_Apr_09_1120,AB_pic_singleT2,2021.1.2,59.98422414916361,
AB,lag4,4,3,7,0.06000000005000003,0,0.3,main,,,,,0,65,65,65,,,,,,,ostrich.jpg,squid.jpg,tire.jpg,lion.jpg,kiwi03.jpg,dormer.jpg,safe.jpg,urinal.jpg,pumpkin.jpg,bowlingball.jpg,knee.jpg,windmill.jpg,hotdogweiner.jpg,sword01.jpg,bumpercar.jpg,pingpongtable.jpg,masquerademask01.jpg,,,,,0,1,9,,,,,.\resources\safe.jpg,,,1,,,,,,,,,1,,,,,,,,,None,539.4585441000002,None,539.4585441000002,None,,,,,,,534.0259518000003,536.7924567999999,536.5258033999999,None,0.055406649511511086,0.06608760000017355,0.08277910000015254,0.11607589999948686,0.13275119999980234,0.18275089999951888,0.19949040000028617,0.23275699999976496,0.24946149999959744,0.28274770000007265,0.29938729999958014,0.33281149999947957,0.3493834999999308,0.3994526999995287,0.4160653999997521,0.44939919999978883,0.46606530000008206,0.49937820000013744,0.516066199999841,0.5660698000001503,0.5827096000002712,,,,,,,,,537.0424058999997,None,537.0424058999997,None,537.6423925999998,None,537.6423925999998,None,right,0.9610880999998699,537.6423925999998,None,538.6424043999996,None,left,0.7850451000003886,538.6424043999996,None,538.6424043999996,None,-5.275216015379553,125.66978882585897,,,,13,001,2021_Apr_09_1120,AB_pic_singleT2,2021.1.2,59.98422414916361,
AB,lag7,7,3,10,0.06000000005000003,0,0.3,main,,,,,0,66,66,66,,,,,,,fishingrod.jpg,fortunecookie.jpg,beaver.jpg,parkfountain.jpg,tie02.jpg,schoolbus.jpg,wallclock.jpg,well.jpg,bowlingpin.jpg,church.jpg,cow.jpg,chimney.jpg,chainsaw.jpg,windshieldwiper02.jpg,golfball.jpg,surfboard.jpg,harmonica.jpg,,,,,1,0,12,,,,,.\resources\church.jpg,,,1,,,,,,,,,0,,,,,,,,,None,544.3082839000001,None,544.3082839000001,None,,,,,,,539.4756249000002,542.2421213999996,541.9754965000002,None,0.05387803702055337,0.06608280000000377,0.08274049999999988,0.11613039999974717,0.13272760000018025,0.16610339999988355,0.18272799999976996,0.21605540000018664,0.23279600000023493,0.2827652999994825,0.2993913000000248,0.33277649999945424,0.3494153000001461,0.3828186000000642,0.3994167999999263,0.43271829999957845,0.4494325999994544,0.4994157000000996,0.5160933999995905,0.5493761999996423,0.5660243000002083,0.5993632999998226,0.6160275000002002,0.6493798999999854,0.6660320000000866,0.7160208999994211,0.7327240999993592,,,542.4921050000003,None,542.4921050000003,None,543.2420718000003,None,543.2420718000003,None,left,0.8413785000002463,543.2420718000003,None,544.1082114000001,None,left,0.18327580000004673,544.1082114000001,None,544.1082114000001,None,-5.239245312320807,125.58052020726919,,,,13,001,2021_Apr_09_1120,AB_pic_singleT2,2021.1.2,59.98422414916361,
