trialType,cndTyp,lag,T1_loc,T2_loc,stimLen,isi,skipProb,phase,trials.thisRepN,trials.thisTrialN,trials.thisN,trials.thisIndex,trials2.thisRepN,trials2.thisTrialN,trials2.thisN,trials2.thisIndex,key_resp_4.keys,key_resp_4.rt,key_resp_4.started,key_resp_4.stopped,textbox.started,textbox.stopped,img0,img1,img2,img3,img4,img5,img6,img7,img8,img9,img10,img11,img12,img13,img14,img15,img16,option1.started,option1.stopped,text_2.started,text_2.stopped,skip1,skip2,lastPresent,displayPicture.started,displayPicture.stopped,polygon_2.started,polygon_2.stopped,opt1_t1,polygon_4.started,polygon_4.stopped,cor1,option1_t1.started,option1_t1.stopped,key_resp.keys,key_resp.rt,key_resp.started,key_resp.stopped,polygon_5.started,polygon_5.stopped,cor2,key_resp_2.keys,key_resp_2.rt,key_resp_2.started,key_resp_2.stopped,textbox_2.started,textbox_2.stopped,textbox_3.started,textbox_3.stopped,key_resp_3.keys,key_resp_3.started,key_resp_3.stopped,textbox_6.started,textbox_6.stopped,key_resp_7.keys,key_resp_7.rt,key_resp_7.started,key_resp_7.stopped,textbox_4.started,textbox_4.stopped,option1_3.started,option1_3.stopped,text_7.started,text_7.stopped,curStimTim,displayPicture_4.started,displayPicture_4.stopped,polygon_16.started,polygon_16.stopped,polygon_7.started,polygon_7.stopped,option1_t1_2.started,option1_t1_2.stopped,key_resp_6.keys,key_resp_6.rt,key_resp_6.started,key_resp_6.stopped,polygon_17.started,polygon_17.stopped,key_resp_8.keys,key_resp_8.rt,key_resp_8.started,key_resp_8.stopped,textbox_5.started,textbox_5.stopped,B0,B1,key_resp_3.rt,participant,session,date,expName,psychopyVersion,frameRate,
,,,,,,,,,,,,,,,,,space,1.6287735999999313,9.166699799999606,None,,,,,,,,,,,,,,,,,,,,,,,,,,,,,,,,,,,,,,,,,,,,,,,,,,,,,,,,,,,,,,,,,,,,,,,,,,,,,,,,,,,,,,,,,,,2,001,2021_Apr_07_1317,AB_pic_singleT2,2021.1.2,59.98843422981694,
AB,lag7,7,4,11,0.2,0.05,0.5,,0,0,0,2,,,,,,,,,9.166699799999606,None,doghouse.jpg,dalmatian.jpg,bat.jpg,cruiseship.jpg,jellyfish.jpg,ducttape.jpg,holdfast.jpg,squid.jpg,hockeystick.jpg,africanelephant.jpg,basketball01.jpg,fishskeleton.jpg,humanskeleton.jpg,snowboard.jpg,bull.jpg,hotdogweiner.jpg,tarantula.jpg,10.8619048999999,13.611304799999743,13.344640199999958,None,0,1,13,13.861310399999638,None,13.861310399999638,None,.\resources\basketball01.jpg,17.36107469999979,None,1,17.36107469999979,None,right,1.0664325000002464,17.36107469999979,None,18.461464499999693,None,1,left,0.7820013000000472,18.461464499999693,None,18.461464499999693,None,19.29475400000001,None,None,20.294701579999582,None,20.294701579999582,None,,,,,,,,,,,,,,,,,,,,,,,,,,,,,,,,,,,2,001,2021_Apr_07_1317,AB_pic_singleT2,2021.1.2,59.98843422981694,
AB,lag5,5,4,9,0.2,0.05,0.5,,0,1,1,6,,,,,,,,,,,paperairplane.jpg,wheelchair.jpg,ear.jpg,locker.jpg,volleyball.jpg,bluecheese.jpg,nunchuk.jpg,floorlamp.jpg,snowshoe.jpg,ladder.jpg,dolphin01.jpg,discoball.jpg,frisbee.jpg,witchhat.jpg,trampoline.jpg,redfox.jpg,windmill.jpg,20.311363899999833,23.06078209999987,22.77743539999983,None,0,0,11,23.29409689999966,None,23.29409689999966,None,.\resources\snowshoe.jpg,26.293904499999826,None,1,26.293904499999826,None,right,0.6055007999998452,26.293904499999826,None,26.944320099999914,None,1,right,0.20317590000013297,26.944320099999914,None,26.944320099999914,None,27.194297000000006,None,None,28.19422287999987,None,28.19422287999987,None,,,,,,,,,,,,,,,,,,,,,,,,,,,,,,,,,,,2,001,2021_Apr_07_1317,AB_pic_singleT2,2021.1.2,59.98843422981694,
AB,lag4,4,3,7,0.2,0.05,0.5,,0,2,2,1,,,,,,,,,,,cheetah.jpg,mrpotatohead.jpg,porcupine.jpg,skateboard.jpg,armadillo.jpg,bed.jpg,mummy.jpg,hammerheadshark.jpg,anchor.jpg,foosballtable.jpg,sledgehammer.jpg,licenseplate.jpg,cruiseship.jpg,car.jpg,dormer.jpg,bumpercar.jpg,kiwi03.jpg,28.210896599999614,30.960300099999586,30.677007799999956,None,0,1,9,31.19362609999962,None,31.19362609999962,None,.\resources\mummy.jpg,33.69348119999995,None,1,33.69348119999995,None,right,2.40606119999984,33.69348119999995,None,36.14378429999988,None,1,left,0.7876456999997572,36.14378429999988,None,36.14378429999988,None,36.97707199999968,None,None,37.97659677999991,None,37.97659677999991,None,,,,,,,,,,,,,,,,,,,,,,,,,,,,,,,,,,,2,001,2021_Apr_07_1317,AB_pic_singleT2,2021.1.2,59.98843422981694,
AB,lag2,2,3,5,0.2,0.05,0.5,,0,3,3,4,,,,,,,,,,,slug.jpg,alligator.jpg,cactus.jpg,windshieldwiper02.jpg,barrel01.jpg,soccerball.jpg,floorlamp.jpg,donut.jpg,bathtub.jpg,firehydrant.jpg,greathornowl.jpg,mrpotatohead.jpg,ladybug03.jpg,swordfish.jpg,smokingpipe.jpg,candycane01a.jpg,englishcucumber.jpg,37.993680299999596,40.74307490000001,40.47643499999958,None,1,0,7,40.99306539999998,None,40.99306539999998,None,.\resources\barrel01.jpg,42.99293859999989,None,1,42.99293859999989,None,left,1.6586638000003404,42.99293859999989,None,44.70997879999959,None,1,right,0.989462800000183,44.70997879999959,None,44.70997879999959,None,45.74325239999962,None,None,46.74318757999981,None,46.74318757999981,None,,,,,,,,,,,,,,,,,,,,,,,,,,,,,,,,,,,2,001,2021_Apr_07_1317,AB_pic_singleT2,2021.1.2,59.98843422981694,
AB,lag3,3,5,8,0.2,0.05,0.5,,0,4,4,10,,,,,,,,,,,vacuumcleaner01.jpg,doghouse.jpg,ducttape.jpg,nosmokingsign.jpg,fishskeleton.jpg,fingerprint.jpg,ipad02.jpg,snowshovel.jpg,hotdogweiner.jpg,cross01.jpg,armadillo.jpg,acorn.jpg,pingpongtable.jpg,tank.jpg,spiderweb.jpg,masquerademask01.jpg,fortunecookie.jpg,46.759850299999925,49.50923969999985,49.225945299999694,None,0,1,10,49.725897599999826,None,49.725897599999826,None,.\resources\snowshovel.jpg,52.492405699999836,None,1,52.492405699999836,None,right,1.1512070999997377,52.492405699999836,None,53.67612489999965,None,1,left,0.4392536000000291,53.67612489999965,None,53.67612489999965,None,54.15944709999985,None,None,55.15937957999995,None,55.15937957999995,None,,,,,,,,,,,,,,,,,,,,,,,,,,,,,,,,,,,2,001,2021_Apr_07_1317,AB_pic_singleT2,2021.1.2,59.98843422981694,
AB,lag1,1,4,5,0.2,0.05,0.5,,0,5,5,12,,,,,,,,,,,jackrabbit.jpg,safe.jpg,saxophone.jpg,cobra.jpg,greywolf.jpg,basketball01.jpg,fridge.jpg,ear.jpg,hockeystick.jpg,cashregister01.jpg,pirateflag.jpg,locker.jpg,vacuumcleaner01.jpg,snowshovel.jpg,grizzly.jpg,flamingo.jpg,toilet.jpg,55.17603589999999,57.92542219999996,57.65877159999991,None,0,0,7,58.17541749999964,None,58.17541749999964,None,.\resources\greywolf.jpg,60.17529659999991,None,1,60.17529659999991,None,right,1.0602513000003455,60.17529659999991,None,61.2923667,None,1,right,0.9031976999999642,61.2923667,None,61.2923667,None,62.258962099999735,None,None,63.258906979999665,None,63.258906979999665,None,,,,,,,,,,,,,,,,,,,,,,,,,,,,,,,,,,,2,001,2021_Apr_07_1317,AB_pic_singleT2,2021.1.2,59.98843422981694,
AB,lag5,5,4,9,0.2,0.05,0.5,,0,6,6,11,,,,,,,,,,,bat.jpg,anchor.jpg,drumstick.jpg,saxophone.jpg,chimney.jpg,kneepad01c.jpg,snowboard.jpg,hockeystick.jpg,corn02.jpg,moose.jpg,trophy01.jpg,scooter.jpg,humanskeleton.jpg,guitarcase.jpg,ladybug03.jpg,squid.jpg,bull.jpg,63.275551599999744,66.02495399999998,65.7416360999996,None,0,0,11,66.25827819999995,None,66.25827819999995,None,.\resources\corn02.jpg,69.25807989999976,None,1,69.25807989999976,None,right,0.4412895999998909,69.25807989999976,None,69.74138119999998,None,1,right,0.17412229999990814,69.74138119999998,None,69.74138119999998,None,69.94136959999969,None,None,70.94131537999965,None,70.94131537999965,None,,,,,,,,,,,,,,,,,,,,,,,,,,,,,,,,,,,2,001,2021_Apr_07_1317,AB_pic_singleT2,2021.1.2,59.98843422981694,
AB,lag6,6,5,11,0.2,0.05,0.5,,0,7,7,8,,,,,,,,,,,fishingrod.jpg,kneepad01c.jpg,corn02.jpg,parkingmeter.jpg,humanskeleton.jpg,cow.jpg,bat.jpg,bridge.jpg,uprightpiano01.jpg,daddylonglegs.jpg,ceilingfan01.jpg,bow.jpg,noparkingsign.jpg,cupcake.jpg,curtain.jpg,calendar.jpg,squirrel.jpg,70.95840829999997,73.70785499999965,73.4412256999999,None,1,0,13,73.95784449999974,None,73.95784449999974,None,.\resources\ceilingfan01.jpg,77.45764229999986,None,1,77.45764229999986,None,left,0.7059496000001673,77.45764229999986,None,78.22472870000001,None,1,right,0.14672179999979562,78.22472870000001,None,78.22472870000001,None,78.40803809999989,None,None,79.40800507999984,None,79.40800507999984,None,,,,,,,,,,,,,,,,,,,,,,,,,,,,,,,,,,,2,001,2021_Apr_07_1317,AB_pic_singleT2,2021.1.2,59.98843422981694,
AB,lag3,3,3,6,0.2,0.05,0.5,,0,8,8,5,,,,,,,,,,,brownsugar.jpg,car.jpg,redfox.jpg,pumpkin.jpg,ceilingfan01.jpg,bathtub.jpg,dragonfly01.jpg,fridge.jpg,ladder.jpg,trumpet.jpg,jeans01.jpg,hotdogweiner.jpg,snowshoe.jpg,boxingglove01.jpg,donut.jpg,firehydrant.jpg,safe.jpg,79.42464299999983,82.17404099999976,81.89071819999981,None,0,0,8,82.40736249999964,None,82.40736249999964,None,.\resources\bathtub.jpg,84.6572030999996,None,1,84.6572030999996,None,right,0.5941763999999239,84.6572030999996,None,85.29093209999974,None,1,right,0.17647829999987152,85.29093209999974,None,85.29093209999974,None,85.52424810000002,None,None,86.5241900799997,None,86.5241900799997,None,,,,,,,,,,,,,,,,,,,,,,,,,,,,,,,,,,,2,001,2021_Apr_07_1317,AB_pic_singleT2,2021.1.2,59.98843422981694,
AB,lag4,4,4,8,0.2,0.05,0.5,,0,9,9,13,,,,,,,,,,,sandcastle.jpg,chimney.jpg,mattress.jpg,bull.jpg,icecube02.jpg,motorcycle.jpg,tarantula.jpg,baseballbat.jpg,frenchfries.jpg,toyanimal05.jpg,bluecheese.jpg,shower.jpg,greathornowl.jpg,dolphin01.jpg,cork02.jpg,panda.jpg,saltshaker03a.jpg,86.54086069999994,89.29027049999968,89.02360920000001,None,0,0,10,89.5235945999998,None,89.5235945999998,None,.\resources\baseballbat.jpg,92.29010169999992,None,1,92.29010169999992,None,right,0.5292382000002362,92.29010169999992,None,92.85676489999969,None,1,right,0.17864770000005592,92.85676489999969,None,92.85676489999969,None,93.07381259999966,None,None,94.07334107999986,None,94.07334107999986,None,,,,,,,,,,,,,,,,,,,,,,,,,,,,,,,,,,,2,001,2021_Apr_07_1317,AB_pic_singleT2,2021.1.2,59.98843422981694,
AB,lag2,2,5,7,0.2,0.05,0.5,,0,10,10,9,,,,,,,,,,,dromedary.jpg,rose.jpg,tarantula.jpg,armadillo.jpg,spiderweb.jpg,toolbox02.jpg,tricycle.jpg,dartboard.jpg,horse.jpg,fingerprint.jpg,saxophone.jpg,spicerack.jpg,skunk.jpg,ladder.jpg,seagull.jpg,table01.jpg,electricguitar01.jpg,94.0904260999996,96.83983979999994,96.55652419999979,None,1,0,9,97.0731622999997,None,97.0731622999997,None,.\resources\tricycle.jpg,99.57304419999991,None,1,99.57304419999991,None,left,0.9902986000001874,99.57304419999991,None,100.60668390000001,None,1,right,0.16468199999962962,100.60668390000001,None,100.60668390000001,None,100.7895868999999,None,None,101.78952907999974,None,101.78952907999974,None,,,,,,,,,,,,,,,,,,,,,,,,,,,,,,,,,,,2,001,2021_Apr_07_1317,AB_pic_singleT2,2021.1.2,59.98843422981694,
AB,lag1,1,3,4,0.2,0.05,0.5,,0,11,11,3,,,,,,,,,,,shovel01.jpg,eyepatch.jpg,frisbee.jpg,basketball01.jpg,callbell.jpg,christmastree.jpg,chair.jpg,motorcycle.jpg,noparkingsign.jpg,airhockeytable.jpg,humanskeleton.jpg,fishingrod.jpg,chainsaw.jpg,brownsugar.jpg,birdnest.jpg,sledgehammer.jpg,pumpkin.jpg,101.80622769999991,104.55647060000001,104.28977869999972,None,0,0,6,104.7893525999998,None,104.7893525999998,None,.\resources\basketball01.jpg,106.55592879999995,None,1,106.55592879999995,None,right,0.5195719999996982,106.55592879999995,None,107.12255659999983,None,1,right,0.16882059999988996,107.12255659999983,None,107.12255659999983,None,107.32254719999992,None,None,108.32253387999981,None,108.32253387999981,None,,,,,,,,,,,,,,,,,,,,,,,,,,,,,,,,,,,2,001,2021_Apr_07_1317,AB_pic_singleT2,2021.1.2,59.98843422981694,
AB,lag6,6,5,11,0.2,0.05,0.5,,0,12,12,0,,,,,,,,,,,zipper.jpg,helicopter.jpg,pokerchips.jpg,pumpkin.jpg,bed.jpg,windmill.jpg,urinal.jpg,bowlingpin.jpg,christmastree.jpg,bumpercar.jpg,curtain.jpg,scooter.jpg,tricycle.jpg,bullet.jpg,dromedary.jpg,cigar.jpg,treadmill.jpg,108.33916409999983,111.08941809999988,110.80571289999989,None,1,1,13,111.32272889999967,None,111.32272889999967,None,.\resources\curtain.jpg,114.82211929999994,None,1,114.82211929999994,None,left,1.493414699999903,114.82211929999994,None,116.35533469999973,None,1,left,0.13613459999987754,116.35533469999973,None,116.35533469999973,None,116.53866049999988,None,None,117.5386351799998,None,117.5386351799998,None,,,,,,,,,,,,,,,,,,,,,,,,,,,,,,,,,,,2,001,2021_Apr_07_1317,AB_pic_singleT2,2021.1.2,59.98843422981694,
AB,lag7,7,5,12,0.2,0.05,0.5,,0,13,13,7,,,,,,,,,,,zipper.jpg,humanskeleton.jpg,golfball.jpg,ear.jpg,accordion01.jpg,windshieldwiper02.jpg,squirrel.jpg,horseshoe.jpg,bed.jpg,tree.jpg,bench01.jpg,barrel01.jpg,mummy.jpg,magneticcompass.jpg,apron.jpg,locker.jpg,parrot01.jpg,117.5552703999997,120.30555069999991,120.03889489999983,None,0,0,14,120.53846089999979,None,120.53846089999979,None,.\resources\barrel01.jpg,124.30494629999976,None,1,124.30494629999976,None,right,0.5305282000003899,124.30494629999976,None,124.87155929999972,None,1,right,0.16384730000027048,124.87155929999972,None,124.87155929999972,None,125.07199189999983,None,None,126.07150167999998,None,126.07150167999998,None,,,,,,,,,,,,,,,,,,,,,,,,,,,,,,,,,,,2,001,2021_Apr_07_1317,AB_pic_singleT2,2021.1.2,59.98843422981694,
,,,,,,,,,,,,,,,,,,,,,,,,,,,,,,,,,,,,,,,,,,,,,,,,,,,,,,,,,,,,,,,,,,,,,,,,,,,,,space,6.609342000000197,126.08860379999987,None,,,,,,,,,,,,,,,,,,,,,,,,,,,,,,,2,001,2021_Apr_07_1317,AB_pic_singleT2,2021.1.2,59.98843422981694,
AB,lag6,6,5,11,0.2,0.05,0.5,ramp,,,,,0,0,0,0,,,,,,,acousticguitar02.jpg,jackrabbit.jpg,exitsign.jpg,sink.jpg,englishcucumber.jpg,butterfly.jpg,key07.jpg,stubbywrench01a.jpg,tank.jpg,fridge.jpg,schoolbus.jpg,pumpkin.jpg,chefshat.jpg,corn02.jpg,telescope.jpg,sword01.jpg,cloud.jpg,,,,,0,0,13,,,,,.\resources\schoolbus.jpg,,,1,,,,,,,,,1,,,,,,,,,None,140.2045191799998,None,140.2045191799998,None,,,,,126.08860379999987,None,132.85492959999965,135.60431849999986,135.33766709999963,None,0.2,135.77099329999965,None,135.77099329999965,None,139.28743359999999,None,139.28743359999999,None,right,0.6679456000001665,139.28743359999999,None,140.00449739999976,None,right,0.17484749999994165,140.00449739999976,None,140.00449739999976,None,,,,2,001,2021_Apr_07_1317,AB_pic_singleT2,2021.1.2,59.98843422981694,
AB,lag4,4,4,8,0.19066666667,0.048,0.48,ramp,,,,,0,1,1,1,,,,,,,saxophone.jpg,tent.jpg,cashregister01.jpg,jellybean.jpg,surfboard.jpg,brownsugar.jpg,telescope.jpg,seagull.jpg,horseshoe.jpg,sheep.jpg,chefshat.jpg,mrpotatohead.jpg,seal.jpg,zipper.jpg,jeans01.jpg,giraffe.jpg,masquerademask01.jpg,,,,,0,1,10,,,,,.\resources\seagull.jpg,,,1,,,,,,,,,1,,,,,,,,,None,148.85398197999984,None,148.85398197999984,None,,,,,,,140.2378464999997,142.98722739999994,142.70390999999972,None,0.19066666667,143.2038779999998,None,143.2038779999998,None,145.8537054999997,None,145.8537054999997,None,right,1.9898889999999483,145.8537054999997,None,147.93734799999993,None,left,0.898088099999768,147.93734799999993,None,147.93734799999993,None,-10.001360791690049,150.0000000424746,,2,001,2021_Apr_07_1317,AB_pic_singleT2,2021.1.2,59.98843422981694,
AB,lag7,7,4,11,0.18133333334,0.046,0.45999999999999996,ramp,,,,,0,2,2,2,,,,,,,fireplace.jpg,cross01.jpg,slug.jpg,skippingrope.jpg,greywolf.jpg,statue.jpg,ant.jpg,mouse.jpg,bowlingball.jpg,scorpion.jpg,microwave.jpg,bullet.jpg,pingpongtable.jpg,cow.jpg,peacock.jpg,sandcastle.jpg,nose.jpg,,,,,0,0,13,,,,,.\resources\microwave.jpg,,,1,,,,,,,,,1,,,,,,,,,None,156.50311577999992,None,156.50311577999992,None,,,,,,,148.87062979999973,151.6200458999997,151.3533927999997,None,0.18133333334,151.87003179999965,None,151.87003179999965,None,155.0698484999998,None,155.0698484999998,None,right,0.7654657000002771,155.0698484999998,None,155.88646619999963,None,right,0.5968594999999368,155.88646619999963,None,155.88646619999963,None,-10.002719446389834,150.00000013655824,,2,001,2021_Apr_07_1317,AB_pic_singleT2,2021.1.2,59.98843422981694,
AB,lag5,5,5,10,0.17200000001000001,0.044,0.43999999999999995,ramp,,,,,0,3,3,3,,,,,,,mailbox02.jpg,soccerball.jpg,mouse.jpg,dreamcatcher.jpg,chair.jpg,toilet.jpg,kiwi03.jpg,jeep.jpg,vacuumcleaner01.jpg,flamingo.jpg,discoball.jpg,snowman.jpg,bridge.jpg,foot.jpg,parrot01.jpg,hulahoop.jpg,platypus.jpg,,,,,0,1,12,,,,,.\resources\flamingo.jpg,,,1,,,,,,,,,1,,,,,,,,,None,163.66980567999963,None,163.66980567999963,None,,,,,,,156.51976389999982,159.26960529999997,159.0029556999998,None,0.17200000001000001,159.51959420000003,None,159.51959420000003,None,162.33609909999996,None,162.33609909999996,None,right,0.5874863999997615,162.33609909999996,None,163.0198323999998,None,left,0.6315104000000247,163.0198323999998,None,163.0198323999998,None,-10.004075333761547,150.00000038823157,,2,001,2021_Apr_07_1317,AB_pic_singleT2,2021.1.2,59.98843422981694,
AB,lag2,2,3,5,0.16266666668000002,0.041999999999999996,0.41999999999999993,ramp,,,,,0,4,4,4,,,,,,,toilet.jpg,bluecheese.jpg,schoolbus.jpg,snowshovel.jpg,pingpongtable.jpg,waterfountain02.jpg,toyanimal05.jpg,birdhouse.jpg,skunk.jpg,lighthouse.jpg,eyepatch.jpg,tire.jpg,acorn.jpg,steeringwheel.jpg,lion.jpg,well.jpg,squid.jpg,,,,,0,0,7,,,,,.\resources\pingpongtable.jpg,,,1,,,,,,,,,1,,,,,,,,,None,169.1523728799998,None,169.1523728799998,None,,,,,,,163.68646249999983,166.43588999999974,166.16921430000002,None,0.16266666668000002,166.6691850999996,None,166.6691850999996,None,168.3357544999999,None,168.3357544999999,None,right,0.5557819000000563,168.3357544999999,None,168.96904949999998,None,right,0.14640000000008513,168.96904949999998,None,168.96904949999998,None,-10.005426297173447,150.0000011389316,,2,001,2021_Apr_07_1317,AB_pic_singleT2,2021.1.2,59.98843422981694,
AB,lag3,3,5,8,0.15333333335000002,0.039999999999999994,0.3999999999999999,ramp,,,,,0,5,5,5,,,,,,,electricguitar01.jpg,rooster.jpg,helicopter.jpg,worldmap.jpg,electrictoothbrush01c.jpg,fishskeleton.jpg,toolbox02.jpg,motorcycle.jpg,kneepad01c.jpg,birdnest.jpg,englishcucumber.jpg,eyepatch.jpg,waterfountain02.jpg,microwave.jpg,brownsugar.jpg,cactus.jpg,tire.jpg,,,,,1,0,10,,,,,.\resources\motorcycle.jpg,,,1,,,,,,,,,1,,,,,,,,,None,175.6020297799996,None,175.6020297799996,None,,,,,,,169.1690451999998,171.91888719999997,171.6522302999997,None,0.15333333335000002,172.16887469999983,None,172.16887469999983,None,174.30208489999995,None,174.30208489999995,None,left,1.077360100000078,174.30208489999995,None,175.4520075999999,None,right,0.12745519999998578,175.4520075999999,None,175.4520075999999,None,-10.006764806001751,150.00000351094027,,2,001,2021_Apr_07_1317,AB_pic_singleT2,2021.1.2,59.98843422981694,
AB,lag1,1,4,5,0.14400000002000002,0.03799999999999999,0.3799999999999999,ramp,,,,,0,6,6,6,,,,,,,vulture.jpg,humanskeleton.jpg,lightswitch01.jpg,table01.jpg,lip.jpg,football.jpg,lawnmower.jpg,punchingbag.jpg,brownsugar.jpg,ladder.jpg,cow.jpg,apron.jpg,ear.jpg,tarantula.jpg,surfboard.jpg,microphone01.jpg,cloud.jpg,,,,,0,1,7,,,,,.\resources\lip.jpg,,,0,,,,,,,,,0,,,,,,,,,None,182.2687277799996,None,182.2687277799996,None,,,,,,,175.61867110000003,178.36851389999993,178.1018764999999,None,0.14400000002000002,178.6185029999997,None,178.6185029999997,None,180.08507819999977,None,180.08507819999977,None,left,1.8303913999998258,180.08507819999977,None,182.00207969999974,None,right,0.24127150000003894,182.00207969999974,None,182.00207969999974,None,-14.291848355734714,149.3829992881154,,2,001,2021_Apr_07_1317,AB_pic_singleT2,2021.1.2,59.98843422981694,
AB,lag6,6,5,11,0.13466666669000002,0.03599999999999999,0.3599999999999999,ramp,,,,,0,7,7,7,,,,,,,uprightpiano01.jpg,dragonfly01.jpg,crab01.jpg,ladybug03.jpg,car.jpg,hockeypuck.jpg,tank.jpg,witchhat.jpg,lion.jpg,slug.jpg,tulip02.jpg,kiwi03.jpg,birdfeeder.jpg,pingpongtable.jpg,sausage.jpg,motorcycle.jpg,swing.jpg,,,,,1,1,13,,,,,.\resources\tulip02.jpg,,,1,,,,,,,,,1,,,,,,,,,None,189.6016396799996,None,189.6016396799996,None,,,,,,,182.28538179999987,185.03479849999985,184.76815099999976,None,0.13466666669000002,185.26812259999997,None,185.26812259999997,None,187.6846547,None,187.6846547,None,left,1.6546649000001707,187.6846547,None,189.4183221999997,None,left,0.1610433999999259,189.4183221999997,None,189.4183221999997,None,-17.889786465016265,148.8639689829328,,2,001,2021_Apr_07_1317,AB_pic_singleT2,2021.1.2,59.98843422981694,
AB,lag3,3,4,7,0.12533333336000002,0.03399999999999999,0.33999999999999986,ramp,,,,,0,8,8,8,,,,,,,electricguitar01.jpg,nose.jpg,shovel01.jpg,pingpongtable.jpg,knee.jpg,badmintonracket.jpg,bowlingball.jpg,apron.jpg,arrow02.jpg,rubikcube.jpg,motorcycle.jpg,tarantula.jpg,snowshoe.jpg,slug.jpg,frisbee.jpg,licenseplate.jpg,musicsheet.jpg,,,,,1,1,9,,,,,.\resources\bowlingball.jpg,,,1,,,,,,,,,1,,,,,,,,,None,195.28466137999976,None,195.28466137999976,None,,,,,,,189.61830279999958,192.3677118999999,192.10109599999987,None,0.12533333336000002,192.61770449999995,None,192.61770449999995,None,194.21760689999974,None,194.21760689999974,None,left,0.8418348000000151,194.21760689999974,None,195.13468439999997,None,left,0.12463359999992463,195.13468439999997,None,195.13468439999997,None,-18.84979894230761,148.69217095673557,,2,001,2021_Apr_07_1317,AB_pic_singleT2,2021.1.2,59.98843422981694,
AB,lag4,4,4,8,0.11600000003000002,0.03199999999999999,0.31999999999999984,ramp,,,,,0,9,9,9,,,,,,,cigar.jpg,shovel01.jpg,telescope.jpg,armadillo.jpg,pokerchips.jpg,trampoline.jpg,granolabar01.jpg,ironingboard01.jpg,polarbear.jpg,surfboard.jpg,calendar.jpg,snowshoe.jpg,steeringwheel.jpg,dragonfly01.jpg,cloud.jpg,volleyball.jpg,dormer.jpg,,,,,0,1,10,,,,,.\resources\ironingboard01.jpg,,,1,,,,,,,,,1,,,,,,,,,None,201.25100497999983,None,201.25100497999983,None,,,,,,,195.30131289999963,198.05076149999968,197.78406479999967,None,0.11600000003000002,198.28403819999994,None,198.28403819999994,None,199.93394799999987,None,199.93394799999987,None,right,1.0133049000000938,199.93394799999987,None,201.0176276999996,None,left,0.21770959999957995,201.0176276999996,None,201.0176276999996,None,-17.885131251977977,148.7445257935547,,2,001,2021_Apr_07_1317,AB_pic_singleT2,2021.1.2,59.98843422981694,
AB,lag5,5,4,9,0.10666666670000002,0.029999999999999985,0.2999999999999998,ramp,,,,,0,10,10,10,,,,,,,car.jpg,spiderweb.jpg,jeans01.jpg,cashregister01.jpg,squirrel.jpg,toyanimal05.jpg,dandelion.jpg,footballhelmet.jpg,masquerademask01.jpg,toolbox02.jpg,exitsign.jpg,hammerheadshark.jpg,waterfountain02.jpg,acousticguitar02.jpg,tree.jpg,drumset.jpg,dromedary.jpg,,,,,0,1,11,,,,,.\resources\masquerademask01.jpg,,,1,,,,,,,,,1,,,,,,,,,None,207.11731377999968,None,207.11731377999968,None,,,,,,,201.26764879999973,204.0170509999998,203.75039809999998,None,0.10666666670000002,204.25037029999976,None,204.25037029999976,None,205.9169407999998,None,205.9169407999998,None,right,0.7025375000002896,205.9169407999998,None,206.71689389999983,None,left,0.3664223000000675,206.71689389999983,None,206.71689389999983,None,-16.614630977812936,148.8048365640883,,2,001,2021_Apr_07_1317,AB_pic_singleT2,2021.1.2,59.98843422981694,
AB,lag2,2,3,5,0.09733333337000002,0.027999999999999983,0.3,ramp,,,,,0,11,11,11,,,,,,,waterfountain02.jpg,toolbox02.jpg,foosballtable.jpg,wheelbarrow01.jpg,armadillo.jpg,parkfountain.jpg,saxophone.jpg,redfox.jpg,mouse.jpg,jackrabbit.jpg,drumset.jpg,flag.jpg,dandelion.jpg,masquerademask01.jpg,harmonica.jpg,kangaroo.jpg,grizzly.jpg,,,,,0,0,7,,,,,.\resources\armadillo.jpg,,,0,,,,,,,,,1,,,,,,,,,None,212.5499186799998,None,212.5499186799998,None,,,,,,,207.13398759999973,209.88338029999977,209.6167461,None,0.09733333337000002,210.13336919999983,None,210.13336919999983,None,211.14997589999984,None,211.14997589999984,None,left,0.9732748999999785,211.14997589999984,None,212.1999469999996,None,right,0.33135100000026796,212.1999469999996,None,212.1999469999996,None,-16.523397771099656,148.73985566513596,,2,001,2021_Apr_07_1317,AB_pic_singleT2,2021.1.2,59.98843422981694,
AB,lag1,1,4,5,0.08800000004000003,0.02599999999999998,0.3,ramp,,,,,0,12,12,12,,,,,,,armadillo.jpg,christmastree.jpg,brownsugar.jpg,uprightpiano01.jpg,boxingglove01.jpg,africanelephant.jpg,pirateflag.jpg,discoball.jpg,kiwi03.jpg,exitsign.jpg,tricycle.jpg,microwave.jpg,holdfast.jpg,cigar.jpg,birdfeeder.jpg,slug.jpg,baseballbat.jpg,,,,,0,1,7,,,,,.\resources\boxingglove01.jpg,,,1,,,,,,,,,1,,,,,,,,,None,218.8828681799996,None,218.8828681799996,None,,,,,,,212.5665595999999,215.31641599999966,215.0497519999999,None,0.08800000004000003,215.54972599999974,None,215.54972599999974,None,216.48301089999995,None,216.48301089999995,None,right,1.368407599999955,216.48301089999995,None,217.93289529999993,None,left,0.9183914000000186,217.93289529999993,None,217.93289529999993,None,-15.40082390017642,148.74591548741753,,2,001,2021_Apr_07_1317,AB_pic_singleT2,2021.1.2,59.98843422981694,
AB,lag7,7,5,12,0.07866666671000003,0.02399999999999998,0.3,ramp,,,,,0,13,13,13,,,,,,,boat.jpg,cross01.jpg,foldingchair.jpg,makiroll.jpg,schoolbus.jpg,spear02.jpg,statue.jpg,acousticguitar02.jpg,scorpion.jpg,bowtie.jpg,apron.jpg,dartboard.jpg,electrictoothbrush01c.jpg,crosscountryski.jpg,electricguitar01.jpg,totempole.jpg,soccerball.jpg,,,,,0,0,14,,,,,.\resources\dartboard.jpg,,,1,,,,,,,,,1,,,,,,,,,None,224.34922078,None,224.34922078,None,,,,,,,218.89994649999971,221.64934719999974,221.3827226999997,None,0.07866666671000003,221.8993386999996,None,221.8993386999996,None,223.4492651999999,None,223.4492651999999,None,right,0.6581100999997034,223.4492651999999,None,224.18293679999988,None,right,0.14842570000018895,224.18293679999988,None,224.18293679999988,None,-14.10528415017617,148.72689890575938,,2,001,2021_Apr_07_1317,AB_pic_singleT2,2021.1.2,59.98843422981694,
AB,lag1,1,3,4,0.06933333338000003,0.021999999999999978,0.3,ramp,,,,,0,14,14,14,,,,,,,hulahoop.jpg,fireplace.jpg,sandcastle.jpg,whiteout.jpg,moon.jpg,tricycle.jpg,ironingboard01.jpg,chimney.jpg,toolbox02.jpg,spicerack.jpg,penguin.jpg,snowshovel.jpg,jeans01.jpg,wallclock.jpg,callbell.jpg,polarbear.jpg,hand01b.jpg,,,,,0,0,6,,,,,.\resources\whiteout.jpg,,,1,,,,,,,,,1,,,,,,,,,None,228.93225237999968,None,228.93225237999968,None,,,,,,,224.36626899999965,227.11610529999962,226.84944610000002,None,0.06933333338000003,227.36610119999978,None,227.36610119999978,None,228.0156539999998,None,228.0156539999998,None,right,0.7078413999997792,228.0156539999998,None,228.79894349999995,None,right,0.11633440000014161,228.79894349999995,None,228.79894349999995,None,-12.776076849890584,148.67136580429002,,2,001,2021_Apr_07_1317,AB_pic_singleT2,2021.1.2,59.98843422981694,
AB,lag6,6,5,11,0.06000000005000003,0.02,0.3,main,,,,,0,15,15,15,,,,,,,soccerball.jpg,fingerprint.jpg,arrow02.jpg,helicopter.jpg,statue.jpg,bench01.jpg,fortunecookie.jpg,toilet.jpg,popcorn.jpg,pumpkin.jpg,cloud.jpg,floorlamp.jpg,banjo.jpg,tricycle.jpg,mattress.jpg,parkingmeter.jpg,horse.jpg,,,,,0,1,13,,,,,.\resources\cloud.jpg,,,1,,,,,,,,,1,,,,,,,,,None,236.49852878000002,None,236.49852878000002,None,,,,,,,228.94894539999996,231.69918169999983,231.43253659999982,None,0.09525957560418007,231.9320963,None,231.9320963,None,233.5653258999996,None,233.5653258999996,None,right,1.7739502999997967,233.5653258999996,None,235.41522899999973,None,left,1.0600429999999506,235.41522899999973,None,235.41522899999973,None,-12.289629749915717,148.55438236222776,,2,001,2021_Apr_07_1317,AB_pic_singleT2,2021.1.2,59.98843422981694,
AB,lag1,1,5,6,0.06000000005000003,0.02,0.3,main,,,,,0,16,16,16,,,,,,,motorcycle.jpg,locker.jpg,ladder.jpg,bowlingball.jpg,tire.jpg,drumstick.jpg,rooster.jpg,seal.jpg,dormer.jpg,dreamcatcher.jpg,birthdaycandle.jpg,penguin.jpg,football.jpg,eiffeltower.jpg,schoolbus.jpg,alligator.jpg,giraffe.jpg,,,,,1,0,8,,,,,.\resources\drumstick.jpg,,,0,,,,,,,,,1,,,,,,,,,None,243.1481428799998,None,243.1481428799998,None,,,,,,,236.51516270000002,239.26500659999965,238.99835809999968,None,0.09206005163609984,239.49836239999968,None,239.49836239999968,None,240.53160709999975,None,240.53160709999975,None,right,1.7037279000001035,240.53160709999975,None,242.31480789999978,None,right,0.8165656999999555,242.31480789999978,None,242.31480789999978,None,-12.845200557329036,148.34977398402202,,2,001,2021_Apr_07_1317,AB_pic_singleT2,2021.1.2,59.98843422981694,
AB,lag5,5,3,8,0.06000000005000003,0.02,0.3,main,,,,,0,17,17,17,,,,,,,scorpion.jpg,apron.jpg,fortunecookie.jpg,bathtub.jpg,parachute.jpg,chair.jpg,jeans01.jpg,shovel01.jpg,pooltable.jpg,hockeypuck.jpg,fishskeleton.jpg,surfboard.jpg,statue.jpg,fridge.jpg,skunk.jpg,smokingpipe.jpg,cashregister01.jpg,,,,,0,0,10,,,,,.\resources\shovel01.jpg,,,1,,,,,,,,,1,,,,,,,,,None,248.06450487999973,None,248.06450487999973,None,,,,,,,243.16476299999977,245.9149708,245.6483377999998,None,0.09593202966377103,246.14792390000002,None,246.14792390000002,None,247.44784879999997,None,247.44784879999997,None,right,0.3874166000000514,247.44784879999997,None,247.9145153999998,None,right,0.12876969999979337,247.9145153999998,None,247.9145153999998,None,-12.768785899558585,148.21223619907158,,2,001,2021_Apr_07_1317,AB_pic_singleT2,2021.1.2,59.98843422981694,
AB,lag3,3,4,7,0.06000000005000003,0.02,0.3,main,,,,,0,18,18,18,,,,,,,bacon.jpg,birthdaycandle.jpg,greathornowl.jpg,badmintonracket.jpg,grizzly.jpg,fireplace.jpg,bridge.jpg,redfox.jpg,tree.jpg,hotdogweiner.jpg,bed.jpg,tarantula.jpg,nose.jpg,bathtub.jpg,funnel.jpg,kite.jpg,urinal.jpg,,,,,1,0,9,,,,,.\resources\bridge.jpg,,,1,,,,,,,,,1,,,,,,,,,None,254.4974695799997,None,254.4974695799997,None,,,,,,,248.08118119999972,250.83139779999965,250.56471799999963,None,0.09550547663059378,251.0813708999999,None,251.0813708999999,None,252.2475715999999,None,252.2475715999999,None,left,1.891728300000068,252.2475715999999,None,254.21412680000003,None,right,0.26120840000021417,254.21412680000003,None,254.21412680000003,None,-12.6198709398526,148.0904433343571,,2,001,2021_Apr_07_1317,AB_pic_singleT2,2021.1.2,59.98843422981694,
AB,lag2,2,5,7,0.06000000005000003,0.02,0.3,main,,,,,0,19,19,19,,,,,,,nunchuk.jpg,chainsaw.jpg,pingpongtable.jpg,electrictoothbrush01c.jpg,cruiseship.jpg,snowshoe.jpg,greathornowl.jpg,dreamcatcher.jpg,crosscountryski.jpg,stubbywrench01a.jpg,windmill.jpg,bacon.jpg,horse.jpg,licenseplate.jpg,bridge.jpg,redfox.jpg,birdnest.jpg,,,,,0,0,9,,,,,.\resources\greathornowl.jpg,,,1,,,,,,,,,1,,,,,,,,,None,259.3471635799997,None,259.3471635799997,None,,,,,,,254.51411310000003,257.2643372999996,256.9976899999997,None,0.09457845479839312,257.4972650999998,None,257.4972650999998,None,258.66387269999996,None,258.66387269999996,None,right,0.4435585999999603,258.66387269999996,None,259.18053469999995,None,right,0.11869680000017979,259.18053469999995,None,259.18053469999995,None,-12.472218263961063,147.97653665074117,,2,001,2021_Apr_07_1317,AB_pic_singleT2,2021.1.2,59.98843422981694,
AB,lag4,4,3,7,0.06000000005000003,0.02,0.3,main,,,,,0,20,20,20,,,,,,,seal.jpg,calendar.jpg,popcorn.jpg,bullet.jpg,slug.jpg,motorcycle.jpg,elbow.jpg,sheep.jpg,christmaslights.jpg,redfox.jpg,ear.jpg,parkingmeter.jpg,squid.jpg,makiroll.jpg,dragonfly01.jpg,church.jpg,raccoon.jpg,,,,,1,0,9,,,,,.\resources\elbow.jpg,,,1,,,,,,,,,0,,,,,,,,,None,265.1635136799996,None,265.1635136799996,None,,,,,,,259.3638753,262.11405779999996,261.84741510000003,None,0.09365344627432555,262.34699309999996,None,262.34699309999996,None,263.51359479999974,None,263.51359479999974,None,left,1.4258673999997882,263.51359479999974,None,265.01354509999965,None,left,0.1257517000003645,265.01354509999965,None,265.01354509999965,None,-12.332344045285916,147.86894373888805,,2,001,2021_Apr_07_1317,AB_pic_singleT2,2021.1.2,59.98843422981694,
AB,lag7,7,5,12,0.06000000005000003,0.02,0.3,main,,,,,0,21,21,21,,,,,,,bumpercar.jpg,leafblower01.jpg,zipper.jpg,ironingboard01.jpg,africanelephant.jpg,giraffe.jpg,funnel.jpg,cactus.jpg,flamingo.jpg,arrow02.jpg,bat.jpg,musicsheet.jpg,horseshoe.jpg,tree.jpg,tie02.jpg,knee.jpg,jeep.jpg,,,,,0,0,14,,,,,.\resources\musicsheet.jpg,,,1,,,,,,,,,1,,,,,,,,,None,270.4799142799998,None,270.4799142799998,None,,,,,,,265.1801668999997,267.93039699999963,267.6637474999998,None,0.09277565700767187,268.1633339,None,268.1633339,None,269.86323159999984,None,269.86323159999984,None,right,0.38803260000031514,269.86323159999984,None,270.3299628,None,right,0.12132070000006934,270.3299628,None,270.3299628,None,-12.19960551758472,147.7669027038348,,2,001,2021_Apr_07_1317,AB_pic_singleT2,2021.1.2,59.98843422981694,
AB,lag6,6,5,11,0.06000000005000003,0.02,0.3,main,,,,,0,22,22,22,,,,,,,cigar.jpg,lightswitch01.jpg,well.jpg,guitarcase.jpg,dormer.jpg,totempole.jpg,cow.jpg,dalmatian.jpg,sheep.jpg,nunchuk.jpg,makiroll.jpg,christmastree.jpg,eyepatch.jpg,snowman.jpg,granolabar01.jpg,stubbywrench01a.jpg,tank.jpg,,,,,0,0,13,,,,,.\resources\makiroll.jpg,,,1,,,,,,,,,1,,,,,,,,,None,275.76294878,None,275.76294878,None,,,,,,,270.49657309999975,273.2464173999997,272.9797432999999,None,0.09194142686968584,273.4797193999998,None,273.4797193999998,None,275.0796271999998,None,275.0796271999998,None,right,0.44373189999987517,275.0796271999998,None,275.59628159999966,None,right,0.13500500000009197,275.59628159999966,None,275.59628159999966,None,-12.07294609945488,147.66981717901328,,2,001,2021_Apr_07_1317,AB_pic_singleT2,2021.1.2,59.98843422981694,
AB,lag7,7,5,12,0.06000000005000003,0.02,0.3,main,,,,,0,23,23,23,,,,,,,motorcycle.jpg,duck01.jpg,whiteout.jpg,cigar.jpg,leafrake.jpg,sandcastle.jpg,ducttape.jpg,licenseplate.jpg,skateboard.jpg,magneticcompass.jpg,vacuumcleaner01.jpg,ironingboard01.jpg,spicerack.jpg,beaver.jpg,kneepad01c.jpg,uprightpiano01.jpg,microphone01.jpg,,,,,0,0,14,,,,,.\resources\ironingboard01.jpg,,,1,,,,,,,,,1,,,,,,,,,None,281.1126115799998,None,281.1126115799998,None,,,,,,,275.77961909999976,278.5298236999997,278.2631965999999,None,0.09114415333946514,278.7627554999999,None,278.7627554999999,None,280.4626527999999,None,280.4626527999999,None,right,0.42071749999968233,280.4626527999999,None,280.96261989999994,None,right,0.10487499999999272,280.96261989999994,None,280.96261989999994,None,-11.951498631485057,147.5771762133345,,2,001,2021_Apr_07_1317,AB_pic_singleT2,2021.1.2,59.98843422981694,
AB,lag5,5,3,8,0.06000000005000003,0.02,0.3,main,,,,,0,24,24,24,,,,,,,apron.jpg,corn02.jpg,dromedary.jpg,giraffe.jpg,mouse.jpg,sledgehammer.jpg,honeybee.jpg,waterfountain02.jpg,tricycle.jpg,dalmatian.jpg,bridge.jpg,spiderweb.jpg,dolphin01.jpg,rose.jpg,foot.jpg,englishcucumber.jpg,harmonica.jpg,,,,,1,0,10,,,,,.\resources\waterfountain02.jpg,,,1,,,,,,,,,1,,,,,,,,,None,286.6122465799999,None,286.6122465799999,None,,,,,,,281.1292785999999,283.8795332999998,283.6128626999998,None,0.0903784266296308,284.1124798999999,None,284.1124798999999,None,285.34570959999974,None,285.34570959999974,None,left,1.0657280999998875,285.34570959999974,None,286.4789756,None,right,0.10031749999961903,286.4789756,None,286.4789756,None,-11.834576364027491,147.48853573196942,,2,001,2021_Apr_07_1317,AB_pic_singleT2,2021.1.2,59.98843422981694,
AB,lag3,3,3,6,0.06000000005000003,0.02,0.3,main,,,,,0,25,25,25,,,,,,,bowlingpin.jpg,whiteout.jpg,dreamcatcher.jpg,greathornowl.jpg,spicerack.jpg,wheelbarrow01.jpg,safe.jpg,dormer.jpg,tarantula.jpg,witchhat.jpg,nosmokingsign.jpg,bow.jpg,spear02.jpg,anchor.jpg,tent.jpg,electrictoothbrush01c.jpg,masquerademask01.jpg,,,,,0,0,8,,,,,.\resources\wheelbarrow01.jpg,,,1,,,,,,,,,0,,,,,,,,,None,292.61194927999986,None,292.61194927999986,None,,,,,,,286.6289400999999,289.3791741,289.1125253,None,0.08963998903056195,289.6121057999999,None,289.6121057999999,None,290.6287124999999,None,290.6287124999999,None,right,1.686521200000243,290.6287124999999,None,292.39530209999975,None,left,0.1999460000001818,292.39530209999975,None,292.39530209999975,None,-11.721626815606442,147.4035077727244,,2,001,2021_Apr_07_1317,AB_pic_singleT2,2021.1.2,59.98843422981694,
AB,lag2,2,3,5,0.06000000005000003,0.02,0.3,main,,,,,0,26,26,26,,,,,,,church.jpg,urinal.jpg,volleyball.jpg,helicopter.jpg,motorcycle.jpg,turnstile.jpg,handcuffs.jpg,lizard.jpg,tire.jpg,barrel01.jpg,honeybee.jpg,surfboard.jpg,baseballbat.jpg,waterfall.jpg,swordfish.jpg,seagull.jpg,kneepad01c.jpg,,,,,1,1,7,,,,,.\resources\motorcycle.jpg,,,1,,,,,,,,,1,,,,,,,,,None,297.6949714799998,None,297.6949714799998,None,,,,,,,292.6285979999998,295.3788222999997,295.1121564,None,0.08892543586504681,295.61179089999996,None,295.61179089999996,None,296.5117009999999,None,296.5117009999999,None,left,0.9315499999997883,296.5117009999999,None,297.5116673999996,None,left,0.15555449999965276,297.5116673999996,None,297.5116673999996,None,-11.612197103607022,147.32175192272913,,2,001,2021_Apr_07_1317,AB_pic_singleT2,2021.1.2,59.98843422981694,
AB,lag1,1,5,6,0.06000000005000003,0.02,0.3,main,,,,,0,27,27,27,,,,,,,nose.jpg,uprightpiano01.jpg,grizzly.jpg,cymbal.jpg,shovel01.jpg,telescope.jpg,spiderweb.jpg,steeringwheel.jpg,ironingboard01.jpg,panda.jpg,butterfly.jpg,car.jpg,cloud.jpg,tie02.jpg,horseshoe.jpg,lily.jpg,hotdogweiner.jpg,,,,,0,0,8,,,,,.\resources\telescope.jpg,,,1,,,,,,,,,0,,,,,,,,,None,303.27799897999967,None,303.27799897999967,None,,,,,,,297.7116638999996,300.4618817999999,300.1952220999997,None,0.0882319908301435,300.69479509999974,None,300.69479509999974,None,301.6947431999997,None,301.6947431999997,None,right,1.2606470999999146,301.6947431999997,None,303.0280286999996,None,left,0.23129990000006728,303.0280286999996,None,303.0280286999996,None,-11.505909803954381,147.2429682211334,,2,001,2021_Apr_07_1317,AB_pic_singleT2,2021.1.2,59.98843422981694,
AB,lag4,4,5,9,0.06000000005000003,0.02,0.3,main,,,,,0,28,28,28,,,,,,,flamingo.jpg,duck01.jpg,trampoline.jpg,moon.jpg,tortoise01.jpg,horseshoe.jpg,spicerack.jpg,schoolbus.jpg,eye.jpg,toilet.jpg,tulip02.jpg,nosmokingsign.jpg,daddylonglegs.jpg,elbow.jpg,birthdaycandle.jpg,trophy01.jpg,dartboard.jpg,,,,,0,1,11,,,,,.\resources\eye.jpg,,,1,,,,,,,,,1,,,,,,,,,None,309.3776769799997,None,309.3776769799997,None,,,,,,,303.29465759999994,306.0448852999998,305.77822479999986,None,0.08755735041766081,306.2778166999997,None,306.2778166999997,None,307.59440749999976,None,307.59440749999976,None,right,1.1048240000000078,307.59440749999976,None,308.77770729999975,None,left,0.5775699000000714,308.77770729999975,None,308.77770729999975,None,-11.402445884018094,147.1668912575651,,2,001,2021_Apr_07_1317,AB_pic_singleT2,2021.1.2,59.98843422981694,
AB,lag3,3,4,7,0.06000000005000003,0.02,0.3,main,,,,,0,29,29,29,,,,,,,ant.jpg,tiger02.jpg,bridge.jpg,jeans01.jpg,redfox.jpg,firehydrant.jpg,honeybee.jpg,tulip02.jpg,frisbee.jpg,hockeystick.jpg,parkingmeter.jpg,electrictoothbrush01c.jpg,lawnmower.jpg,shovel01.jpg,panda.jpg,bathtub.jpg,dandelion.jpg,,,,,1,0,9,,,,,.\resources\honeybee.jpg,,,1,,,,,,,,,1,,,,,,,,,None,314.7440125799999,None,314.7440125799999,None,,,,,,,309.39469299999973,312.1445305999996,311.87787879999996,None,0.08689957459762934,312.3774656999999,None,312.3774656999999,None,313.47740829999975,None,313.47740829999975,None,left,1.005949000000328,313.47740829999975,None,314.5606743999997,None,right,0.16253039999992325,314.5606743999997,None,314.5606743999997,None,-11.301532341127853,147.09328525791886,,2,001,2021_Apr_07_1317,AB_pic_singleT2,2021.1.2,59.98843422981694,
AB,lag1,1,4,5,0.06000000005000003,0.02,0.3,main,,,,,0,30,30,30,,,,,,,fingerprint.jpg,trophy01.jpg,snowman.jpg,harmonica.jpg,arrow02.jpg,skunk.jpg,flamingo.jpg,basketball01.jpg,honeybee.jpg,sausage.jpg,armadillo.jpg,penguin.jpg,fishingrod.jpg,waterfall.jpg,electrictoothbrush01c.jpg,jeep.jpg,lip.jpg,,,,,0,1,7,,,,,.\resources\arrow02.jpg,,,1,,,,,,,,,1,,,,,,,,,None,320.4274743799997,None,320.4274743799997,None,,,,,,,314.76066479999963,317.51060929999994,317.24437709999984,None,0.08625700812923197,317.7610356,None,317.7610356,None,318.6271873999999,None,318.6271873999999,None,right,1.6562456999999995,318.6271873999999,None,320.37749189999977,None,left,0.033848199999738426,320.37749189999977,None,320.37749189999977,None,-11.202933046061956,147.02193998145924,,2,001,2021_Apr_07_1317,AB_pic_singleT2,2021.1.2,59.98843422981694,
AB,lag4,4,5,9,0.06000000005000003,0.02,0.3,main,,,,,0,31,31,31,,,,,,,moon.jpg,grizzly.jpg,fridge.jpg,discoball.jpg,turnstile.jpg,soccerball.jpg,safe.jpg,airhockeytable.jpg,toad.jpg,car.jpg,zebra.jpg,leafblower01.jpg,parkingmeter.jpg,hand01b.jpg,wheelchair.jpg,lip.jpg,pumpkin.jpg,,,,,0,0,11,,,,,.\resources\toad.jpg,,,1,,,,,,,,,1,,,,,,,,,None,325.24347407999994,None,325.24347407999994,None,,,,,,,320.4441192999998,323.1935699999999,322.9269320999997,None,0.08562822262289192,323.42689159999964,None,323.42689159999964,None,324.72681269999975,None,324.72681269999975,None,right,0.300380000000132,324.72681269999975,None,325.1267912999997,None,right,0.100544699999773,325.1267912999997,None,325.1267912999997,None,-11.106441825756937,146.95266728319706,,2,001,2021_Apr_07_1317,AB_pic_singleT2,2021.1.2,59.98843422981694,
AB,lag6,6,3,9,0.06000000005000003,0.02,0.3,main,,,,,0,32,32,32,,,,,,,bench01.jpg,fortunecookie.jpg,donut.jpg,smokingpipe.jpg,motorcycle.jpg,lollipop04.jpg,bluejay.jpg,anchor.jpg,greywolf.jpg,airhockeytable.jpg,noparkingsign.jpg,christmaslights.jpg,recyclingbin.jpg,penguin.jpg,showerhead01.jpg,punchingbag.jpg,moon.jpg,,,,,0,0,11,,,,,.\resources\greywolf.jpg,,,1,,,,,,,,,1,,,,,,,,,None,330.00986758,None,330.00986758,None,,,,,,,325.26011619999963,328.00995909999983,327.74330899999995,None,0.08501197302395122,328.2432808999997,None,328.2432808999997,None,329.5265750999997,None,329.5265750999997,None,right,0.25272899999981746,329.5265750999997,None,329.8598562999996,None,right,0.11962229999971896,329.8598562999996,None,329.8598562999996,None,-11.011877147569589,146.88529822215747,,2,001,2021_Apr_07_1317,AB_pic_singleT2,2021.1.2,59.98843422981694,
AB,lag2,2,3,5,0.06000000005000003,0.02,0.3,main,,,,,0,33,33,33,,,,,,,microphone01.jpg,cat.jpg,tie02.jpg,horseshoe.jpg,kite.jpg,bluejay.jpg,bullet.jpg,moon.jpg,leafrake.jpg,car.jpg,calendar.jpg,dolphin01.jpg,birthdaycandle.jpg,jeep.jpg,basketball01.jpg,lightswitch01.jpg,lip.jpg,,,,,0,0,7,,,,,.\resources\kite.jpg,,,1,,,,,,,,,0,,,,,,,,,None,335.34325498,None,335.34325498,None,,,,,,,330.0265076999999,332.7763663999999,332.5096985,None,0.08440716435716934,333.0096931999997,None,333.0096931999997,None,333.8762875999996,None,333.8762875999996,None,right,1.2150013999998919,333.8762875999996,None,335.1599484999997,None,left,0.14726680000012493,335.1599484999997,None,335.1599484999997,None,-10.919077973549943,146.81968061868739,,2,001,2021_Apr_07_1317,AB_pic_singleT2,2021.1.2,59.98843422981694,
AB,lag5,5,4,9,0.06000000005000003,0.02,0.3,main,,,,,0,34,34,34,,,,,,,beerbottle.jpg,tie02.jpg,foot.jpg,squirrel.jpg,greatwhiteshark.jpg,tortoise01.jpg,pigeon.jpg,snowboard.jpg,africanelephant.jpg,tarantula.jpg,rose.jpg,escalator.jpg,masquerademask01.jpg,dormer.jpg,discoball.jpg,bow.jpg,beaver.jpg,,,,,0,0,11,,,,,.\resources\africanelephant.jpg,,,1,,,,,,,,,1,,,,,,,,,None,340.0592547799997,None,340.0592547799997,None,,,,,,,335.35991239999976,338.10935619999964,337.84270049999986,None,0.08381282592916628,338.3593409,None,338.3593409,None,339.60926979999977,None,339.60926979999977,None,right,0.23390539999991233,339.60926979999977,None,339.9259115,None,right,0.10944969999991372,339.9259115,None,339.9259115,None,-10.827900486012151,146.75567698240016,,2,001,2021_Apr_07_1317,AB_pic_singleT2,2021.1.2,59.98843422981694,
AB,lag7,7,5,12,0.06000000005000003,0.02,0.3,main,,,,,0,35,35,35,,,,,,,dandelion.jpg,toad.jpg,birthdaycandle.jpg,eyepatch.jpg,dartboard.jpg,banjo.jpg,witchhat.jpg,dromedary.jpg,worldmap.jpg,windshieldwiper02.jpg,airhockeytable.jpg,knee.jpg,microphone01.jpg,sandcastle.jpg,tricycle.jpg,leafblower01.jpg,fishskeleton.jpg,,,,,0,0,14,,,,,.\resources\knee.jpg,,,1,,,,,,,,,1,,,,,,,,,None,345.29226638,None,345.29226638,None,,,,,,,340.07592339999974,342.8261822999998,342.55950489999987,None,0.08322809105774384,343.0590692999999,None,343.0590692999999,None,344.64234439999973,None,344.64234439999973,None,right,0.4329692999999679,344.64234439999973,None,345.1422752999997,None,right,0.10895399999981237,345.1422752999997,None,345.1422752999997,None,-10.738215473253376,146.69316274727493,,2,001,2021_Apr_07_1317,AB_pic_singleT2,2021.1.2,59.98843422981694,
AB,lag5,5,5,10,0.06000000005000003,0.02,0.3,main,,,,,0,36,36,36,,,,,,,toucan.jpg,jellybean.jpg,birdfeeder.jpg,ant.jpg,trophy01.jpg,stubbywrench01a.jpg,skunk.jpg,fingerprint.jpg,moon.jpg,anchor.jpg,cocktailshrimp02.jpg,ladder.jpg,candycane01a.jpg,bridge.jpg,holdfast.jpg,locker.jpg,fishskeleton.jpg,,,,,0,0,12,,,,,.\resources\anchor.jpg,,,0,,,,,,,,,0,,,,,,,,,None,351.8918923799997,None,351.8918923799997,None,,,,,,,345.3089660999999,348.05878159999975,347.79253719999997,None,0.0826521809694808,348.2921333999998,None,348.2921333999998,None,349.6586881999997,None,349.6586881999997,None,left,1.4965055000002394,349.6586881999997,None,351.22526609999977,None,left,0.6499313999997867,351.22526609999977,None,351.22526609999977,None,-10.987948417089768,146.60533973694018,,2,001,2021_Apr_07_1317,AB_pic_singleT2,2021.1.2,59.98843422981694,
AB,lag7,7,3,10,0.06000000005000003,0.02,0.3,main,,,,,0,37,37,37,,,,,,,whiteout.jpg,sword01.jpg,tulip02.jpg,saxophone.jpg,surfboard.jpg,cruiseship.jpg,airhockeytable.jpg,foosballtable.jpg,baseballbat.jpg,fortunecookie.jpg,leafblower01.jpg,saltshaker03a.jpg,boxingglove01.jpg,eye.jpg,worldmap.jpg,skippingrope.jpg,toilet.jpg,,,,,0,0,12,,,,,.\resources\fortunecookie.jpg,,,1,,,,,,,,,1,,,,,,,,,None,356.9082856799996,None,356.9082856799996,None,,,,,,,351.9085636,354.6588190999996,354.39216069999975,None,0.08440513012972964,354.8917609,None,354.8917609,None,356.27498339999966,None,356.27498339999966,None,right,0.42444090000026335,356.27498339999966,None,356.7749520999996,None,right,0.10834419999991951,356.7749520999996,None,356.7749520999996,None,-10.947075814511786,146.54394995858587,,2,001,2021_Apr_07_1317,AB_pic_singleT2,2021.1.2,59.98843422981694,
AB,lag4,4,3,7,0.06000000005000003,0.02,0.3,main,,,,,0,38,38,38,,,,,,,schoolbus.jpg,acousticguitar02.jpg,football.jpg,cheetah.jpg,crosscountryski.jpg,foldingchair.jpg,knee.jpg,greywolf.jpg,wheelbarrow01.jpg,parkfountain.jpg,pooltable.jpg,chair.jpg,scooter.jpg,lightswitch01.jpg,bluejay.jpg,bat.jpg,rollerblade.jpg,,,,,0,0,9,,,,,.\resources\knee.jpg,,,1,,,,,,,,,1,,,,,,,,,None,361.50803707999967,None,361.50803707999967,None,,,,,,,356.9249670999998,359.6751870999997,359.4085280999998,None,0.08416157868760298,359.90810409999995,None,359.90810409999995,None,360.97472070000003,None,360.97472070000003,None,right,0.3406628000002456,360.97472070000003,None,361.3913639999996,None,right,0.09185770000021876,361.3913639999996,None,361.3913639999996,None,-10.88002152141752,146.48626849638768,,2,001,2021_Apr_07_1317,AB_pic_singleT2,2021.1.2,59.98843422981694,
AB,lag3,3,5,8,0.06000000005000003,0.02,0.3,main,,,,,0,39,39,39,,,,,,,callbell.jpg,showerhead01.jpg,doghouse.jpg,donut.jpg,ostrich.jpg,frisbee.jpg,calendar.jpg,cloud.jpg,fridge.jpg,parkfountain.jpg,dartboard.jpg,ceilingfan01.jpg,smokingpipe.jpg,raccoon.jpg,trophy01.jpg,athleticsock.jpg,bowtie.jpg,,,,,0,0,10,,,,,.\resources\cloud.jpg,,,1,,,,,,,,,1,,,,,,,,,None,367.07479797999986,None,367.07479797999986,None,,,,,,,361.5246957999998,364.2750510999999,364.00843629999963,None,0.08373696735158419,364.5250554999998,None,364.5250554999998,None,365.6744603999996,None,365.6744603999996,None,right,0.15272449999974924,365.6744603999996,None,365.9077835999997,None,right,1.151595300000281,365.9077835999997,None,365.9077835999997,None,-10.811555702187844,146.43006678215994,,2,001,2021_Apr_07_1317,AB_pic_singleT2,2021.1.2,59.98843422981694,
AB,lag2,2,4,6,0.06000000005000003,0.02,0.3,main,,,,,0,40,40,40,,,,,,,tarantula.jpg,leafrake.jpg,mrpotatohead.jpg,bridge.jpg,bat.jpg,spear02.jpg,bed.jpg,xylophone.jpg,totempole.jpg,christmaslights.jpg,turnstile.jpg,dromedary.jpg,surfboard.jpg,windshieldwiper02.jpg,squirrel.jpg,trophy01.jpg,drumstick.jpg,,,,,1,0,8,,,,,.\resources\spear02.jpg,,,1,,,,,,,,,1,,,,,,,,,None,372.49074217999987,None,372.49074217999987,None,,,,,,,367.09148559999994,369.8408900999998,369.5742478999996,None,0.08330153998668967,370.0908800999996,None,370.0908800999996,None,371.0241613999997,None,371.0241613999997,None,left,1.1951507999997375,371.0241613999997,None,372.2907521999996,None,right,0.17654859999993278,372.2907521999996,None,372.2907521999996,None,-10.743752764697584,146.37506685019767,,2,001,2021_Apr_07_1317,AB_pic_singleT2,2021.1.2,59.98843422981694,
AB,lag1,1,4,5,0.06000000005000003,0.02,0.3,main,,,,,0,41,41,41,,,,,,,frisbee.jpg,key07.jpg,fingerprint.jpg,duck01.jpg,tent.jpg,rose.jpg,raccoon.jpg,dalmatian.jpg,cork02.jpg,toucan.jpg,smokingpipe.jpg,holdfast.jpg,hockeystick.jpg,bluecheese.jpg,hulahoop.jpg,telescope.jpg,mouse.jpg,,,,,0,0,7,,,,,.\resources\tent.jpg,,,1,,,,,,,,,1,,,,,,,,,None,377.02380877999985,None,377.02380877999985,None,,,,,,,372.5074050999997,375.25724939999964,374.9905994999999,None,0.0828696265480209,375.49056759999985,None,375.49056759999985,None,376.3405232,None,376.3405232,None,right,0.4786533999999847,376.3405232,None,376.90715769999997,None,right,0.09598950000008699,376.90715769999997,None,376.90715769999997,None,-10.676737539037253,146.32116578390068,,2,001,2021_Apr_07_1317,AB_pic_singleT2,2021.1.2,59.98843422981694,
AB,lag6,6,5,11,0.06000000005000003,0.02,0.3,main,,,,,0,42,42,42,,,,,,,birdfeeder.jpg,birdhouse.jpg,rollerblade.jpg,telescope.jpg,funnel.jpg,noparkingsign.jpg,trampoline.jpg,tortoise01.jpg,surfboard.jpg,golfball.jpg,scorpion.jpg,escalator.jpg,mattress.jpg,pooltable.jpg,foldingchair.jpg,giraffe.jpg,ducttape.jpg,,,,,0,1,13,,,,,.\resources\scorpion.jpg,,,0,,,,,,,,,1,,,,,,,,,None,382.70683827999983,None,382.70683827999983,None,,,,,,,377.04048269999976,379.7903242999996,379.52367189999995,None,0.08244215275029203,380.0403130999998,None,380.0403130999998,None,381.49022289999994,None,381.49022289999994,None,left,1.0009741000003487,381.49022289999994,None,382.57349989999966,None,left,0.10173789999998917,382.57349989999966,None,382.57349989999966,None,-10.874383968614227,146.24752330390788,,2,001,2021_Apr_07_1317,AB_pic_singleT2,2021.1.2,59.98843422981694,
AB,lag5,5,5,10,0.06000000005000003,0.02,0.3,main,,,,,0,43,43,43,,,,,,,fridge.jpg,raccoon.jpg,saxophone.jpg,saltshaker03a.jpg,parkfountain.jpg,kneepad01c.jpg,athleticsock.jpg,table01.jpg,leafrake.jpg,sword01.jpg,pirateflag.jpg,knee.jpg,dalmatian.jpg,honeybee.jpg,ant.jpg,tiger02.jpg,jeans01.jpg,,,,,0,1,12,,,,,.\resources\sword01.jpg,,,1,,,,,,,,,1,,,,,,,,,None,388.47358847999976,None,388.47358847999976,None,,,,,,,382.72345959999984,385.4733449999999,385.2066786999999,None,0.08383511770148726,385.70665529999997,None,385.70665529999997,None,387.08990859999994,None,387.08990859999994,None,right,1.1934000999999625,387.08990859999994,None,388.35694139999987,None,left,0.08635159999994357,388.35694139999987,None,388.35694139999987,None,-10.836734206295327,146.19500774897529,,2,001,2021_Apr_07_1317,AB_pic_singleT2,2021.1.2,59.98843422981694,
AB,lag7,7,5,12,0.06000000005000003,0.02,0.3,main,,,,,0,44,44,44,,,,,,,lighthouse.jpg,cat.jpg,nunchuk.jpg,candycane01a.jpg,bluecheese.jpg,saltshaker03a.jpg,hammerheadshark.jpg,fishingrod.jpg,duck01.jpg,cross01.jpg,ostrich.jpg,badmintonracket.jpg,englishcucumber.jpg,dormer.jpg,floorlamp.jpg,greathornowl.jpg,corn02.jpg,,,,,1,0,14,,,,,.\resources\badmintonracket.jpg,,,1,,,,,,,,,0,,,,,,,,,None,394.2728506799999,None,394.2728506799999,None,,,,,,,388.4902549999997,391.2396612999996,390.97301259999995,None,0.08360770149144092,391.4896639999997,None,391.4896639999997,None,393.0562318999996,None,393.0562318999996,None,left,0.9950255000003381,393.0562318999996,None,394.13949509999975,None,left,0.11168950000001132,394.13949509999975,None,394.13949509999975,None,-10.782804038872158,146.14495599828865,,2,001,2021_Apr_07_1317,AB_pic_singleT2,2021.1.2,59.98843422981694,
AB,lag3,3,4,7,0.06000000005000003,0.02,0.3,main,,,,,0,45,45,45,,,,,,,nunchuk.jpg,greathornowl.jpg,athleticsock.jpg,telescope.jpg,noparkingsign.jpg,barrel01.jpg,golfball.jpg,pigeon.jpg,statue.jpg,rollerblade.jpg,wheelchair.jpg,parrot01.jpg,platypus.jpg,zebra.jpg,parkfountain.jpg,mouse.jpg,whiteout.jpg,,,,,1,1,9,,,,,.\resources\golfball.jpg,,,1,,,,,,,,,1,,,,,,,,,None,399.18917927999973,None,399.18917927999973,None,,,,,,,394.2894956,397.0393334999999,396.77271229999997,None,0.0832673171432242,397.2726583999997,None,397.2726583999997,None,398.33922779999966,None,398.33922779999966,None,left,0.6480922000000646,398.33922779999966,None,399.05585589999964,None,left,0.115342800000235,399.05585589999964,None,399.05585589999964,None,-10.72830071443056,146.09595953214244,,2,001,2021_Apr_07_1317,AB_pic_singleT2,2021.1.2,59.98843422981694,
AB,lag2,2,5,7,0.06000000005000003,0.02,0.3,main,,,,,0,46,46,46,,,,,,,sword01.jpg,peacock.jpg,mouse.jpg,sheep.jpg,popcorn.jpg,fishingrod.jpg,foldingchair.jpg,smokingpipe.jpg,windmill.jpg,donut.jpg,pingpongtable.jpg,acousticguitar02.jpg,dolphin01.jpg,totempole.jpg,wheelbarrow01.jpg,squirrel.jpg,boat.jpg,,,,,1,1,9,,,,,.\resources\foldingchair.jpg,,,1,,,,,,,,,1,,,,,,,,,None,405.5055074799998,None,405.5055074799998,None,,,,,,,399.2058686999999,401.9556899999998,401.6894491999997,None,0.08292217741234062,402.1890116999998,None,402.1890116999998,None,403.2389530999999,None,403.2389530999999,None,left,1.5562245999999504,403.2389530999999,None,404.8721935999997,None,left,0.610989199999949,404.8721935999997,None,404.8721935999997,None,-10.674256391261046,146.04786086289621,,2,001,2021_Apr_07_1317,AB_pic_singleT2,2021.1.2,59.98843422981694,
AB,lag6,6,5,11,0.06000000005000003,0.02,0.3,main,,,,,0,47,47,47,,,,,,,safe.jpg,jackrabbit.jpg,pooltable.jpg,ipad02.jpg,mouse.jpg,giraffe.jpg,donut.jpg,kiwi03.jpg,cow.jpg,motorcycle.jpg,parachute.jpg,corn02.jpg,toad.jpg,football.jpg,barrel01.jpg,jeans01.jpg,harmonica.jpg,,,,,0,0,13,,,,,.\resources\parachute.jpg,,,1,,,,,,,,,1,,,,,,,,,None,410.68854717999966,None,410.68854717999966,None,,,,,,,405.5221569999999,408.27239999999983,408.00575449999997,None,0.08257944129495255,408.50531699999965,None,408.50531699999965,None,409.97189649999973,None,409.97189649999973,None,right,0.5353931999998167,409.97189649999973,None,410.6051983999996,None,right,0.06198130000029778,410.6051983999996,None,410.6051983999996,None,-10.62071033585731,146.00059201101067,,2,001,2021_Apr_07_1317,AB_pic_singleT2,2021.1.2,59.98843422981694,
AB,lag1,1,4,5,0.06000000005000003,0.02,0.3,main,,,,,0,48,48,48,,,,,,,horse.jpg,fishingrod.jpg,foosballtable.jpg,doghouse.jpg,callbell.jpg,tie02.jpg,hockeypuck.jpg,lollipop04.jpg,crosscountryski.jpg,eyepatch.jpg,rooster.jpg,floorlamp.jpg,tricycle.jpg,foldingchair.jpg,nose.jpg,butterfly.jpg,ironingboard01.jpg,,,,,0,0,7,,,,,.\resources\callbell.jpg,,,1,,,,,,,,,0,,,,,,,,,None,415.8049424799997,None,415.8049424799997,None,,,,,,,410.7052285,413.45553729999983,413.1888815999996,None,0.08223942472830309,413.7055174999996,None,413.7055174999996,None,414.5383336,None,414.5383336,None,right,1.0648427999999512,414.5383336,None,415.67159999999967,None,left,0.10758799999985058,415.67159999999967,None,415.67159999999967,None,-10.567635408434931,145.95409550661543,,2,001,2021_Apr_07_1317,AB_pic_singleT2,2021.1.2,59.98843422981694,
AB,lag4,4,3,7,0.06000000005000003,0.02,0.3,main,,,,,0,49,49,49,,,,,,,jeans01.jpg,bowlingball.jpg,bat.jpg,greathornowl.jpg,pokerchips.jpg,ipad02.jpg,lawnmower.jpg,saxophone.jpg,eyepatch.jpg,cashregister01.jpg,moose.jpg,chimney.jpg,snowboard.jpg,eye.jpg,tank.jpg,jackrabbit.jpg,beaver.jpg,,,,,1,1,9,,,,,.\resources\lawnmower.jpg,,,0,,,,,,,,,1,,,,,,,,,None,421.65455227999973,None,421.65455227999973,None,,,,,,,415.82158619999973,418.57143259999975,418.30480869999974,None,0.08190198245593598,418.80475479999996,None,418.80475479999996,None,419.85468919999994,None,419.85468919999994,None,right,1.2364061000002948,419.85468919999994,None,421.1712233999997,None,left,0.4479401999997208,421.1712233999997,None,421.1712233999997,None,-10.728932882119418,145.89167512756327,,2,001,2021_Apr_07_1317,AB_pic_singleT2,2021.1.2,59.98843422981694,
AB,lag3,3,4,7,0.06000000005000003,0.02,0.3,main,,,,,0,50,50,50,,,,,,,bullet.jpg,tortoise01.jpg,parrot01.jpg,tulip02.jpg,parkfountain.jpg,motorcycle.jpg,spear02.jpg,nunchuk.jpg,moon.jpg,tree.jpg,mailbox02.jpg,toilet.jpg,basketball01.jpg,cow.jpg,guitarcase.jpg,barrel01.jpg,toad.jpg,,,,,0,0,9,,,,,.\resources\spear02.jpg,,,1,,,,,,,,,0,,,,,,,,,None,426.8209597799996,None,426.8209597799996,None,,,,,,,421.67128209999964,424.4210672999998,424.15441429999964,None,0.08304262208687452,424.6543880999998,None,424.6543880999998,None,425.70432459999984,None,425.70432459999984,None,right,0.9308607000002667,425.70432459999984,None,426.7042643,None,left,0.09102940000002491,426.7042643,None,426.7042643,None,-10.695820664176669,145.84645508958727,,2,001,2021_Apr_07_1317,AB_pic_singleT2,2021.1.2,59.98843422981694,
AB,lag7,7,5,12,0.06000000005000003,0.02,0.3,main,,,,,0,51,51,51,,,,,,,donut.jpg,dromedary.jpg,bat.jpg,boxingglove01.jpg,lip.jpg,cloud.jpg,swordfish.jpg,rubikcube.jpg,cow.jpg,tent.jpg,holdfast.jpg,jellybean.jpg,waterfall.jpg,coffeemaker.jpg,fishskeleton.jpg,musicsheet.jpg,toyanimal05.jpg,,,,,1,0,14,,,,,.\resources\jellybean.jpg,,,0,,,,,,,,,1,,,,,,,,,None,432.93726577999996,None,432.93726577999996,None,,,,,,,426.8376137,429.58787809999967,429.3211960999997,None,0.08284133486737837,429.8207543999997,None,429.8207543999997,None,431.3873368999998,None,431.3873368999998,None,right,1.1358447999996315,431.3873368999998,None,432.60394959999985,None,right,0.30346830000007685,432.60394959999985,None,432.60394959999985,None,-10.83910613036615,145.78795587743252,,2,001,2021_Apr_07_1317,AB_pic_singleT2,2021.1.2,59.98843422981694,
AB,lag1,1,5,6,0.06000000005000003,0.02,0.3,main,,,,,0,52,52,52,,,,,,,chefshat.jpg,urinal.jpg,surfboard.jpg,electrictoothbrush01c.jpg,sandcastle.jpg,ear.jpg,christmaslights.jpg,dragonfly01.jpg,trumpet.jpg,bridge.jpg,ladybug03.jpg,crown.jpg,rooster.jpg,panda.jpg,waterfall.jpg,eyepatch.jpg,bull.jpg,,,,,1,1,8,,,,,.\resources\ear.jpg,,,1,,,,,,,,,0,,,,,,,,,None,438.0702742799999,None,438.0702742799999,None,,,,,,,432.95433049999974,435.7041454,435.4374888999996,None,0.08385741070246043,435.93707129999984,None,435.93707129999984,None,436.9036808999999,None,436.9036808999999,None,left,0.9155673000000206,436.9036808999999,None,437.8869322999999,None,right,0.1562592999998742,437.8869322999999,None,437.8869322999999,None,-10.807153460797338,145.74505936161313,,2,001,2021_Apr_07_1317,AB_pic_singleT2,2021.1.2,59.98843422981694,
AB,lag4,4,4,8,0.06000000005000003,0.02,0.3,main,,,,,0,53,53,53,,,,,,,exitsign.jpg,birdfeeder.jpg,shower.jpg,jackrabbit.jpg,football.jpg,bathtub.jpg,elbow.jpg,cocktailshrimp02.jpg,windmill.jpg,marble.jpg,bullet.jpg,ladder.jpg,toyanimal05.jpg,boxingglove01.jpg,trophy01.jpg,fishingrod.jpg,makiroll.jpg,,,,,0,0,10,,,,,.\resources\cocktailshrimp02.jpg,,,1,,,,,,,,,1,,,,,,,,,None,442.5866820799997,None,442.5866820799997,None,,,,,,,438.08692459999975,440.8371473999996,440.5705143,None,0.08366285536762959,441.0700913999999,None,441.0700913999999,None,442.2366895,None,442.2366895,None,right,0.14254489999984798,442.2366895,None,442.4700082999998,None,right,0.08523999999988519,442.4700082999998,None,442.4700082999998,None,-10.767548592039747,145.7035867398023,,2,001,2021_Apr_07_1317,AB_pic_singleT2,2021.1.2,59.98843422981694,
AB,lag6,6,5,11,0.06000000005000003,0.02,0.3,main,,,,,0,54,54,54,,,,,,,hulahoop.jpg,church.jpg,turnstile.jpg,moose.jpg,rollerblade.jpg,bullet.jpg,tiger02.jpg,smokingpipe.jpg,lizard.jpg,steeringwheel.jpg,baseballbat.jpg,sandcastle.jpg,jeans01.jpg,toucan.jpg,brownsugar.jpg,xylophone.jpg,birdhouse.jpg,,,,,1,1,13,,,,,.\resources\baseballbat.jpg,,,1,,,,,,,,,1,,,,,,,,,None,448.5863539799998,None,448.5863539799998,None,,,,,,,442.60335369999984,445.3535738999999,445.08691199999976,None,0.08341485082906017,445.58649739999964,None,445.58649739999964,None,447.05307969999967,None,447.05307969999967,None,left,1.2460697999999866,447.05307969999967,None,448.36968279999974,None,left,0.18553990000009435,448.36968279999974,None,448.36968279999974,None,-10.727918376942247,145.66284599602102,,2,001,2021_Apr_07_1317,AB_pic_singleT2,2021.1.2,59.98843422981694,
AB,lag2,2,4,6,0.06000000005000003,0.02,0.3,main,,,,,0,55,55,55,,,,,,,horse.jpg,trampoline.jpg,cruiseship.jpg,telescope.jpg,ipad02.jpg,pig.jpg,tarantula.jpg,birthdaycandle.jpg,trumpet.jpg,cloud.jpg,accordion01.jpg,motorcycle.jpg,seagull.jpg,hockeystick.jpg,zebra.jpg,nosmokingsign.jpg,skippingrope.jpg,,,,,0,1,8,,,,,.\resources\pig.jpg,,,1,,,,,,,,,1,,,,,,,,,None,453.65272377999963,None,453.65272377999963,None,,,,,,,448.60299199999963,451.3532388999997,451.0865611999998,None,0.08316611319260543,451.5861525999999,None,451.5861525999999,None,452.53610089999984,None,452.53610089999984,None,right,0.9309846000001016,452.53610089999984,None,453.55273850000003,None,left,0.0823926000002757,453.55273850000003,None,453.55273850000003,None,-10.688584140032063,145.62276421520417,,2,001,2021_Apr_07_1317,AB_pic_singleT2,2021.1.2,59.98843422981694,
AB,lag5,5,4,9,0.06000000005000003,0.02,0.3,main,,,,,0,56,56,56,,,,,,,cross01.jpg,badmintonracket.jpg,bow.jpg,shovel01.jpg,dreamcatcher.jpg,corn02.jpg,brownsugar.jpg,electricguitar01.jpg,cocktailshrimp02.jpg,spear02.jpg,fireplace.jpg,pigeon.jpg,bench01.jpg,slug.jpg,tennisracket.jpg,fishskeleton.jpg,cobra.jpg,,,,,1,0,11,,,,,.\resources\cocktailshrimp02.jpg,,,0,,,,,,,,,1,,,,,,,,,None,459.1690412799999,None,459.1690412799999,None,,,,,,,453.6693658999998,456.4196081,456.15296599999965,None,0.08291889366491809,456.66957539999976,None,456.66957539999976,None,457.9191189999997,None,457.9191189999997,None,right,1.0680443000001105,457.9191189999997,None,459.0690703,None,right,0.07014070000013817,459.0690703,None,459.0690703,None,-10.812849486643637,145.57019923624705,,2,001,2021_Apr_07_1317,AB_pic_singleT2,2021.1.2,59.98843422981694,
AB,lag2,2,3,5,0.06000000005000003,0.02,0.3,main,,,,,0,57,57,57,,,,,,,bumpercar.jpg,drumstick.jpg,mailbox02.jpg,dartboard.jpg,statue.jpg,tarantula.jpg,platypus.jpg,ant.jpg,englishcucumber.jpg,dolphin01.jpg,zebra.jpg,beaver.jpg,schoolbus.jpg,bowtie.jpg,spiderweb.jpg,lollipop04.jpg,lip.jpg,,,,,0,0,7,,,,,.\resources\statue.jpg,,,1,,,,,,,,,0,,,,,,,,,None,464.2021718799997,None,464.2021718799997,None,,,,,,,459.1857144999999,461.93560639999987,461.6693869999999,None,0.08380248094574247,462.1689245999996,None,462.1689245999996,None,463.0188828999999,None,463.0188828999999,None,right,0.9923941999995805,463.0188828999999,None,464.0854913999997,None,left,0.0857919000000038,464.0854913999997,None,464.0854913999997,None,-10.783792703484993,145.53123131021854,,2,001,2021_Apr_07_1317,AB_pic_singleT2,2021.1.2,59.98843422981694,
AB,lag6,6,5,11,0.06000000005000003,0.02,0.3,main,,,,,0,58,58,58,,,,,,,wheelchair.jpg,tiger02.jpg,dalmatian.jpg,lighthouse.jpg,mrpotatohead.jpg,pig.jpg,floorlamp.jpg,sandcastle.jpg,toyanimal05.jpg,panda.jpg,cat.jpg,parachute.jpg,schoolbus.jpg,birthdaycandle.jpg,brownsugar.jpg,arrow02.jpg,jeans01.jpg,,,,,0,1,13,,,,,.\resources\cat.jpg,,,1,,,,,,,,,0,,,,,,,,,space,470.3355690999997,None,470.3355690999997,None,,,,,,,464.2188079999996,466.9686784999999,466.7020029,None,0.08362526005612347,467.2019740999999,None,467.2019740999999,None,468.6852219999996,None,468.6852219999996,None,right,0.7580929999999171,468.6852219999996,None,469.53520309999976,None,right,0.7639024999998583,469.53520309999976,None,469.53520309999976,None,-10.749011244043063,145.49339569068124,18.491718700000092,2,001,2021_Apr_07_1317,AB_pic_singleT2,2021.1.2,59.98843422981694,
AB,lag7,7,4,11,0.06000000005000003,0.02,0.3,main,,,,,0,59,59,59,,,,,,,hotdogweiner.jpg,sledgehammer.jpg,bluecheese.jpg,bumpercar.jpg,bridge.jpg,banjo.jpg,exitsign.jpg,showerhead01.jpg,tree.jpg,vacuumcleaner01.jpg,crab01.jpg,turnstile.jpg,jellybean.jpg,pig.jpg,marble.jpg,triangle.jpg,platypus.jpg,,,,,1,0,13,,,,,.\resources\crab01.jpg,,,1,,,,,,,,,1,,,,,,,,,None,494.40043117999994,None,494.40043117999994,None,,,,,,,488.8678817,491.6172644999997,491.33394569999973,None,0.08340794815843461,491.8505858999997,None,491.8505858999997,None,493.31716849999975,None,493.31716849999975,None,left,0.8780080000001362,493.31716849999975,None,494.2837804999999,None,right,0.07152610000002824,494.2837804999999,None,494.2837804999999,None,-10.714255768687588,145.45616934543582,,2,001,2021_Apr_07_1317,AB_pic_singleT2,2021.1.2,59.98843422981694,
AB,lag5,5,3,8,0.06000000005000003,0.02,0.3,main,,,,,0,60,60,60,,,,,,,marble.jpg,lily.jpg,christmastree.jpg,bowlingball.jpg,honeybee.jpg,bench01.jpg,barrel01.jpg,tortoise01.jpg,cactus.jpg,accordion01.jpg,harmonica.jpg,parachute.jpg,ceilingfan01.jpg,zebra.jpg,surfboard.jpg,sink.jpg,tree.jpg,,,,,0,0,10,,,,,.\resources\tortoise01.jpg,,,1,,,,,,,,,1,,,,,,,,,None,499.20060527999976,None,499.20060527999976,None,,,,,,,494.417109,497.16694849999976,496.9002934,None,0.08319035338453434,497.4169302,None,497.4169302,None,498.56686569999965,None,498.56686569999965,None,right,0.404464199999893,498.56686569999965,None,499.0839552999996,None,right,0.07127349999973376,499.0839552999996,None,499.0839552999996,None,-10.679734242987793,145.41949817370235,,2,001,2021_Apr_07_1317,AB_pic_singleT2,2021.1.2,59.98843422981694,
AB,lag3,3,5,8,0.06000000005000003,0.02,0.3,main,,,,,0,61,61,61,,,,,,,fortunecookie.jpg,licenseplate.jpg,penguin.jpg,donut.jpg,pirateflag.jpg,bed.jpg,steeringwheel.jpg,mattress.jpg,lightswitch01.jpg,ant.jpg,saxophone.jpg,xylophone.jpg,fridge.jpg,ladder.jpg,moon.jpg,parkingmeter.jpg,dragonfly01.jpg,,,,,1,0,10,,,,,.\resources\mattress.jpg,,,1,,,,,,,,,1,,,,,,,,,None,504.65024387999983,None,504.65024387999983,None,,,,,,,499.21728989999974,501.9666686999999,501.7000221999997,None,0.08297393922852708,502.21668599999975,None,502.21668599999975,None,503.36659999999983,None,503.36659999999983,None,left,1.1004977000002327,503.36659999999983,None,504.54982629999995,None,right,0.07722999999987223,504.54982629999995,None,504.54982629999995,None,-10.645443002188928,145.38334809042854,,2,001,2021_Apr_07_1317,AB_pic_singleT2,2021.1.2,59.98843422981694,
AB,lag4,4,5,9,0.06000000005000003,0.02,0.3,main,,,,,0,62,62,62,,,,,,,arrow02.jpg,uprightpiano01.jpg,snowshoe.jpg,icecube02.jpg,bullet.jpg,accordion01.jpg,donut.jpg,stubbywrench01a.jpg,vacuumcleaner01.jpg,barrel01.jpg,daddylonglegs.jpg,statue.jpg,pirateflag.jpg,jellyfish.jpg,floorlamp.jpg,windshieldwiper02.jpg,beerbottle.jpg,,,,,1,0,11,,,,,.\resources\vacuumcleaner01.jpg,,,1,,,,,,,,,1,,,,,,,,,None,510.2828119799997,None,510.2828119799997,None,,,,,,,504.6669216999999,507.4163292999997,507.1496984999999,None,0.08275870325826497,507.66634729999987,None,507.66634729999987,None,508.91624969999975,None,508.91624969999975,None,left,1.1748327000000245,508.91624969999975,None,510.1661723999996,None,right,0.09290099999998347,510.1661723999996,None,510.1661723999996,None,-10.611370750076157,145.34768770660145,,2,001,2021_Apr_07_1317,AB_pic_singleT2,2021.1.2,59.98843422981694,
AB,lag1,1,3,4,0.06000000005000003,0.02,0.3,main,,,,,0,63,63,63,,,,,,,birdhouse.jpg,cobra.jpg,eiffeltower.jpg,statue.jpg,boat.jpg,cocktailshrimp02.jpg,skunk.jpg,windshieldwiper02.jpg,frisbee.jpg,trumpet.jpg,tennisracket.jpg,lightswitch01.jpg,dormer.jpg,airhockeytable.jpg,rollerblade.jpg,badmintonracket.jpg,bacon.jpg,,,,,1,0,6,,,,,.\resources\statue.jpg,,,0,,,,,,,,,1,,,,,,,,,None,515.4825208799998,None,515.4825208799998,None,,,,,,,510.2994657999998,513.0493290999998,512.7826857999999,None,0.08254458877539565,513.2826287999997,None,513.2826287999997,None,514.0325825999998,None,514.0325825999998,None,right,0.5867910000001757,514.0325825999998,None,514.7158765999998,None,right,0.7432718000000023,514.7158765999998,None,514.7158765999998,None,-10.719884189962958,145.3011872299932,,2,001,2021_Apr_07_1317,AB_pic_singleT2,2021.1.2,59.98843422981694,
AB,lag5,5,4,9,0.06000000005000003,0.02,0.3,main,,,,,0,64,64,64,,,,,,,cheetah.jpg,cactus.jpg,fingerprint.jpg,mailbox02.jpg,tiger02.jpg,ipad02.jpg,well.jpg,foot.jpg,safe.jpg,floorlamp.jpg,worldmap.jpg,beaver.jpg,helicopter.jpg,humanskeleton.jpg,tent.jpg,brownsugar.jpg,saxophone.jpg,,,,,0,0,11,,,,,.\resources\safe.jpg,,,1,,,,,,,,,1,,,,,,,,,None,520.11561738,None,520.11561738,None,,,,,,,515.4991904999997,518.2490561999998,517.9823870999999,None,0.08331782266803035,518.4823609,None,518.4823609,None,519.7489701999998,None,519.7489701999998,None,right,0.15031409999983225,519.7489701999998,None,519.9656339999997,None,right,0.10946439999997892,519.9656339999997,None,519.9656339999997,None,-10.694044603319538,145.2664864871115,,2,001,2021_Apr_07_1317,AB_pic_singleT2,2021.1.2,59.98843422981694,
AB,lag4,4,3,7,0.06000000005000003,0.02,0.3,main,,,,,0,65,65,65,,,,,,,basketball01.jpg,cactus.jpg,noparkingsign.jpg,showerhead01.jpg,popcorn.jpg,parrot01.jpg,bluecheese.jpg,tie02.jpg,wallclock.jpg,beerbottle.jpg,recyclingbin.jpg,duck01.jpg,moon.jpg,turnstile.jpg,beaver.jpg,steeringwheel.jpg,statue.jpg,,,,,1,0,9,,,,,.\resources\bluecheese.jpg,,,0,,,,,,,,,0,,,,,,,,,None,526.5656948799997,None,526.5656948799997,None,,,,,,,520.1323018999997,522.8821328999998,522.6154813999997,None,0.08315984819741086,523.1321197999996,None,523.1321197999996,None,524.1820596999996,None,524.1820596999996,None,right,1.6769398000001274,524.1820596999996,None,525.9490842,None,left,0.5741671999999198,525.9490842,None,525.9490842,None,-10.793654082585459,145.2221100765219,,2,001,2021_Apr_07_1317,AB_pic_singleT2,2021.1.2,59.98843422981694,
AB,lag7,7,3,10,0.06000000005000003,0.02,0.3,main,,,,,0,66,66,66,,,,,,,cannon.jpg,tarantula.jpg,handcuffs.jpg,raccoon.jpg,ducttape.jpg,badmintonracket.jpg,ostrich.jpg,dalmatian.jpg,candycane01a.jpg,panda.jpg,boat.jpg,table01.jpg,basketball01.jpg,bowtie.jpg,armadillo.jpg,platypus.jpg,escalator.jpg,,,,,1,0,12,,,,,.\resources\panda.jpg,,,1,,,,,,,,,1,,,,,,,,,None,532.5648816799999,None,532.5648816799999,None,,,,,,,526.5823700999999,529.331764,529.0651298999996,None,0.08387117111359536,529.5817785999998,None,529.5817785999998,None,530.9483387999999,None,530.9483387999999,None,left,1.4308071000000382,530.9483387999999,None,532.4648841999997,None,right,0.06618099999968763,532.4648841999997,None,532.4648841999997,None,-10.76903111578652,145.18869758696323,,2,001,2021_Apr_07_1317,AB_pic_singleT2,2021.1.2,59.98843422981694,
AB,lag2,2,3,5,0.06000000005000003,0.02,0.3,main,,,,,0,67,67,67,,,,,,,nunchuk.jpg,penguin.jpg,boxingglove01.jpg,squirrel.jpg,popcorn.jpg,hulahoop.jpg,skippingrope.jpg,panda.jpg,seal.jpg,humanskeleton.jpg,pirateflag.jpg,wheelchair.jpg,redfox.jpg,stool01.jpg,cigar.jpg,jellybean.jpg,pumpkin.jpg,,,,,0,0,7,,,,,.\resources\popcorn.jpg,,,1,,,,,,,,,1,,,,,,,,,None,537.0313182799996,None,537.0313182799996,None,,,,,,,532.5815653,535.3313979,535.0647429999999,None,0.08372087964785119,535.5813793999996,None,535.5813793999996,None,536.4146564999996,None,536.4146564999996,None,right,0.41241619999982504,536.4146564999996,None,536.9146358999997,None,right,0.08846099999982471,536.9146358999997,None,536.9146358999997,None,-10.740893757978029,145.15608091852636,,2,001,2021_Apr_07_1317,AB_pic_singleT2,2021.1.2,59.98843422981694,
AB,lag6,6,4,10,0.06000000005000003,0.02,0.3,main,,,,,0,68,68,68,,,,,,,apron.jpg,snowshoe.jpg,fortunecookie.jpg,parkingmeter.jpg,well.jpg,sandcastle.jpg,humanskeleton.jpg,moon.jpg,beerbottle.jpg,cymbal.jpg,toyanimal05.jpg,jeep.jpg,lion.jpg,vulture.jpg,steeringwheel.jpg,tie02.jpg,pooltable.jpg,,,,,0,1,12,,,,,.\resources\cymbal.jpg,,,1,,,,,,,,,1,,,,,,,,,None,542.3476547799996,None,542.3476547799996,None,,,,,,,537.0479627,539.7978009999997,539.5311520999999,None,0.08354584969750392,540.0477919999998,None,540.0477919999998,None,541.3977107999999,None,541.3977107999999,None,right,0.7493279000000257,541.3977107999999,None,542.2310118999999,None,left,0.0920163999999204,542.2310118999999,None,542.2310118999999,None,-10.712822560097338,145.12393185036797,,2,001,2021_Apr_07_1317,AB_pic_singleT2,2021.1.2,59.98843422981694,
AB,lag1,1,4,5,0.06000000005000003,0.02,0.3,main,,,,,0,69,69,69,,,,,,,witchhat.jpg,giraffe.jpg,porcupine.jpg,tent.jpg,frenchfries.jpg,humanskeleton.jpg,bowlingpin.jpg,dreamcatcher.jpg,donut.jpg,jeep.jpg,paperairplane.jpg,boxingglove01.jpg,triangle.jpg,skippingrope.jpg,snowman.jpg,bull.jpg,spicerack.jpg,,,,,0,1,7,,,,,.\resources\frenchfries.jpg,,,1,,,,,,,,,1,,,,,,,,,None,547.4307153799996,None,547.4307153799996,None,,,,,,,542.3643210999999,545.114165,544.8475099999996,None,0.08337092832967198,545.3474840999997,None,545.3474840999997,None,546.1974342999997,None,546.1974342999997,None,right,0.9898072999999386,546.1974342999997,None,547.2807048999998,None,left,0.12236829999983456,547.2807048999998,None,547.2807048999998,None,-10.68491555497563,145.09221614396472,,2,001,2021_Apr_07_1317,AB_pic_singleT2,2021.1.2,59.98843422981694,
AB,lag3,3,5,8,0.06000000005000003,0.02,0.3,main,,,,,0,70,70,70,,,,,,,windmill.jpg,bench01.jpg,penguin.jpg,cheetah.jpg,honeybee.jpg,skippingrope.jpg,church.jpg,skateboard.jpg,drumset.jpg,ladybug03.jpg,knee.jpg,floorlamp.jpg,dormer.jpg,turnstile.jpg,lip.jpg,pokerchips.jpg,urinal.jpg,,,,,0,0,10,,,,,.\resources\skateboard.jpg,,,0,,,,,,,,,0,,,,,,,,,None,553.73030058,None,553.73030058,None,,,,,,,547.4473644,550.1972047999998,549.9305568999998,None,0.0831968125989482,550.4305282999999,None,550.4305282999999,None,551.5971270999999,None,551.5971270999999,None,left,1.894009200000255,551.5971270999999,None,553.5803112999997,None,left,0.11877739999999903,553.5803112999997,None,553.5803112999997,None,-10.774980597015999,145.0513306791821,,2,001,2021_Apr_07_1317,AB_pic_singleT2,2021.1.2,59.98843422981694,
AB,lag4,4,3,7,0.06000000005000003,0.02,0.3,main,,,,,0,71,71,71,,,,,,,stubbywrench01a.jpg,skippingrope.jpg,motorcycle.jpg,discoball.jpg,panda.jpg,saltshaker03a.jpg,paperairplane.jpg,snowshovel.jpg,sausage.jpg,surfboard.jpg,crown.jpg,snowman.jpg,parrot01.jpg,recyclingbin.jpg,skunk.jpg,nunchuk.jpg,christmastree.jpg,,,,,0,0,9,,,,,.\resources\paperairplane.jpg,,,1,,,,,,,,,1,,,,,,,,,None,558.3300399799996,None,558.3300399799996,None,,,,,,,553.7469882,556.4968176999996,556.2301637999999,None,0.08384118160924454,556.7301693999998,None,556.7301693999998,None,557.7967443999996,None,557.7967443999996,None,right,0.3023714999999356,557.7967443999996,None,558.1800696999999,None,right,0.11896840000008524,558.1800696999999,None,558.1800696999999,None,-10.7522795797433,145.02036807091852,,2,001,2021_Apr_07_1317,AB_pic_singleT2,2021.1.2,59.98843422981694,
AB,lag1,1,3,4,0.06000000005000003,0.02,0.3,main,,,,,0,72,72,72,,,,,,,granolabar01.jpg,frenchfries.jpg,wheelchair.jpg,jellybean.jpg,giraffe.jpg,marble.jpg,foosballtable.jpg,swing.jpg,birdhouse.jpg,football.jpg,cheetah.jpg,bench01.jpg,crosscountryski.jpg,hulahoop.jpg,stubbywrench01a.jpg,masquerademask01.jpg,scorpion.jpg,,,,,0,1,6,,,,,.\resources\jellybean.jpg,,,1,,,,,,,,,1,,,,,,,,,None,563.1797572799996,None,563.1797572799996,None,,,,,,,558.3467300999996,561.0965489,560.8302942999999,None,0.08370254538953542,561.3299069999998,None,561.3299069999998,None,562.0798322999999,None,562.0798322999999,None,right,0.9233655000002727,562.0798322999999,None,563.0797444,None,left,0.0833517999999458,563.0797444,None,563.0797444,None,-10.726675134527754,144.9900818588453,,2,001,2021_Apr_07_1317,AB_pic_singleT2,2021.1.2,59.98843422981694,
AB,lag2,2,3,5,0.06000000005000003,0.02,0.3,main,,,,,0,73,73,73,,,,,,,dromedary.jpg,spear02.jpg,tie02.jpg,waterfountain02.jpg,donut.jpg,bluejay.jpg,athleticsock.jpg,statue.jpg,sausage.jpg,mouse.jpg,cymbal.jpg,rooster.jpg,moon.jpg,greywolf.jpg,dolphin01.jpg,hotdogweiner.jpg,tulip02.jpg,,,,,0,1,7,,,,,.\resources\donut.jpg,,,1,,,,,,,,,1,,,,,,,,,None,567.82950398,None,567.82950398,None,,,,,,,563.1964229,565.9466198999999,565.6799796,None,0.08354343511192852,566.1796034999998,None,566.1796034999998,None,567.0295325999996,None,567.0295325999996,None,right,0.6217328000002453,567.0295325999996,None,567.7461507999997,None,left,0.06496449999985998,567.7461507999997,None,567.7461507999997,None,-10.701133911907794,144.96020014551505,,2,001,2021_Apr_07_1317,AB_pic_singleT2,2021.1.2,59.98843422981694,
AB,lag5,5,5,10,0.06000000005000003,0.02,0.3,main,,,,,0,74,74,74,,,,,,,mrpotatohead.jpg,electricguitar01.jpg,safe.jpg,rooster.jpg,whiteout.jpg,triangle.jpg,daddylonglegs.jpg,fingerprint.jpg,ostrich.jpg,moon.jpg,stubbywrench01a.jpg,badmintonracket.jpg,swordfish.jpg,lighthouse.jpg,hulahoop.jpg,zipper.jpg,toyanimal05.jpg,,,,,0,0,12,,,,,.\resources\moon.jpg,,,1,,,,,,,,,1,,,,,,,,,None,572.7625812799997,None,572.7625812799997,None,,,,,,,567.8461393999996,570.5964620999998,570.3297616,None,0.08338446181016576,570.8463941,None,570.8463941,None,572.1959210999999,None,572.1959210999999,None,right,0.3752051000001302,572.1959210999999,None,572.6458868,None,right,0.09311200000001918,572.6458868,None,572.6458868,None,-10.675729899819869,144.93069501364994,,2,001,2021_Apr_07_1317,AB_pic_singleT2,2021.1.2,59.98843422981694,
AB,lag6,6,4,10,0.06000000005000003,0.02,0.3,main,,,,,0,75,75,75,,,,,,,bathtub.jpg,englishcucumber.jpg,platypus.jpg,lizard.jpg,kneepad01c.jpg,bullet.jpg,cross01.jpg,floorlamp.jpg,wallclock.jpg,pirateflag.jpg,footballhelmet.jpg,pigeon.jpg,badmintonracket.jpg,doghouse.jpg,drumset.jpg,moose.jpg,jackrabbit.jpg,,,,,0,0,12,,,,,.\resources\pirateflag.jpg,,,1,,,,,,,,,1,,,,,,,,,None,577.5956829799998,None,577.5956829799998,None,,,,,,,572.7792122999999,575.5291293,575.2629024999997,None,0.08322615343701849,575.7795453999997,None,575.7795453999997,None,577.1290202999999,None,577.1290202999999,None,right,0.2741732999998021,577.1290202999999,None,577.4956634999999,None,right,0.07545810000010533,577.4956634999999,None,577.4956634999999,None,-10.650459498435817,144.901546134962,,2,001,2021_Apr_07_1317,AB_pic_singleT2,2021.1.2,59.98843422981694,
AB,lag7,7,3,10,0.06000000005000003,0.02,0.3,main,,,,,0,76,76,76,,,,,,,mailbox02.jpg,showerhead01.jpg,cymbal.jpg,eyepatch.jpg,doghouse.jpg,hulahoop.jpg,exitsign.jpg,skippingrope.jpg,toucan.jpg,honeybee.jpg,snowboard.jpg,sheep.jpg,firehydrant.jpg,tortoise01.jpg,floorlamp.jpg,bat.jpg,frisbee.jpg,,,,,1,0,12,,,,,.\resources\honeybee.jpg,,,1,,,,,,,,,1,,,,,,,,,None,583.11200818,None,583.11200818,None,,,,,,,577.6123517999999,580.3621678999998,580.0955233999998,None,0.08306849844338181,580.6121544999996,None,580.6121544999996,None,581.9620729999997,None,581.9620729999997,None,left,0.9370957999999519,581.9620729999997,None,582.9953458999998,None,right,0.07187599999997474,582.9953458999998,None,582.9953458999998,None,-10.625317229762402,144.87273435352594,,2,001,2021_Apr_07_1317,AB_pic_singleT2,2021.1.2,59.98843422981694,
AB,lag3,3,4,7,0.06000000005000003,0.02,0.3,main,,,,,0,77,77,77,,,,,,,banjo.jpg,cashregister01.jpg,holdfast.jpg,frisbee.jpg,basketball01.jpg,firehydrant.jpg,bull.jpg,discoball.jpg,paperairplane.jpg,mrpotatohead.jpg,safe.jpg,kangaroo.jpg,sausage.jpg,birdfeeder.jpg,shovel01.jpg,birdnest.jpg,showerhead01.jpg,,,,,0,0,9,,,,,.\resources\bull.jpg,,,1,,,,,,,,,1,,,,,,,,,None,587.9450598799999,None,587.9450598799999,None,,,,,,,583.1286694,585.8785158999999,585.6118663999996,None,0.08291147153729381,586.1118334999996,None,586.1118334999996,None,587.1617762999999,None,587.1617762999999,None,right,0.5453655000001163,587.1617762999999,None,587.7784323999999,None,right,0.12079769999991186,587.7784323999999,None,587.7784323999999,None,-10.600297821045096,144.84424145290765,,2,001,2021_Apr_07_1317,AB_pic_singleT2,2021.1.2,59.98843422981694,
AB,lag4,4,4,8,0.06000000005000003,0.02,0.3,main,,,,,0,78,78,78,,,,,,,harmonica.jpg,wheelchair.jpg,tiger02.jpg,dolphin01.jpg,apron.jpg,totempole.jpg,bowtie.jpg,holdfast.jpg,microphone01.jpg,eyepatch.jpg,treadmill.jpg,parkfountain.jpg,ironingboard01.jpg,crab01.jpg,doghouse.jpg,floorlamp.jpg,paperairplane.jpg,,,,,0,1,10,,,,,.\resources\holdfast.jpg,,,1,,,,,,,,,1,,,,,,,,,None,593.0951763799999,None,593.0951763799999,None,,,,,,,587.9617473999997,590.7115693999999,590.4449194999997,None,0.08275504819473349,590.9615565999998,None,590.9615565999998,None,592.0948252999997,None,592.0948252999997,None,right,0.8202175999999781,592.0948252999997,None,592.9951778999998,None,left,0.07980520000000979,592.9951778999998,None,592.9951778999998,None,-10.5753962491775,144.81605009833902,,2,001,2021_Apr_07_1317,AB_pic_singleT2,2021.1.2,59.98843422981694,
AB,lag5,5,3,8,0.06000000005000003,0.02,0.3,main,,,,,0,79,79,79,,,,,,,ceilingfan01.jpg,frisbee.jpg,cheetah.jpg,crosscountryski.jpg,bat.jpg,acousticguitar02.jpg,parachute.jpg,lily.jpg,cigar.jpg,foldingchair.jpg,schoolbus.jpg,bathtub.jpg,fireplace.jpg,fingerprint.jpg,beerbottle.jpg,wallclock.jpg,table01.jpg,,,,,1,0,10,,,,,.\resources\lily.jpg,,,1,,,,,,,,,1,,,,,,,,,None,598.1777801799999,None,598.1777801799999,None,,,,,,,593.1118592999997,595.8612484999999,595.5946083999997,None,0.08259920500645243,596.1112642999997,None,596.1112642999997,None,597.2445041999999,None,597.2445041999999,None,left,0.7425536000000648,597.2445041999999,None,598.0611279,None,right,0.07787669999970603,598.0611279,None,598.0611279,None,-10.550607727917884,144.78814378734913,,2,001,2021_Apr_07_1317,AB_pic_singleT2,2021.1.2,59.98843422981694,
AB,lag6,6,3,9,0.06000000005000003,0.02,0.3,main,,,,,0,80,80,80,,,,,,,icecube02.jpg,hotdogweiner.jpg,fishskeleton.jpg,rubikcube.jpg,harmonica.jpg,soccerball.jpg,lawnmower.jpg,chair.jpg,discoball.jpg,snowshoe.jpg,sword01.jpg,lightswitch01.jpg,duck01.jpg,firehydrant.jpg,safe.jpg,hockeypuck.jpg,scorpion.jpg,,,,,0,0,11,,,,,.\resources\discoball.jpg,,,1,,,,,,,,,1,,,,,,,,,None,602.8275269799997,None,602.8275269799997,None,,,,,,,598.1944767,600.9443004,600.6776368999999,None,0.08244391962486615,601.1776439,None,601.1776439,None,602.4275405999997,None,602.4275405999997,None,right,0.19948660000000018,602.4275405999997,None,602.7108576999999,None,right,0.10037910000028205,602.7108576999999,None,602.7108576999999,None,-10.525927694422771,144.7605068038154,,2,001,2021_Apr_07_1317,AB_pic_singleT2,2021.1.2,59.98843422981694,
AB,lag3,3,5,8,0.06000000005000003,0.02,0.3,main,,,,,0,81,81,81,,,,,,,dreamcatcher.jpg,baseballbat.jpg,table01.jpg,pig.jpg,anchor.jpg,athleticsock.jpg,drumstick.jpg,seagull.jpg,eyepatch.jpg,calendar.jpg,corn02.jpg,rubikcube.jpg,holdfast.jpg,boat.jpg,tricycle.jpg,ladder.jpg,steeringwheel.jpg,,,,,0,0,10,,,,,.\resources\seagull.jpg,,,1,,,,,,,,,1,,,,,,,,,None,607.4105949799996,None,607.4105949799996,None,,,,,,,602.8441831,605.5940218999999,605.3273863,None,0.08228917070376474,605.8273440999997,None,605.8273440999997,None,606.9772817999997,None,606.9772817999997,None,right,0.24177180000015142,606.9772817999997,None,607.3105981999997,None,right,0.06839809999974023,607.3105981999997,None,607.3105981999997,None,-10.501351796676326,144.7331241750379,,2,001,2021_Apr_07_1317,AB_pic_singleT2,2021.1.2,59.98843422981694,
AB,lag7,7,5,12,0.06000000005000003,0.02,0.3,main,,,,,0,82,82,82,,,,,,,mailbox02.jpg,shovel01.jpg,badmintonracket.jpg,chefshat.jpg,dolphin01.jpg,chimney.jpg,alligator.jpg,brownsugar.jpg,makiroll.jpg,dartboard.jpg,electricguitar01.jpg,dragonfly01.jpg,cashregister01.jpg,toyanimal05.jpg,kneepad01c.jpg,englishcucumber.jpg,tent.jpg,,,,,1,0,14,,,,,.\resources\dragonfly01.jpg,,,1,,,,,,,,,1,,,,,,,,,None,612.7602749799998,None,612.7602749799998,None,,,,,,,607.427252,610.1770746999996,609.9104476999996,None,0.082134937842007,610.4270809999998,None,610.4270809999998,None,611.9770237999996,None,611.9770237999996,None,left,0.5619212999999945,611.9770237999996,None,612.6103549,None,right,0.10490729999992254,612.6103549,None,612.6103549,None,-10.476875881786873,144.70598163160216,,2,001,2021_Apr_07_1317,AB_pic_singleT2,2021.1.2,59.98843422981694,
AB,lag1,1,3,4,0.06000000005000003,0.02,0.3,main,,,,,0,83,83,83,,,,,,,holdfast.jpg,surfboard.jpg,leafblower01.jpg,acousticguitar02.jpg,xylophone.jpg,footballhelmet.jpg,foldingchair.jpg,pirateflag.jpg,mummy.jpg,sledgehammer.jpg,frenchfries.jpg,zebra.jpg,daddylonglegs.jpg,swing.jpg,well.jpg,fishskeleton.jpg,greywolf.jpg,,,,,1,1,6,,,,,.\resources\acousticguitar02.jpg,,,1,,,,,,,,,1,,,,,,,,,None,618.1270787799999,None,618.1270787799999,None,,,,,,,612.7769481,615.5267799999997,615.2601569999997,None,0.08198120153117416,615.7601047999997,None,615.7601047999997,None,616.4933987,None,616.4933987,None,left,1.325635599999714,616.4933987,None,617.9104195999998,None,left,0.19674589999976888,617.9104195999998,None,617.9104195999998,None,-10.452495985080619,144.67906556981794,,2,001,2021_Apr_07_1317,AB_pic_singleT2,2021.1.2,59.98843422981694,
AB,lag2,2,3,5,0.06000000005000003,0.02,0.3,main,,,,,0,84,84,84,,,,,,,nosmokingsign.jpg,anchor.jpg,foosballtable.jpg,volleyball.jpg,bridge.jpg,noparkingsign.jpg,bow.jpg,cocktailshrimp02.jpg,fridge.jpg,parkfountain.jpg,cheetah.jpg,ladybug03.jpg,drumstick.jpg,redfox.jpg,surfboard.jpg,dragonfly01.jpg,waterfountain02.jpg,,,,,0,1,7,,,,,.\resources\bridge.jpg,,,1,,,,,,,,,1,,,,,,,,,None,622.8764171799999,None,622.8764171799999,None,,,,,,,618.1437468999998,620.8931706999997,620.6265211999998,None,0.08182794310685848,621.1264965,None,621.1264965,None,621.9597746,None,621.9597746,None,right,0.707396300000255,621.9597746,None,622.7430642999998,None,left,0.10791280000012193,622.7430642999998,None,622.7430642999998,None,-10.428208319927522,144.65236301654528,,2,001,2021_Apr_07_1317,AB_pic_singleT2,2021.1.2,59.98843422981694,
AB,lag1,1,4,5,0.06000000005000003,0.02,0.3,main,,,,,0,85,85,85,,,,,,,tennisracket.jpg,athleticsock.jpg,witchhat.jpg,dartboard.jpg,sledgehammer.jpg,knee.jpg,pooltable.jpg,boat.jpg,saxophone.jpg,cork02.jpg,wheelchair.jpg,trophy01.jpg,chair.jpg,coffeemaker.jpg,lip.jpg,foosballtable.jpg,toolbox02.jpg,,,,,0,0,7,,,,,.\resources\sledgehammer.jpg,,,1,,,,,,,,,1,,,,,,,,,None,627.2761629799998,None,627.2761629799998,None,,,,,,,622.8930548999997,625.6429303999998,625.3762589999997,None,0.08167514470327786,625.8762315999998,None,625.8762315999998,None,626.7095056999997,None,626.7095056999997,None,right,0.3654907000000094,626.7095056999997,None,627.1594783999999,None,right,0.0915380000001278,627.1594783999999,None,627.1594783999999,None,-10.404009268240472,144.62586159621753,,2,001,2021_Apr_07_1317,AB_pic_singleT2,2021.1.2,59.98843422981694,
AB,lag5,5,4,9,0.06000000005000003,0.02,0.3,main,,,,,0,86,86,86,,,,,,,dragonfly01.jpg,funnel.jpg,dormer.jpg,bumpercar.jpg,uprightpiano01.jpg,worldmap.jpg,mrpotatohead.jpg,toad.jpg,telescope.jpg,horse.jpg,licenseplate.jpg,eiffeltower.jpg,drumstick.jpg,raccoon.jpg,squid.jpg,frisbee.jpg,panda.jpg,,,,,1,1,11,,,,,.\resources\telescope.jpg,,,1,,,,,,,,,1,,,,,,,,,None,632.2425163799999,None,632.2425163799999,None,,,,,,,627.2928014999998,630.0426574999997,629.7759947999998,None,0.08152278921094926,630.2759930999996,None,630.2759930999996,None,631.5258934999997,None,631.5258934999997,None,left,0.5650828000002548,631.5258934999997,None,632.1758534999999,None,left,0.0513770000002296,632.1758534999999,None,632.1758534999999,None,-10.379895371594978,144.5995494999188,,2,001,2021_Apr_07_1317,AB_pic_singleT2,2021.1.2,59.98843422981694,
AB,lag7,7,4,11,0.06000000005000003,0.02,0.3,main,,,,,0,87,87,87,,,,,,,telescope.jpg,lizard.jpg,cheetah.jpg,footballhelmet.jpg,trophy01.jpg,seagull.jpg,skunk.jpg,marble.jpg,jackrabbit.jpg,squirrel.jpg,windshieldwiper02.jpg,escalator.jpg,apron.jpg,christmastree.jpg,chair.jpg,totempole.jpg,cupcake.jpg,,,,,1,0,13,,,,,.\resources\windshieldwiper02.jpg,,,1,,,,,,,,,1,,,,,,,,,None,637.4088910799996,None,637.4088910799996,None,,,,,,,632.2591791,635.0090424,634.7423724999999,None,0.08137086023716468,635.2423431999996,None,635.2423431999996,None,636.6922380999999,None,636.6922380999999,None,left,0.5267014000000927,636.6922380999999,None,637.3089139999997,None,right,0.07804740000028687,637.3089139999997,None,637.3089139999997,None,-10.355863322920737,144.57341545634887,,2,001,2021_Apr_07_1317,AB_pic_singleT2,2021.1.2,59.98843422981694,
AB,lag4,4,3,7,0.06000000005000003,0.02,0.3,main,,,,,0,88,88,88,,,,,,,sheep.jpg,moon.jpg,car.jpg,snowshoe.jpg,lion.jpg,vulture.jpg,pigeon.jpg,toad.jpg,boat.jpg,crown.jpg,lizard.jpg,seagull.jpg,toucan.jpg,jeans01.jpg,windmill.jpg,football.jpg,birthdaycandle.jpg,,,,,0,0,9,,,,,.\resources\pigeon.jpg,,,1,,,,,,,,,1,,,,,,,,,None,641.8752658799999,None,641.8752658799999,None,,,,,,,637.4255577999998,640.1753666,639.9087461999998,None,0.08121934206905379,640.4086967999997,None,640.4086967999997,None,641.441965,None,641.441965,None,right,0.2411058000002413,641.441965,None,641.7752710999998,None,right,0.05973440000025221,641.7752710999998,None,641.7752710999998,None,-10.331909958721111,144.54744870455423,,2,001,2021_Apr_07_1317,AB_pic_singleT2,2021.1.2,59.98843422981694,
AB,lag6,6,4,10,0.06000000005000003,0.02,0.3,main,,,,,0,89,89,89,,,,,,,guitarcase.jpg,noparkingsign.jpg,zebra.jpg,donut.jpg,table01.jpg,microwave.jpg,vacuumcleaner01.jpg,fingerprint.jpg,witchhat.jpg,holdfast.jpg,microphone01.jpg,eye.jpg,penguin.jpg,electricguitar01.jpg,acorn.jpg,slug.jpg,crosscountryski.jpg,,,,,0,1,12,,,,,.\resources\holdfast.jpg,,,1,,,,,,,,,0,,,,,,,,,None,646.4250061799999,None,646.4250061799999,None,,,,,,,641.8919426999996,644.6418088999999,644.3751284,None,0.08106821963902154,644.8751058999997,None,644.8751058999997,None,646.2083917,None,646.2083917,None,right,0.03471259999969334,646.2083917,None,646.3250472,None,right,0.06995099999994636,646.3250472,None,646.3250472,None,-10.308032251781126,144.5216389682899,,2,001,2021_Apr_07_1317,AB_pic_singleT2,2021.1.2,59.98843422981694,
AB,lag3,3,3,6,0.06000000005000003,0.02,0.3,main,,,,,0,90,90,90,,,,,,,showerhead01.jpg,chainsaw.jpg,marble.jpg,moose.jpg,crown.jpg,mattress.jpg,parrot01.jpg,barrel01.jpg,ladder.jpg,rollerblade.jpg,lollipop04.jpg,mummy.jpg,golfball.jpg,skunk.jpg,zebra.jpg,tennisracket.jpg,smokingpipe.jpg,,,,,0,1,8,,,,,.\resources\mattress.jpg,,,1,,,,,,,,,1,,,,,,,,,None,651.3247240799997,None,651.3247240799997,None,,,,,,,646.4416575,649.1915101999998,648.9248797,None,0.08091747849238631,649.4248356999997,None,649.4248356999997,None,650.3581209999998,None,650.3581209999998,None,right,0.6929777000000286,650.3581209999998,None,651.1247368999998,None,left,0.1822415000001456,651.1247368999998,None,651.1247368999998,None,-10.284227304326404,144.49597643190558,,2,001,2021_Apr_07_1317,AB_pic_singleT2,2021.1.2,59.98843422981694,
AB,lag2,2,3,5,0.06000000005000003,0.02,0.3,main,,,,,0,91,91,91,,,,,,,punchingbag.jpg,moose.jpg,alligator.jpg,fingerprint.jpg,barrel01.jpg,electrictoothbrush01c.jpg,nunchuk.jpg,cashregister01.jpg,lollipop04.jpg,greathornowl.jpg,parkingmeter.jpg,motorcycle.jpg,lily.jpg,toolbox02.jpg,tennisracket.jpg,rooster.jpg,noparkingsign.jpg,,,,,1,1,7,,,,,.\resources\barrel01.jpg,,,1,,,,,,,,,1,,,,,,,,,None,656.39110738,None,656.39110738,None,,,,,,,651.3414012999997,654.0912405999998,653.8246005999999,None,0.08076710475703858,654.3412284999999,None,654.3412284999999,None,655.1578439,None,655.1578439,None,left,0.9891228999999839,655.1578439,None,656.2244234,None,left,0.14651869999988776,656.2244234,None,656.2244234,None,-10.26049234160106,144.470451717644,,2,001,2021_Apr_07_1317,AB_pic_singleT2,2021.1.2,59.98843422981694,
AB,lag4,4,4,8,0.06000000005000003,0.02,0.3,main,,,,,0,92,92,92,,,,,,,cross01.jpg,parkingmeter.jpg,toilet.jpg,penguin.jpg,funnel.jpg,giraffe.jpg,bench01.jpg,golfball.jpg,bowlingball.jpg,bullet.jpg,moon.jpg,pigeon.jpg,holdfast.jpg,masquerademask01.jpg,bowtie.jpg,waterfall.jpg,mouse.jpg,,,,,0,0,10,,,,,.\resources\golfball.jpg,,,1,,,,,,,,,1,,,,,,,,,None,661.09080898,None,661.09080898,None,,,,,,,656.407745,659.1579955999996,658.8913336999999,None,0.08061708511498024,659.3909083999997,None,659.3909083999997,None,660.5241811999999,None,660.5241811999999,None,right,0.33505009999998947,660.5241811999999,None,660.9408154999996,None,right,0.10212999999976091,660.9408154999996,None,660.9408154999996,None,-10.23682470583341,144.44505586426192,,2,001,2021_Apr_07_1317,AB_pic_singleT2,2021.1.2,59.98843422981694,
AB,lag7,7,4,11,0.06000000005000003,0.02,0.3,main,,,,,0,93,93,93,,,,,,,frisbee.jpg,lawnmower.jpg,microphone01.jpg,vulture.jpg,helicopter.jpg,jellybean.jpg,zebra.jpg,hockeystick.jpg,leafblower01.jpg,triangle.jpg,kiwi03.jpg,bathtub.jpg,ostrich.jpg,basketball01.jpg,christmaslights.jpg,hockeypuck.jpg,noparkingsign.jpg,,,,,0,0,13,,,,,.\resources\kiwi03.jpg,,,1,,,,,,,,,1,,,,,,,,,None,666.0072130799999,None,666.0072130799999,None,,,,,,,661.1074788999999,663.8577262999997,663.5910743999998,None,0.08046740677559634,664.0906402999999,None,664.0906402999999,None,665.5238909,None,665.5238909,None,right,0.27907409999988886,665.5238909,None,665.8905345999997,None,right,0.08843069999966247,665.8905345999997,None,665.8905345999997,None,-10.213221850561458,144.41978030687386,,2,001,2021_Apr_07_1317,AB_pic_singleT2,2021.1.2,59.98843422981694,
AB,lag1,1,5,6,0.06000000005000003,0.02,0.3,main,,,,,0,94,94,94,,,,,,,fishskeleton.jpg,tank.jpg,sheep.jpg,boxingglove01.jpg,chefshat.jpg,squid.jpg,dragonfly01.jpg,drumset.jpg,punchingbag.jpg,funnel.jpg,granolabar01.jpg,birdnest.jpg,parrot01.jpg,worldmap.jpg,jeep.jpg,chimney.jpg,ladder.jpg,,,,,1,1,8,,,,,.\resources\squid.jpg,,,1,,,,,,,,,1,,,,,,,,,None,670.9902900799998,None,670.9902900799998,None,,,,,,,666.0238744999997,668.7737996999999,668.5070753999998,None,0.08031805745053647,669.0070741,None,669.0070741,None,669.9403564999998,None,669.9403564999998,None,left,0.8226251000000957,669.9403564999998,None,670.8570016999997,None,left,0.11396879999983867,670.8570016999997,None,670.8570016999997,None,-10.189681335293688,144.3946168579505,,2,001,2021_Apr_07_1317,AB_pic_singleT2,2021.1.2,59.98843422981694,
AB,lag5,5,4,9,0.06000000005000003,0.02,0.3,main,,,,,0,95,95,95,,,,,,,jellybean.jpg,coffeemaker.jpg,seal.jpg,tire.jpg,platypus.jpg,airhockeytable.jpg,licenseplate.jpg,calendar.jpg,bumpercar.jpg,ear.jpg,xylophone.jpg,shovel01.jpg,drumset.jpg,snowman.jpg,dolphin01.jpg,icecube02.jpg,africanelephant.jpg,,,,,1,0,11,,,,,.\resources\bumpercar.jpg,,,0,,,,,,,,,1,,,,,,,,,None,676.0071260799996,None,676.0071260799996,None,,,,,,,671.0069779999999,673.7568081999998,673.4901514999997,None,0.08016902533008935,674.0067869,None,674.0067869,None,675.2233816999997,None,675.2233816999997,None,right,0.5635627999999997,675.2233816999997,None,675.8900159999998,None,right,0.08906070000011823,675.8900159999998,None,675.8900159999998,None,-10.264929724444317,144.36224278843454,,2,001,2021_Apr_07_1317,AB_pic_singleT2,2021.1.2,59.98843422981694,
AB,lag2,2,5,7,0.06000000005000003,0.02,0.3,main,,,,,0,96,96,96,,,,,,,tie02.jpg,bullet.jpg,flamingo.jpg,rooster.jpg,lawnmower.jpg,wheelchair.jpg,panda.jpg,peacock.jpg,lip.jpg,lollipop04.jpg,seal.jpg,discoball.jpg,birdfeeder.jpg,skateboard.jpg,christmaslights.jpg,spiderweb.jpg,coffeemaker.jpg,,,,,0,1,9,,,,,.\resources\panda.jpg,,,1,,,,,,,,,1,,,,,,,,,None,681.12301828,None,681.12301828,None,,,,,,,676.0237838999997,678.7731792999998,678.5065274999997,None,0.0807082507206492,679.0064949999996,None,679.0064949999996,None,680.0397516999997,None,680.0397516999997,None,right,0.7392178000000058,680.0397516999997,None,680.8563660999998,None,left,0.21879859999990003,680.8563660999998,None,680.8563660999998,None,-10.247300629385043,144.3377080571798,,2,001,2021_Apr_07_1317,AB_pic_singleT2,2021.1.2,59.98843422981694,
AB,lag6,6,3,9,0.06000000005000003,0.02,0.3,main,,,,,0,97,97,97,,,,,,,daddylonglegs.jpg,eiffeltower.jpg,foldingchair.jpg,urinal.jpg,xylophone.jpg,hotdogweiner.jpg,tulip02.jpg,scooter.jpg,curtain.jpg,funnel.jpg,safe.jpg,sandcastle.jpg,barrel01.jpg,jeep.jpg,fridge.jpg,dandelion.jpg,kangaroo.jpg,,,,,0,0,11,,,,,.\resources\curtain.jpg,,,1,,,,,,,,,1,,,,,,,,,None,685.75611428,None,685.75611428,None,,,,,,,681.1396891999998,683.8895469999998,683.6228747,None,0.0805998317909846,684.1228496999997,None,684.1228496999997,None,685.3561098,None,685.3561098,None,right,0.19087870000021212,685.3561098,None,685.6394289999998,None,right,0.09149859999979526,685.6394289999998,None,685.6394289999998,None,-10.225644492597374,144.3136320439366,,2,001,2021_Apr_07_1317,AB_pic_singleT2,2021.1.2,59.98843422981694,
AB,lag3,3,3,6,0.06000000005000003,0.02,0.3,main,,,,,0,98,98,98,,,,,,,moon.jpg,popcorn.jpg,crosscountryski.jpg,holdfast.jpg,uprightpiano01.jpg,ironingboard01.jpg,tortoise01.jpg,tire.jpg,escalator.jpg,windshieldwiper02.jpg,skippingrope.jpg,granolabar01.jpg,lawnmower.jpg,cheetah.jpg,drumset.jpg,triangle.jpg,birdhouse.jpg,,,,,0,0,8,,,,,.\resources\ironingboard01.jpg,,,1,,,,,,,,,1,,,,,,,,,None,690.1225288799997,None,690.1225288799997,None,,,,,,,685.7727805,688.5225972999997,688.2559461999999,None,0.08046321535433315,688.7559167999998,None,688.7559167999998,None,689.6892029999999,None,689.6892029999999,None,right,0.257723299999725,689.6892029999999,None,690.0225269999996,None,right,0.07654080000020258,690.0225269999996,None,690.0225269999996,None,-10.203868768440689,144.28968273048002,,2,001,2021_Apr_07_1317,AB_pic_singleT2,2021.1.2,59.98843422981694,
AB,lag1,1,3,4,0.06000000005000003,0.02,0.3,main,,,,,0,99,99,99,,,,,,,dandelion.jpg,golfball.jpg,accordion01.jpg,crosscountryski.jpg,coffeemaker.jpg,sandcastle.jpg,trumpet.jpg,telescope.jpg,chefshat.jpg,funnel.jpg,uprightpiano01.jpg,banjo.jpg,polarbear.jpg,basketball01.jpg,wheelchair.jpg,cat.jpg,locker.jpg,,,,,1,0,6,,,,,.\resources\crosscountryski.jpg,,,1,,,,,,,,,1,,,,,,,,,None,695.2055534799997,None,695.2055534799997,None,,,,,,,690.1391690999999,692.8890067999996,692.6223538999998,None,0.0803256539915605,693.1223287999997,None,693.1223287999997,None,693.8556157999997,None,693.8556157999997,None,left,0.8673948000000564,693.8556157999997,None,694.7888971999996,None,right,0.3980413999997836,694.7888971999996,None,694.7888971999996,None,-10.182141373487472,144.26583860373609,,2,001,2021_Apr_07_1317,AB_pic_singleT2,2021.1.2,59.98843422981694,
AB,lag2,2,4,6,0.06000000005000003,0.02,0.3,main,,,,,0,100,100,100,,,,,,,marble.jpg,totempole.jpg,tricycle.jpg,recyclingbin.jpg,snowshovel.jpg,zebra.jpg,waterfall.jpg,christmaslights.jpg,bow.jpg,drumstick.jpg,donut.jpg,ladder.jpg,cow.jpg,footballhelmet.jpg,birdnest.jpg,showerhead01.jpg,exitsign.jpg,,,,,1,0,8,,,,,.\resources\zebra.jpg,,,1,,,,,,,,,1,,,,,,,,,None,699.9552910799998,None,699.9552910799998,None,,,,,,,695.2222151999999,697.9720500999997,697.7054022999996,None,0.08018832349065742,698.2220364,None,698.2220364,None,699.1386502,None,699.1386502,None,left,0.6163873000000422,699.1386502,None,699.8386126999999,None,right,0.0923956999999973,699.8386126999999,None,699.8386126999999,None,-10.160467844573121,144.24209192627484,,2,001,2021_Apr_07_1317,AB_pic_singleT2,2021.1.2,59.98843422981694,
AB,lag3,3,5,8,0.06000000005000003,0.02,0.3,main,,,,,0,101,101,101,,,,,,,cow.jpg,dandelion.jpg,pig.jpg,sink.jpg,hockeypuck.jpg,mummy.jpg,bat.jpg,bowlingball.jpg,birdhouse.jpg,guitarcase.jpg,bed.jpg,rollerblade.jpg,butterfly.jpg,englishcucumber.jpg,recyclingbin.jpg,masquerademask01.jpg,apron.jpg,,,,,0,0,10,,,,,.\resources\bowlingball.jpg,,,1,,,,,,,,,1,,,,,,,,,None,704.4217127799998,None,704.4217127799998,None,,,,,,,699.9719366999998,702.7217796,702.4551276999996,None,0.08005126694636962,702.9550976999999,None,702.9550976999999,None,704.0883795,None,704.0883795,None,right,0.14663449999989098,704.0883795,None,704.3050494999998,None,right,0.09793489999992744,704.3050494999998,None,704.3050494999998,None,-10.138846578201358,144.2184358529472,,2,001,2021_Apr_07_1317,AB_pic_singleT2,2021.1.2,59.98843422981694,
AB,lag5,5,3,8,0.06000000005000003,0.02,0.3,main,,,,,0,102,102,102,,,,,,,giraffe.jpg,brownsugar.jpg,lightswitch01.jpg,ladder.jpg,flag.jpg,steeringwheel.jpg,bull.jpg,kangaroo.jpg,crown.jpg,exitsign.jpg,arrow02.jpg,badmintonracket.jpg,duck01.jpg,tent.jpg,schoolbus.jpg,drumset.jpg,cigar.jpg,,,,,0,0,10,,,,,.\resources\kangaroo.jpg,,,1,,,,,,,,,1,,,,,,,,,None,708.9047595799998,None,708.9047595799998,None,,,,,,,704.4383430999997,707.1881903999997,706.9215378999997,None,0.07991447744637098,707.4215163999997,None,707.4215163999997,None,708.5547812999998,None,708.5547812999998,None,right,0.16026899999997113,708.5547812999998,None,708.7881011999998,None,right,0.08686289999968722,708.7881011999998,None,708.7881011999998,None,-10.117275717397598,144.19486384698783,,2,001,2021_Apr_07_1317,AB_pic_singleT2,2021.1.2,59.98843422981694,
AB,lag6,6,5,11,0.06000000005000003,0.02,0.3,main,,,,,0,103,103,103,,,,,,,dreamcatcher.jpg,car.jpg,bed.jpg,squid.jpg,boat.jpg,xylophone.jpg,saxophone.jpg,chefshat.jpg,ear.jpg,cupcake.jpg,stool01.jpg,ladder.jpg,cloud.jpg,redfox.jpg,christmaslights.jpg,zipper.jpg,nunchuk.jpg,,,,,0,0,13,,,,,.\resources\stool01.jpg,,,1,,,,,,,,,1,,,,,,,,,None,713.6045214799997,None,713.6045214799997,None,,,,,,,708.9214411999997,711.6712668999999,711.4046154999996,None,0.07977794611827843,711.9045907999998,None,711.9045907999998,None,713.3211757999998,None,713.3211757999998,None,right,0.08994170000005397,713.3211757999998,None,713.4878446999996,None,right,0.09118630000011763,713.4878446999996,None,713.4878446999996,None,-10.09575346165187,144.1713696417332,,2,001,2021_Apr_07_1317,AB_pic_singleT2,2021.1.2,59.98843422981694,
