trialType,cndTyp,lag,T1_loc,T2_loc,stimLen,isi,skipProb,phase,trials.thisRepN,trials.thisTrialN,trials.thisN,trials.thisIndex,trials2.thisRepN,trials2.thisTrialN,trials2.thisN,trials2.thisIndex,key_resp_4.keys,key_resp_4.rt,key_resp_4.started,key_resp_4.stopped,textbox.started,textbox.stopped,img0,img1,img2,img3,img4,img5,img6,img7,img8,img9,img10,img11,img12,img13,img14,img15,img16,option1.started,option1.stopped,text_2.started,text_2.stopped,skip1,skip2,lastPresent,displayPicture.started,displayPicture.stopped,polygon_2.started,polygon_2.stopped,opt1_t1,polygon_4.started,polygon_4.stopped,cor1,option1_t1.started,option1_t1.stopped,key_resp.keys,key_resp.rt,key_resp.started,key_resp.stopped,polygon_5.started,polygon_5.stopped,cor2,key_resp_2.keys,key_resp_2.rt,key_resp_2.started,key_resp_2.stopped,textbox_2.started,textbox_2.stopped,textbox_3.started,textbox_3.stopped,key_resp_3.keys,key_resp_3.started,key_resp_3.stopped,textbox_6.started,textbox_6.stopped,key_resp_7.keys,key_resp_7.rt,key_resp_7.started,key_resp_7.stopped,textbox_4.started,textbox_4.stopped,option1_3.started,option1_3.stopped,text_7.started,text_7.stopped,curStimTim,displayPicture_4.started,displayPicture_4.stopped,polygon_16.started,polygon_16.stopped,polygon_7.started,polygon_7.stopped,option1_t1_2.started,option1_t1_2.stopped,key_resp_6.keys,key_resp_6.rt,key_resp_6.started,key_resp_6.stopped,polygon_17.started,polygon_17.stopped,key_resp_8.keys,key_resp_8.rt,key_resp_8.started,key_resp_8.stopped,textbox_5.started,textbox_5.stopped,B0,B1,key_resp_3.rt,participant,session,date,expName,psychopyVersion,frameRate,
,,,,,,,,,,,,,,,,,space,11.969209800000044,7.799826899999971,None,,,,,,,,,,,,,,,,,,,,,,,,,,,,,,,,,,,,,,,,,,,,,,,,,,,,,,,,,,,,,,,,,,,,,,,,,,,,,,,,,,,,,,,,,,,3,001,2021_Apr_07_1343,AB_pic_singleT2,2021.1.2,60.01493171501121,
AB,lag3,3,3,6,0.2,0.05,0.5,,0,0,0,5,,,,,,,,,7.799826899999971,None,sledgehammer.jpg,tent.jpg,icecube02.jpg,moon.jpg,tree.jpg,tennisracket.jpg,licenseplate.jpg,athleticsock.jpg,lizard.jpg,swordfish.jpg,trumpet.jpg,rollerblade.jpg,recyclingbin.jpg,leafrake.jpg,cobra.jpg,cork02.jpg,magneticcompass.jpg,19.81733179999992,22.566646299999775,22.300001099999918,None,0,0,8,22.816631099999995,None,22.816631099999995,None,.\resources\tennisracket.jpg,25.06646869999986,None,1,25.06646869999986,None,right,0.47860990000026504,25.06646869999986,None,25.583096899999873,None,1,right,1.306011799999851,25.583096899999873,None,25.583096899999873,None,26.933439200000066,None,None,27.933382429999984,None,27.933382429999984,None,,,,,,,,,,,,,,,,,,,,,,,,,,,,,,,,,,,3,001,2021_Apr_07_1343,AB_pic_singleT2,2021.1.2,60.01493171501121,
AB,lag7,7,4,11,0.2,0.05,0.5,,0,1,1,2,,,,,,,,,,,greywolf.jpg,barrel01.jpg,escalator.jpg,statue.jpg,spiderweb.jpg,donut.jpg,windshieldwiper02.jpg,footballhelmet.jpg,cannon.jpg,mattress.jpg,arrow02.jpg,chainsaw.jpg,saltshaker03a.jpg,eye.jpg,saxophone.jpg,shower.jpg,swing.jpg,27.95006169999988,30.699421599999823,30.43274650000012,None,1,1,13,30.932711599999948,None,30.932711599999948,None,.\resources\arrow02.jpg,34.44909689999986,None,1,34.44909689999986,None,left,1.2639811000003647,34.44909689999986,None,35.74899099999993,None,1,left,1.3960831999997936,35.74899099999993,None,35.74899099999993,None,37.16594040000018,None,None,38.16592832999986,None,38.16592832999986,None,,,,,,,,,,,,,,,,,,,,,,,,,,,,,,,,,,,3,001,2021_Apr_07_1343,AB_pic_singleT2,2021.1.2,60.01493171501121,
AB,lag6,6,5,11,0.2,0.05,0.5,,0,2,2,8,,,,,,,,,,,scooter.jpg,nosmokingsign.jpg,pigeon.jpg,bowlingpin.jpg,redfox.jpg,giraffe.jpg,cross01.jpg,cashregister01.jpg,bluejay.jpg,saltshaker03a.jpg,cupcake.jpg,jellyfish.jpg,toilet.jpg,swing.jpg,lollipop04.jpg,toyanimal05.jpg,electrictoothbrush01c.jpg,38.18256169999995,40.932346900000084,40.64906440000004,None,0,1,13,41.14859089999982,None,41.14859089999982,None,.\resources\cupcake.jpg,44.665001700000175,None,1,44.665001700000175,None,right,0.800223200000346,44.665001700000175,None,45.49827289999985,None,1,left,0.21482640000022002,45.49827289999985,None,45.49827289999985,None,45.73159769999984,None,None,46.731559730000114,None,46.731559730000114,None,,,,,,,,,,,,,,,,,,,,,,,,,,,,,,,,,,,3,001,2021_Apr_07_1343,AB_pic_singleT2,2021.1.2,60.01493171501121,
AB,lag5,5,4,9,0.2,0.05,0.5,,0,3,3,6,,,,,,,,,,,ducttape.jpg,platypus.jpg,foot.jpg,callbell.jpg,saltshaker03a.jpg,lightswitch01.jpg,acorn.jpg,armadillo.jpg,microwave.jpg,microphone01.jpg,birdfeeder.jpg,hotdogweiner.jpg,ladder.jpg,peacock.jpg,basketball01.jpg,greathornowl.jpg,hammerheadshark.jpg,46.74820120000004,49.49839030000021,49.2147073000001,None,1,1,11,49.7146831,None,49.7146831,None,.\resources\microwave.jpg,52.73109579999982,None,1,52.73109579999982,None,left,1.2300116000001253,52.73109579999982,None,53.99767470000006,None,1,left,0.1477799999997842,53.99767470000006,None,53.99767470000006,None,54.180994700000156,None,None,55.18097283000024,None,55.18097283000024,None,,,,,,,,,,,,,,,,,,,,,,,,,,,,,,,,,,,3,001,2021_Apr_07_1343,AB_pic_singleT2,2021.1.2,60.01493171501121,
AB,lag4,4,3,7,0.2,0.05,0.5,,0,4,4,1,,,,,,,,,,,pokerchips.jpg,parachute.jpg,mummy.jpg,rubikcube.jpg,jeans01.jpg,snowshoe.jpg,hotdogweiner.jpg,frisbee.jpg,chair.jpg,pirateflag.jpg,hockeystick.jpg,apron.jpg,squirrel.jpg,trophy01.jpg,lion.jpg,pumpkin.jpg,ant.jpg,55.1975938999999,57.94743389999985,57.66416010000012,None,0,0,9,58.18075950000002,None,58.18075950000002,None,.\resources\hotdogweiner.jpg,60.68055510000022,None,1,60.68055510000022,None,right,0.4086312999997972,60.68055510000022,None,61.14719400000013,None,1,right,0.10987640000030297,61.14719400000013,None,61.14719400000013,None,61.29717949999986,None,None,62.297113830000214,None,62.297113830000214,None,,,,,,,,,,,,,,,,,,,,,,,,,,,,,,,,,,,3,001,2021_Apr_07_1343,AB_pic_singleT2,2021.1.2,60.01493171501121,
AB,lag1,1,4,5,0.2,0.05,0.5,,0,5,5,12,,,,,,,,,,,ear.jpg,microphone01.jpg,alligator.jpg,spicerack.jpg,vacuumcleaner01.jpg,fishingrod.jpg,mattress.jpg,toilet.jpg,basketball01.jpg,telescope.jpg,stubbywrench01a.jpg,dreamcatcher.jpg,witchhat.jpg,snowboard.jpg,parkingmeter.jpg,dartboard.jpg,well.jpg,62.29709760000014,65.04690669999991,64.78025770000022,None,0,0,7,65.29689280000002,None,65.29689280000002,None,.\resources\vacuumcleaner01.jpg,67.29673959999991,None,1,67.29673959999991,None,right,0.40047610000010536,67.29673959999991,None,67.74671480000006,None,1,right,0.1104113999999754,67.74671480000006,None,67.74671480000006,None,67.89669980000008,None,None,68.89666603000005,None,68.89666603000005,None,,,,,,,,,,,,,,,,,,,,,,,,,,,,,,,,,,,3,001,2021_Apr_07_1343,AB_pic_singleT2,2021.1.2,60.01493171501121,
AB,lag1,1,3,4,0.2,0.05,0.5,,0,6,6,3,,,,,,,,,,,golfball.jpg,bench01.jpg,rollerblade.jpg,car.jpg,leafblower01.jpg,scorpion.jpg,lion.jpg,electricguitar01.jpg,xylophone.jpg,stubbywrench01a.jpg,windshieldwiper02.jpg,sandcastle.jpg,tarantula.jpg,ironingboard01.jpg,giraffe.jpg,motorcycle.jpg,chair.jpg,68.91329790000009,71.66310900000008,71.37979140000016,None,1,1,6,71.89641449999999,None,71.89641449999999,None,.\resources\car.jpg,73.64628270000003,None,1,73.64628270000003,None,left,0.9148153999999522,73.64628270000003,None,74.5795290000001,None,1,left,0.15754839999999604,74.5795290000001,None,74.5795290000001,None,74.76284820000001,None,None,75.76278293000023,None,75.76278293000023,None,,,,,,,,,,,,,,,,,,,,,,,,,,,,,,,,,,,3,001,2021_Apr_07_1343,AB_pic_singleT2,2021.1.2,60.01493171501121,
AB,lag5,5,4,9,0.2,0.05,0.5,,0,7,7,11,,,,,,,,,,,cheetah.jpg,wheelchair.jpg,bowlingpin.jpg,mouse.jpg,cobra.jpg,tire.jpg,callbell.jpg,pooltable.jpg,trophy01.jpg,toolbox02.jpg,golfball.jpg,funnel.jpg,snowman.jpg,chefshat.jpg,calendar.jpg,lily.jpg,wheelbarrow01.jpg,75.77944620000017,78.5296400000002,78.26259110000001,None,1,0,11,78.7625567,None,78.7625567,None,.\resources\trophy01.jpg,81.77900369999998,None,0,81.77900369999998,None,right,0.6781342999997833,81.77900369999998,None,82.49563239999998,None,0,left,0.19350340000028154,82.49563239999998,None,82.49563239999998,None,82.72895930000004,None,None,83.72887793,None,83.72887793,None,,,,,,,,,,,,,,,,,,,,,,,,,,,,,,,,,,,3,001,2021_Apr_07_1343,AB_pic_singleT2,2021.1.2,60.01493171501121,
AB,lag4,4,4,8,0.2,0.05,0.5,,0,8,8,13,,,,,,,,,,,saltshaker03a.jpg,flag.jpg,moose.jpg,eyepatch.jpg,seagull.jpg,swing.jpg,moon.jpg,funnel.jpg,fridge.jpg,musicsheet.jpg,microwave.jpg,nose.jpg,beaver.jpg,africanelephant.jpg,tarantula.jpg,frenchfries.jpg,skateboard.jpg,83.74553569999989,86.49574249999978,86.22937989999991,None,0,0,10,86.74572519999992,None,86.74572519999992,None,.\resources\funnel.jpg,89.49512529999993,None,1,89.49512529999993,None,right,0.37804240000014033,89.49512529999993,None,89.8950917000002,None,1,right,0.1619540000001507,89.8950917000002,None,89.8950917000002,None,90.09507919999987,None,None,91.09501753000022,None,91.09501753000022,None,,,,,,,,,,,,,,,,,,,,,,,,,,,,,,,,,,,3,001,2021_Apr_07_1343,AB_pic_singleT2,2021.1.2,60.01493171501121,
AB,lag3,3,5,8,0.2,0.05,0.5,,0,9,9,10,,,,,,,,,,,airhockeytable.jpg,discoball.jpg,bowtie.jpg,bacon.jpg,tarantula.jpg,panda.jpg,tie02.jpg,hockeypuck.jpg,tortoise01.jpg,toucan.jpg,christmastree.jpg,lightswitch01.jpg,trampoline.jpg,englishcucumber.jpg,parkingmeter.jpg,cocktailshrimp02.jpg,sheep.jpg,91.09501460000001,93.8452640999999,93.5785590999999,None,0,1,10,94.07813769999984,None,94.07813769999984,None,.\resources\hockeypuck.jpg,96.84459509999988,None,1,96.84459509999988,None,right,1.0124907999997959,96.84459509999988,None,97.89452449999999,None,1,left,0.16252540000004956,97.89452449999999,None,97.89452449999999,None,98.09450800000013,None,None,99.09443932999993,None,99.09443932999993,None,,,,,,,,,,,,,,,,,,,,,,,,,,,,,,,,,,,3,001,2021_Apr_07_1343,AB_pic_singleT2,2021.1.2,60.01493171501121,
AB,lag2,2,3,5,0.2,0.05,0.5,,0,10,10,4,,,,,,,,,,,windshieldwiper02.jpg,frenchfries.jpg,tree.jpg,panda.jpg,lighthouse.jpg,squid.jpg,corn02.jpg,golfball.jpg,ceilingfan01.jpg,greatwhiteshark.jpg,safe.jpg,hand01b.jpg,christmastree.jpg,ant.jpg,mouse.jpg,crown.jpg,church.jpg,99.11111549999987,101.86131479999995,101.5947215000001,None,1,0,7,102.11129389999996,None,102.11129389999996,None,.\resources\lighthouse.jpg,104.11077130000012,None,1,104.11077130000012,None,left,1.3462915000000066,104.11077130000012,None,105.47728060000009,None,1,right,0.4278153000000202,105.47728060000009,None,105.47728060000009,None,105.92724739999994,None,None,106.92719062999986,None,106.92719062999986,None,,,,,,,,,,,,,,,,,,,,,,,,,,,,,,,,,,,3,001,2021_Apr_07_1343,AB_pic_singleT2,2021.1.2,60.01493171501121,
AB,lag7,7,5,12,0.2,0.05,0.5,,0,11,11,7,,,,,,,,,,,flamingo.jpg,microwave.jpg,sink.jpg,penguin.jpg,drumset.jpg,leafblower01.jpg,mouse.jpg,nose.jpg,windmill.jpg,jellybean.jpg,tank.jpg,beerbottle.jpg,bullet.jpg,accordion01.jpg,calendar.jpg,icecube02.jpg,bow.jpg,106.94387760000018,109.6940755999999,109.42737549999993,None,1,1,14,109.9269703,None,109.9269703,None,.\resources\beerbottle.jpg,113.67669870000009,None,1,113.67669870000009,None,left,0.916424300000017,113.67669870000009,None,114.62662980000005,None,1,left,0.1664600999997674,114.62662980000005,None,114.62662980000005,None,114.8266208,None,None,115.8265734300001,None,115.8265734300001,None,,,,,,,,,,,,,,,,,,,,,,,,,,,,,,,,,,,3,001,2021_Apr_07_1343,AB_pic_singleT2,2021.1.2,60.01493171501121,
AB,lag2,2,5,7,0.2,0.05,0.5,,0,12,12,9,,,,,,,,,,,slug.jpg,chimney.jpg,cashregister01.jpg,totempole.jpg,cannon.jpg,uprightpiano01.jpg,doghouse.jpg,kite.jpg,tiger02.jpg,chair.jpg,tree.jpg,bowtie.jpg,dormer.jpg,rubikcube.jpg,turnstile.jpg,eyepatch.jpg,butterfly.jpg,115.8265465999998,118.57672480000019,118.31007649999992,None,1,0,9,118.82672629999979,None,118.82672629999979,None,.\resources\doghouse.jpg,121.3261523000001,None,1,121.3261523000001,None,left,1.0989577000000281,121.3261523000001,None,122.45940470000005,None,1,right,0.19770770000013727,122.45940470000005,None,122.45940470000005,None,122.67605300000014,None,None,123.67596793000011,None,123.67596793000011,None,,,,,,,,,,,,,,,,,,,,,,,,,,,,,,,,,,,3,001,2021_Apr_07_1343,AB_pic_singleT2,2021.1.2,60.01493171501121,
AB,lag6,6,5,11,0.2,0.05,0.5,,0,13,13,0,,,,,,,,,,,cactus.jpg,giraffe.jpg,rollerblade.jpg,pumpkin.jpg,chair.jpg,birdfeeder.jpg,parkingmeter.jpg,spicerack.jpg,sledgehammer.jpg,granolabar01.jpg,fishskeleton.jpg,brownsugar.jpg,ostrich.jpg,totempole.jpg,scorpion.jpg,floorlamp.jpg,airhockeytable.jpg,123.69270079999978,126.44283519999999,126.15951069999983,None,0,1,13,126.65911349999988,None,126.65911349999988,None,.\resources\fishskeleton.jpg,130.17551540000022,None,0,130.17551540000022,None,left,1.337514999999712,130.17551540000022,None,131.54208860000017,None,1,left,1.1310467999996945,131.54208860000017,None,131.54208860000017,None,132.7086703,None,None,133.70860303,None,133.70860303,None,,,,,,,,,,,,,,,,,,,,,,,,,,,,,,,,,,,3,001,2021_Apr_07_1343,AB_pic_singleT2,2021.1.2,60.01493171501121,
,,,,,,,,,,,,,,,,,,,,,,,,,,,,,,,,,,,,,,,,,,,,,,,,,,,,,,,,,,,,,,,,,,,,,,,,,,,,,space,2.586696899999879,133.72526259999995,None,,,,,,,,,,,,,,,,,,,,,,,,,,,,,,,3,001,2021_Apr_07_1343,AB_pic_singleT2,2021.1.2,60.01493171501121,
AB,lag6,6,5,11,0.2,0.05,0.5,ramp,,,,,0,0,0,0,,,,,,,cymbal.jpg,masquerademask01.jpg,surfboard.jpg,discoball.jpg,paperairplane.jpg,pokerchips.jpg,bat.jpg,polarbear.jpg,licenseplate.jpg,scooter.jpg,golfball.jpg,corn02.jpg,tent.jpg,athleticsock.jpg,bacon.jpg,skippingrope.jpg,stubbywrench01a.jpg,,,,,0,1,13,,,,,.\resources\golfball.jpg,,,1,,,,,,,,,1,,,,,,,,,None,144.1245270299999,None,144.1245270299999,None,,,,,133.72526259999995,None,136.45841400000018,139.20864010000014,138.9419367999999,None,0.2,139.3581918,None,139.3581918,None,142.89128900000014,None,142.89128900000014,None,right,0.869810299999699,142.89128900000014,None,143.80787950000013,None,left,0.2733613999998852,143.80787950000013,None,143.80787950000013,None,,,,3,001,2021_Apr_07_1343,AB_pic_singleT2,2021.1.2,60.01493171501121,
AB,lag4,4,4,8,0.19066666667,0.048,0.48,ramp,,,,,0,1,1,1,,,,,,,chainsaw.jpg,lily.jpg,key07.jpg,frisbee.jpg,trampoline.jpg,donut.jpg,snowshovel.jpg,corn02.jpg,jellybean.jpg,pingpongtable.jpg,moon.jpg,boxingglove01.jpg,waterfall.jpg,paperairplane.jpg,hand01b.jpg,floorlamp.jpg,dreamcatcher.jpg,,,,,1,1,10,,,,,.\resources\corn02.jpg,,,1,,,,,,,,,1,,,,,,,,,None,151.07407553000013,None,151.07407553000013,None,,,,,,,144.14119279999977,146.89136259999987,146.6247158000001,None,0.19066666667,147.12430570000015,None,147.12430570000015,None,149.77416390000008,None,149.77416390000008,None,left,1.074876299999687,149.77416390000008,None,150.92408149999983,None,left,0.12504220000028,150.92408149999983,None,150.92408149999983,None,-10.001360791690049,150.0000000424746,,3,001,2021_Apr_07_1343,AB_pic_singleT2,2021.1.2,60.01493171501121,
AB,lag7,7,4,11,0.18133333334,0.046,0.45999999999999996,ramp,,,,,0,2,2,2,,,,,,,recyclingbin.jpg,xylophone.jpg,tulip02.jpg,giraffe.jpg,stubbywrench01a.jpg,jeep.jpg,cannon.jpg,bullet.jpg,saxophone.jpg,crab01.jpg,bridge.jpg,africanelephant.jpg,parrot01.jpg,kangaroo.jpg,electricguitar01.jpg,mouse.jpg,slug.jpg,,,,,0,1,13,,,,,.\resources\bridge.jpg,,,1,,,,,,,,,1,,,,,,,,,None,158.59020782999988,None,158.59020782999988,None,,,,,,,151.09073810000018,153.84057649999977,153.5739450000001,None,0.18133333334,154.09055540000008,None,154.09055540000008,None,157.29030190000003,None,157.29030190000003,None,right,0.9907859999998436,157.29030190000003,None,158.35688519999985,None,left,0.20424419999972088,158.35688519999985,None,158.35688519999985,None,-10.002719446389834,150.00000013655824,,3,001,2021_Apr_07_1343,AB_pic_singleT2,2021.1.2,60.01493171501121,
AB,lag5,5,5,10,0.17200000001000001,0.044,0.43999999999999995,ramp,,,,,0,3,3,3,,,,,,,makiroll.jpg,safe.jpg,leafblower01.jpg,cobra.jpg,snowshoe.jpg,locker.jpg,hockeypuck.jpg,helicopter.jpg,ducttape.jpg,electricguitar01.jpg,cymbal.jpg,drumset.jpg,bluecheese.jpg,schoolbus.jpg,surfboard.jpg,greathornowl.jpg,guitarcase.jpg,,,,,0,1,12,,,,,.\resources\electricguitar01.jpg,,,1,,,,,,,,,1,,,,,,,,,None,166.00631323,None,166.00631323,None,,,,,,,158.60686970000006,161.35667599999988,161.09001679999983,None,0.17200000001000001,161.58997739999995,None,161.58997739999995,None,164.42312420000007,None,164.42312420000007,None,right,1.401995100000022,164.42312420000007,None,165.90634099999988,None,left,0.07870260000026974,165.90634099999988,None,165.90634099999988,None,-10.004075333761547,150.00000038823157,,3,001,2021_Apr_07_1343,AB_pic_singleT2,2021.1.2,60.01493171501121,
AB,lag2,2,3,5,0.16266666668000002,0.041999999999999996,0.41999999999999993,ramp,,,,,0,4,4,4,,,,,,,lightswitch01.jpg,zipper.jpg,rooster.jpg,handcuffs.jpg,bed.jpg,boxingglove01.jpg,snowman.jpg,leafrake.jpg,dragonfly01.jpg,cashregister01.jpg,bat.jpg,lighthouse.jpg,jellybean.jpg,popcorn.jpg,kneepad01c.jpg,redfox.jpg,waterfall.jpg,,,,,0,1,7,,,,,.\resources\bed.jpg,,,1,,,,,,,,,1,,,,,,,,,None,172.48960573000005,None,172.48960573000005,None,,,,,,,166.02298410000003,168.77281670000002,168.4894551000002,None,0.16266666668000002,168.98944200000005,None,168.98944200000005,None,170.65598490000002,None,170.65598490000002,None,right,0.9372799000002487,170.65598490000002,None,171.65591089999998,None,left,0.8092060999997557,171.65591089999998,None,171.65591089999998,None,-10.005426297173447,150.0000011389316,,3,001,2021_Apr_07_1343,AB_pic_singleT2,2021.1.2,60.01493171501121,
AB,lag3,3,5,8,0.15333333335000002,0.039999999999999994,0.3999999999999999,ramp,,,,,0,5,5,5,,,,,,,giraffe.jpg,foot.jpg,kite.jpg,rubikcube.jpg,hockeypuck.jpg,accordion01.jpg,microwave.jpg,bowtie.jpg,mailbox02.jpg,foosballtable.jpg,trampoline.jpg,vulture.jpg,acousticguitar02.jpg,beerbottle.jpg,ladybug03.jpg,bluejay.jpg,bed.jpg,,,,,0,0,10,,,,,.\resources\bowtie.jpg,,,1,,,,,,,,,1,,,,,,,,,None,178.2387760300001,None,178.2387760300001,None,,,,,,,172.5062409000002,175.2560456000001,174.98940420000008,None,0.15333333335000002,175.50604359999988,None,175.50604359999988,None,177.63881949999995,None,177.63881949999995,None,right,0.4183133999999882,177.63881949999995,None,178.13877000000002,None,right,0.07836879999968005,178.13877000000002,None,178.13877000000002,None,-10.006764806001751,150.00000351094027,,3,001,2021_Apr_07_1343,AB_pic_singleT2,2021.1.2,60.01493171501121,
AB,lag1,1,4,5,0.14400000002000002,0.03799999999999999,0.3799999999999999,ramp,,,,,0,6,6,6,,,,,,,donut.jpg,elbow.jpg,athleticsock.jpg,ostrich.jpg,bowlingball.jpg,squirrel.jpg,airhockeytable.jpg,foldingchair.jpg,statue.jpg,nunchuk.jpg,parrot01.jpg,zebra.jpg,pingpongtable.jpg,bowlingpin.jpg,chefshat.jpg,well.jpg,birdnest.jpg,,,,,1,1,7,,,,,.\resources\bowlingball.jpg,,,1,,,,,,,,,1,,,,,,,,,None,183.97168743000003,None,183.97168743000003,None,,,,,,,178.25542899999982,181.00564410000015,180.73900839999988,None,0.14400000002000002,181.2556165000001,None,181.2556165000001,None,182.72177890000012,None,182.72177890000012,None,left,1.039425299999948,182.72177890000012,None,183.83836569999994,None,left,0.11469369999986156,183.83836569999994,None,183.83836569999994,None,-10.008064094004647,150.00001124737665,,3,001,2021_Apr_07_1343,AB_pic_singleT2,2021.1.2,60.01493171501121,
AB,lag6,6,5,11,0.13466666669000002,0.03599999999999999,0.3599999999999999,ramp,,,,,0,7,7,7,,,,,,,trampoline.jpg,bluecheese.jpg,ipad02.jpg,skateboard.jpg,porcupine.jpg,nose.jpg,table01.jpg,birdnest.jpg,donut.jpg,acorn.jpg,ladybug03.jpg,brownsugar.jpg,duck01.jpg,toyanimal05.jpg,kite.jpg,crab01.jpg,boat.jpg,,,,,0,0,13,,,,,.\resources\ladybug03.jpg,,,1,,,,,,,,,1,,,,,,,,,None,189.9046277300002,None,189.9046277300002,None,,,,,,,183.9883546000001,186.73860389999982,186.4719097000002,None,0.13466666669000002,186.9714783999998,None,186.9714783999998,None,189.38796159999993,None,189.38796159999993,None,right,0.3171700999996574,189.38796159999993,None,189.75460209999983,None,right,0.126481799999965,189.75460209999983,None,189.75460209999983,None,-10.009227634136485,150.00003695987715,,3,001,2021_Apr_07_1343,AB_pic_singleT2,2021.1.2,60.01493171501121,
AB,lag3,3,4,7,0.12533333336000002,0.03399999999999999,0.33999999999999986,ramp,,,,,0,8,8,8,,,,,,,horse.jpg,pumpkin.jpg,kiwi03.jpg,popcorn.jpg,lightswitch01.jpg,safe.jpg,triangle.jpg,birthdaycandle.jpg,squid.jpg,cashregister01.jpg,hand01b.jpg,pigeon.jpg,flag.jpg,vulture.jpg,birdhouse.jpg,dreamcatcher.jpg,electrictoothbrush01c.jpg,,,,,1,1,9,,,,,.\resources\triangle.jpg,,,1,,,,,,,,,1,,,,,,,,,None,195.92083883000015,None,195.92083883000015,None,,,,,,,189.92125810000016,192.67146319999983,192.40482620000012,None,0.12533333336000002,192.90442530000018,None,192.90442530000018,None,194.5209289999998,None,194.5209289999998,None,left,1.1922357000003103,194.5209289999998,None,195.78747650000014,None,left,0.109666500000003,195.78747650000014,None,195.78747650000014,None,-10.009903325668345,150.00012340554508,,3,001,2021_Apr_07_1343,AB_pic_singleT2,2021.1.2,60.01493171501121,
AB,lag4,4,4,8,0.11600000003000002,0.03199999999999999,0.31999999999999984,ramp,,,,,0,9,9,9,,,,,,,tire.jpg,dartboard.jpg,christmaslights.jpg,basketball01.jpg,peacock.jpg,bench01.jpg,lip.jpg,squid.jpg,apron.jpg,crab01.jpg,lily.jpg,foldingchair.jpg,showerhead01.jpg,bed.jpg,pigeon.jpg,ironingboard01.jpg,platypus.jpg,,,,,0,0,10,,,,,.\resources\squid.jpg,,,1,,,,,,,,,1,,,,,,,,,None,201.12046543000025,None,201.12046543000025,None,,,,,,,195.9374800999999,198.68769770000017,198.42105279999987,None,0.11600000003000002,198.92066139999997,None,198.92066139999997,None,200.57050130000016,None,200.57050130000016,None,right,0.35861579999982496,200.57050130000016,None,201.00380210000003,None,right,0.10125170000037542,201.00380210000003,None,201.00380210000003,None,-10.0087969897031,150.00041576432758,,3,001,2021_Apr_07_1343,AB_pic_singleT2,2021.1.2,60.01493171501121,
AB,lag5,5,4,9,0.10666666670000002,0.029999999999999985,0.2999999999999998,ramp,,,,,0,10,10,10,,,,,,,bumpercar.jpg,crosscountryski.jpg,vulture.jpg,acousticguitar02.jpg,hulahoop.jpg,arrow02.jpg,firehydrant.jpg,birdnest.jpg,scorpion.jpg,scooter.jpg,punchingbag.jpg,lizard.jpg,mailbox02.jpg,kneepad01c.jpg,alligator.jpg,zipper.jpg,icecube02.jpg,,,,,0,1,11,,,,,.\resources\scorpion.jpg,,,1,,,,,,,,,1,,,,,,,,,None,206.97004812999995,None,206.97004812999995,None,,,,,,,201.13712589999977,203.88733559999991,203.6040412000002,None,0.10666666670000002,204.10358050000013,None,204.10358050000013,None,205.77012280000008,None,205.77012280000008,None,right,0.9110439000000952,205.77012280000008,None,206.75338569999985,None,left,0.18379589999995005,206.75338569999985,None,206.75338569999985,None,-10.001153334151129,150.00140318068046,,3,001,2021_Apr_07_1343,AB_pic_singleT2,2021.1.2,60.01493171501121,
AB,lag2,2,3,5,0.09733333337000002,0.027999999999999983,0.3,ramp,,,,,0,11,11,11,,,,,,,foosballtable.jpg,birdfeeder.jpg,lighthouse.jpg,giraffe.jpg,cupcake.jpg,fishingrod.jpg,totempole.jpg,humanskeleton.jpg,kneepad01c.jpg,hammerheadshark.jpg,cheetah.jpg,africanelephant.jpg,spicerack.jpg,beaver.jpg,dandelion.jpg,hockeystick.jpg,chair.jpg,,,,,1,0,7,,,,,.\resources\cupcake.jpg,,,1,,,,,,,,,1,,,,,,,,,None,213.13628013,None,213.13628013,None,,,,,,,206.98671139999988,209.73690739999984,209.47026229999983,None,0.09733333337000002,209.98689869999998,None,209.98689869999998,None,211.00309779999998,None,211.00309779999998,None,left,1.6300255999999536,211.00309779999998,None,212.70295609999994,None,right,0.4181598000000122,212.70295609999994,None,212.70295609999994,None,-9.969929362530102,150.00467706564078,,3,001,2021_Apr_07_1343,AB_pic_singleT2,2021.1.2,60.01493171501121,
AB,lag1,1,4,5,0.08800000004000003,0.02599999999999998,0.3,ramp,,,,,0,12,12,12,,,,,,,tennisracket.jpg,armadillo.jpg,urinal.jpg,masquerademask01.jpg,scorpion.jpg,toyanimal05.jpg,cigar.jpg,swordfish.jpg,toad.jpg,soccerball.jpg,statue.jpg,cruiseship.jpg,electrictoothbrush01c.jpg,knee.jpg,sausage.jpg,tulip02.jpg,parkfountain.jpg,,,,,0,1,7,,,,,.\resources\scorpion.jpg,,,1,,,,,,,,,1,,,,,,,,,None,218.7358387299999,None,218.7358387299999,None,,,,,,,213.15294660000018,215.90313629999991,215.63648729999977,None,0.08800000004000003,216.13604450000003,None,216.13604450000003,None,217.06931619999978,None,217.06931619999978,None,right,1.4917671000002883,217.06931619999978,None,218.63584179999998,None,left,0.07720349999999598,218.63584179999998,None,218.63584179999998,None,-9.860203419559875,150.01481140263897,,3,001,2021_Apr_07_1343,AB_pic_singleT2,2021.1.2,60.01493171501121,
AB,lag7,7,5,12,0.07866666671000003,0.02399999999999998,0.3,ramp,,,,,0,13,13,13,,,,,,,fishingrod.jpg,fingerprint.jpg,noparkingsign.jpg,panda.jpg,kangaroo.jpg,butterfly.jpg,sheep.jpg,cocktailshrimp02.jpg,platypus.jpg,fireplace.jpg,dromedary.jpg,bench01.jpg,basketball01.jpg,lip.jpg,key07.jpg,windshieldwiper02.jpg,snowman.jpg,,,,,0,0,14,,,,,.\resources\bench01.jpg,,,1,,,,,,,,,1,,,,,,,,,None,223.91884653000017,None,223.91884653000017,None,,,,,,,218.75249500000018,221.50273749999997,221.21937320000006,None,0.07866666671000003,221.71895379999978,None,221.71895379999978,None,223.28551939999988,None,223.28551939999988,None,right,0.43560600000000704,223.28551939999988,None,223.80213830000002,None,right,0.09501229999978023,223.80213830000002,None,223.80213830000002,None,-9.545471510334263,150.0407565987997,,3,001,2021_Apr_07_1343,AB_pic_singleT2,2021.1.2,60.01493171501121,
AB,lag1,1,3,4,0.06933333338000003,0.021999999999999978,0.3,ramp,,,,,0,14,14,14,,,,,,,holdfast.jpg,trumpet.jpg,slug.jpg,ladder.jpg,cork02.jpg,frenchfries.jpg,crosscountryski.jpg,bridge.jpg,airhockeytable.jpg,spear02.jpg,trophy01.jpg,tarantula.jpg,snowboard.jpg,cruiseship.jpg,africanelephant.jpg,cross01.jpg,wallclock.jpg,,,,,0,0,6,,,,,.\resources\ladder.jpg,,,1,,,,,,,,,0,,,,,,,,,None,228.76850213000017,None,228.76850213000017,None,,,,,,,223.9354704000002,226.6856504000002,226.41899869999997,None,0.06933333338000003,226.93563970000014,None,226.93563970000014,None,227.58520989999988,None,227.58520989999988,None,right,1.0158862000002955,227.58520989999988,None,228.65178490000017,None,left,0.09348309999995763,228.65178490000017,None,228.65178490000017,None,-8.899309494850606,150.0881144916348,,3,001,2021_Apr_07_1343,AB_pic_singleT2,2021.1.2,60.01493171501121,
AB,lag6,6,5,11,0.06000000005000003,0.02,0.3,main,,,,,0,15,15,15,,,,,,,windmill.jpg,dolphin01.jpg,turnstile.jpg,chair.jpg,discoball.jpg,squid.jpg,snowboard.jpg,apron.jpg,mrpotatohead.jpg,parrot01.jpg,pingpongtable.jpg,exitsign.jpg,trampoline.jpg,motorcycle.jpg,elbow.jpg,ironingboard01.jpg,bluejay.jpg,,,,,1,0,13,,,,,.\resources\pingpongtable.jpg,,,1,,,,,,,,,1,,,,,,,,,None,235.43464603000012,None,235.43464603000012,None,,,,,,,228.78512,231.53530420000016,231.2686609000002,None,0.0685304355432073,231.78528319999987,None,231.78528319999987,None,233.0348073,None,233.0348073,None,left,2.1343167999998514,233.0348073,None,235.23466589999998,None,right,0.17437120000022333,235.23466589999998,None,235.23466589999998,None,-8.269196012479734,150.1331603653032,,3,001,2021_Apr_07_1343,AB_pic_singleT2,2021.1.2,60.01493171501121,
AB,lag1,1,5,6,0.06000000005000003,0.02,0.3,main,,,,,0,16,16,16,,,,,,,tree.jpg,elbow.jpg,chainsaw.jpg,toucan.jpg,lily.jpg,cheetah.jpg,athleticsock.jpg,sheep.jpg,rubikcube.jpg,exitsign.jpg,duck01.jpg,christmaslights.jpg,ironingboard01.jpg,golfball.jpg,cross01.jpg,shower.jpg,harmonica.jpg,,,,,1,0,8,,,,,.\resources\cheetah.jpg,,,1,,,,,,,,,1,,,,,,,,,None,240.9009216299999,None,240.9009216299999,None,,,,,,,235.45131200000014,238.20148299999983,237.93484739999985,None,0.06431284301286895,238.43446859999995,None,238.43446859999995,None,239.21808520000013,None,239.21808520000013,None,left,1.4390051999998832,239.21808520000013,None,240.71763310000006,None,right,0.15543799999977637,240.71763310000006,None,240.71763310000006,None,-7.665963707521319,150.17485493964236,,3,001,2021_Apr_07_1343,AB_pic_singleT2,2021.1.2,60.01493171501121,
AB,lag5,5,3,8,0.06000000005000003,0.02,0.3,main,,,,,0,17,17,17,,,,,,,vacuumcleaner01.jpg,pumpkin.jpg,lighthouse.jpg,snowshovel.jpg,airhockeytable.jpg,table01.jpg,parachute.jpg,bowlingball.jpg,fortunecookie.jpg,car.jpg,hand01b.jpg,zipper.jpg,toyanimal05.jpg,skunk.jpg,baseballbat.jpg,bull.jpg,knee.jpg,,,,,0,1,10,,,,,.\resources\bowlingball.jpg,,,1,,,,,,,,,1,,,,,,,,,None,247.48423433,None,247.48423433,None,,,,,,,240.9175927000001,243.66780479999989,243.40116070000022,None,0.06027812094294651,243.90072980000014,None,243.90072980000014,None,244.81733189999977,None,244.81733189999977,None,right,1.3281787000000804,244.81733189999977,None,246.2172271999998,None,left,1.2318843000002744,246.2172271999998,None,246.2172271999998,None,-7.088834590764558,150.21336186874188,,3,001,2021_Apr_07_1343,AB_pic_singleT2,2021.1.2,60.01493171501121,
AB,lag3,3,4,7,0.06000000005000003,0.02,0.3,main,,,,,0,18,18,18,,,,,,,christmaslights.jpg,dreamcatcher.jpg,accordion01.jpg,floorlamp.jpg,foosballtable.jpg,beaver.jpg,foldingchair.jpg,treadmill.jpg,surfboard.jpg,crosscountryski.jpg,bat.jpg,xylophone.jpg,soccerball.jpg,hulahoop.jpg,golfball.jpg,tortoise01.jpg,rollerblade.jpg,,,,,0,1,9,,,,,.\resources\foldingchair.jpg,,,1,,,,,,,,,1,,,,,,,,,None,252.61677232999983,None,252.61677232999983,None,,,,,,,247.50088370000003,250.2506785999999,249.98405719999982,None,0.05642060630591645,250.50026059999982,None,250.50026059999982,None,251.2835309000002,None,251.2835309000002,None,right,1.109577199999876,251.2835309000002,None,252.4667773000001,None,left,0.13447299999961615,252.4667773000001,None,252.4667773000001,None,-6.538365079744742,150.24904494292093,,3,001,2021_Apr_07_1343,AB_pic_singleT2,2021.1.2,60.01493171501121,
AB,lag2,2,5,7,0.06000000005000003,0.02,0.3,main,,,,,0,19,19,19,,,,,,,triangle.jpg,raccoon.jpg,wheelchair.jpg,christmaslights.jpg,bed.jpg,frisbee.jpg,table01.jpg,leafrake.jpg,armadillo.jpg,brownsugar.jpg,skunk.jpg,nose.jpg,granolabar01.jpg,motorcycle.jpg,seal.jpg,tennisracket.jpg,foot.jpg,,,,,0,0,9,,,,,.\resources\table01.jpg,,,1,,,,,,,,,1,,,,,,,,,None,257.19978753000015,None,257.19978753000015,None,,,,,,,252.6334065000001,255.38328629999978,255.1170000000002,None,0.05274349293784318,255.6165721000002,None,255.6165721000002,None,256.36649609999995,None,256.36649609999995,None,right,0.6346290000001318,256.36649609999995,None,257.04977929999995,None,right,0.11935930000026929,257.04977929999995,None,257.04977929999995,None,-6.018421216637545,150.28231315625072,,3,001,2021_Apr_07_1343,AB_pic_singleT2,2021.1.2,60.01493171501121,
AB,lag4,4,3,7,0.06000000005000003,0.02,0.3,main,,,,,0,20,20,20,,,,,,,seal.jpg,baseballbat.jpg,pigeon.jpg,helicopter.jpg,slug.jpg,soccerball.jpg,chair.jpg,toyanimal05.jpg,beaver.jpg,chefshat.jpg,eiffeltower.jpg,chimney.jpg,lion.jpg,calendar.jpg,harmonica.jpg,pig.jpg,ant.jpg,,,,,1,1,9,,,,,.\resources\chair.jpg,,,0,,,,,,,,,0,,,,,,,,,None,264.34921982999987,None,264.34921982999987,None,,,,,,,257.2164468000001,259.9666492000001,259.7000030999998,None,0.04927203622463972,260.1995628999998,None,260.1995628999998,None,260.91618000000017,None,260.91618000000017,None,right,3.2288950999995905,260.91618000000017,None,264.19925349999994,None,right,0.12186640000027182,264.19925349999994,None,264.19925349999994,None,-6.552572544232355,150.26352928101295,,3,001,2021_Apr_07_1343,AB_pic_singleT2,2021.1.2,60.01493171501121,
AB,lag7,7,5,12,0.06000000005000003,0.02,0.3,main,,,,,0,21,21,21,,,,,,,fishskeleton.jpg,sink.jpg,eye.jpg,bat.jpg,rollerblade.jpg,toolbox02.jpg,giraffe.jpg,mummy.jpg,cross01.jpg,football.jpg,tricycle.jpg,treadmill.jpg,bowtie.jpg,key07.jpg,makiroll.jpg,whiteout.jpg,cork02.jpg,,,,,0,0,14,,,,,.\resources\treadmill.jpg,,,1,,,,,,,,,1,,,,,,,,,None,269.24893662999995,None,269.24893662999995,None,,,,,,,264.3659260999998,267.1160872999999,266.8494386000002,None,0.052832959157411374,267.3490293,None,267.3490293,None,268.4656162000001,None,268.4656162000001,None,right,0.5915075000002616,268.4656162000001,None,269.1155611999998,None,right,0.11761280000018814,269.1155611999998,None,269.1155611999998,None,-6.580495825914356,150.2709677654221,,3,001,2021_Apr_07_1343,AB_pic_singleT2,2021.1.2,60.01493171501121,
AB,lag6,6,5,11,0.06000000005000003,0.02,0.3,main,,,,,0,22,22,22,,,,,,,telescope.jpg,dromedary.jpg,snowboard.jpg,eyepatch.jpg,discoball.jpg,trampoline.jpg,acorn.jpg,exitsign.jpg,pooltable.jpg,jackrabbit.jpg,ear.jpg,volleyball.jpg,electricguitar01.jpg,cat.jpg,funnel.jpg,mrpotatohead.jpg,cow.jpg,,,,,0,0,13,,,,,.\resources\ear.jpg,,,1,,,,,,,,,1,,,,,,,,,None,273.91522943,None,273.91522943,None,,,,,,,269.2655786999999,272.0157333000002,271.74911759999986,None,0.053016163437974696,272.2657227999998,None,272.2657227999998,None,273.2985969000001,None,273.2985969000001,None,right,0.41448669999999765,273.2985969000001,None,273.78189310000016,None,right,0.11517350000031001,273.78189310000016,None,273.78189310000016,None,-6.442543597857318,150.2869521945595,,3,001,2021_Apr_07_1343,AB_pic_singleT2,2021.1.2,60.01493171501121,
AB,lag7,7,5,12,0.06000000005000003,0.02,0.3,main,,,,,0,23,23,23,,,,,,,pooltable.jpg,cow.jpg,drumstick.jpg,mouse.jpg,knee.jpg,rooster.jpg,soccerball.jpg,sword01.jpg,kite.jpg,toolbox02.jpg,noparkingsign.jpg,wheelchair.jpg,totempole.jpg,witchhat.jpg,tree.jpg,bumpercar.jpg,slug.jpg,,,,,0,1,14,,,,,.\resources\wheelchair.jpg,,,1,,,,,,,,,1,,,,,,,,,None,279.1148626299999,None,279.1148626299999,None,,,,,,,273.9318810999998,276.6820778000001,276.3987820000002,None,0.05209259915552815,276.9153882999999,None,276.9153882999999,None,278.0149391,None,278.0149391,None,right,0.9224939999999151,278.0149391,None,279.0148598999999,None,left,0.05833889999985331,279.0148598999999,None,279.0148598999999,None,-6.267654634427405,150.3046057854816,,3,001,2021_Apr_07_1343,AB_pic_singleT2,2021.1.2,60.01493171501121,
AB,lag5,5,3,8,0.06000000005000003,0.02,0.3,main,,,,,0,24,24,24,,,,,,,tennisracket.jpg,table01.jpg,seagull.jpg,chainsaw.jpg,knee.jpg,lip.jpg,hand01b.jpg,popcorn.jpg,ostrich.jpg,mattress.jpg,paperairplane.jpg,apron.jpg,whiteout.jpg,surfboard.jpg,leafrake.jpg,soccerball.jpg,beerbottle.jpg,,,,,0,0,10,,,,,.\resources\popcorn.jpg,,,1,,,,,,,,,1,,,,,,,,,None,283.6645290300001,None,283.6645290300001,None,,,,,,,279.131527,281.8816912000002,281.6150498000002,None,0.050922917202359044,282.1146361000001,None,282.1146361000001,None,282.9145714000001,None,282.9145714000001,None,right,0.5745339999998578,282.9145714000001,None,283.56453580000016,None,right,0.08450230000016745,283.56453580000016,None,283.56453580000016,None,-6.0894946329753825,150.3221191470136,,3,001,2021_Apr_07_1343,AB_pic_singleT2,2021.1.2,60.01493171501121,
AB,lag3,3,3,6,0.06000000005000003,0.02,0.3,main,,,,,0,25,25,25,,,,,,,knee.jpg,porcupine.jpg,boxingglove01.jpg,spiderweb.jpg,funnel.jpg,raccoon.jpg,airhockeytable.jpg,firehydrant.jpg,crab01.jpg,redfox.jpg,chainsaw.jpg,fishingrod.jpg,banjo.jpg,table01.jpg,toilet.jpg,scorpion.jpg,microphone01.jpg,,,,,0,0,8,,,,,.\resources\raccoon.jpg,,,1,,,,,,,,,1,,,,,,,,,None,287.9142318299999,None,287.9142318299999,None,,,,,,,283.68118030000005,286.4313726999999,286.1480486999999,None,0.04973179620215454,286.66468799999984,None,286.66468799999984,None,287.29758790000005,None,287.29758790000005,None,right,0.40748279999979786,287.29758790000005,None,287.76422300000013,None,right,0.10894069999994827,287.76422300000013,None,287.76422300000013,None,-5.915565167377201,150.3391018454459,,3,001,2021_Apr_07_1343,AB_pic_singleT2,2021.1.2,60.01493171501121,
AB,lag2,2,3,5,0.06000000005000003,0.02,0.3,main,,,,,0,26,26,26,,,,,,,lawnmower.jpg,flamingo.jpg,treadmill.jpg,cymbal.jpg,swordfish.jpg,mailbox02.jpg,microphone01.jpg,helicopter.jpg,soccerball.jpg,parachute.jpg,jeep.jpg,turnstile.jpg,cactus.jpg,spicerack.jpg,birdfeeder.jpg,footballhelmet.jpg,birthdaycandle.jpg,,,,,0,0,7,,,,,.\resources\swordfish.jpg,,,1,,,,,,,,,1,,,,,,,,,None,292.3972849300001,None,292.3972849300001,None,,,,,,,287.9308900000001,290.68120899999985,290.41455570000016,None,0.04856926400959659,290.91407290000006,None,290.91407290000006,None,291.49734390000003,None,291.49734390000003,None,right,0.7038704000001417,291.49734390000003,None,292.28061990000015,None,right,0.08852909999995973,292.28061990000015,None,292.28061990000015,None,-5.747288629226568,150.3555168709132,,3,001,2021_Apr_07_1343,AB_pic_singleT2,2021.1.2,60.01493171501121,
AB,lag1,1,5,6,0.06000000005000003,0.02,0.3,main,,,,,0,27,27,27,,,,,,,badmintonracket.jpg,zebra.jpg,table01.jpg,cruiseship.jpg,toucan.jpg,anchor.jpg,armadillo.jpg,ear.jpg,bench01.jpg,giraffe.jpg,skippingrope.jpg,butterfly.jpg,birthdaycandle.jpg,raccoon.jpg,squid.jpg,fishskeleton.jpg,firehydrant.jpg,,,,,0,0,8,,,,,.\resources\anchor.jpg,,,1,,,,,,,,,1,,,,,,,,,None,296.7803017300001,None,296.7803017300001,None,,,,,,,292.4139745000002,295.1637802,294.8971040000001,None,0.04744477049332984,295.39707069999986,None,295.39707069999986,None,296.03035679999994,None,296.03035679999994,None,right,0.55490699999973,296.03035679999994,None,296.6636474000002,None,right,0.08939079999981914,296.6636474000002,None,296.6636474000002,None,-5.584862941205591,150.37142021492363,,3,001,2021_Apr_07_1343,AB_pic_singleT2,2021.1.2,60.01493171501121,
AB,lag4,4,5,9,0.06000000005000003,0.02,0.3,main,,,,,0,28,28,28,,,,,,,swordfish.jpg,cannon.jpg,anchor.jpg,athleticsock.jpg,bacon.jpg,chainsaw.jpg,snowman.jpg,trumpet.jpg,birdnest.jpg,marble.jpg,dragonfly01.jpg,curtain.jpg,tulip02.jpg,polarbear.jpg,lighthouse.jpg,safe.jpg,tiger02.jpg,,,,,1,0,11,,,,,.\resources\birdnest.jpg,,,1,,,,,,,,,0,,,,,,,,,None,301.92995643000023,None,301.92995643000023,None,,,,,,,296.79697880000003,299.5467699000001,299.26348599999983,None,0.0463595894243847,299.7634158999999,None,299.7634158999999,None,300.5800287000002,None,300.5800287000002,None,left,1.1250519000000168,300.5800287000002,None,301.76328999999987,None,left,0.1338353000001007,301.76328999999987,None,301.76328999999987,None,-5.428336653778411,150.38689891880378,,3,001,2021_Apr_07_1343,AB_pic_singleT2,2021.1.2,60.01493171501121,
AB,lag3,3,4,7,0.06000000005000003,0.02,0.3,main,,,,,0,29,29,29,,,,,,,crown.jpg,mouse.jpg,banjo.jpg,cupcake.jpg,eiffeltower.jpg,bullet.jpg,spicerack.jpg,platypus.jpg,hammerheadshark.jpg,anchor.jpg,giraffe.jpg,wheelchair.jpg,greywolf.jpg,doghouse.jpg,jellyfish.jpg,tent.jpg,acousticguitar02.jpg,,,,,0,1,9,,,,,.\resources\spicerack.jpg,,,1,,,,,,,,,1,,,,,,,,,None,306.8962430300001,None,306.8962430300001,None,,,,,,,301.94659839999986,304.6964189999999,304.42975750000005,None,0.045313993864436464,304.9463947999998,None,304.9463947999998,None,305.61300329999995,None,305.61300329999995,None,right,1.0600453000001835,305.61300329999995,None,306.7462522000001,None,left,0.11877850000018952,306.7462522000001,None,306.7462522000001,None,-5.277806715612328,150.40205494877318,,3,001,2021_Apr_07_1343,AB_pic_singleT2,2021.1.2,60.01493171501121,
AB,lag1,1,4,5,0.06000000005000003,0.02,0.3,main,,,,,0,30,30,30,,,,,,,fishskeleton.jpg,birdhouse.jpg,trumpet.jpg,snowshoe.jpg,duck01.jpg,tricycle.jpg,airhockeytable.jpg,guitarcase.jpg,redfox.jpg,accordion01.jpg,polarbear.jpg,steeringwheel.jpg,swing.jpg,bed.jpg,vulture.jpg,tennisracket.jpg,sheep.jpg,,,,,0,0,7,,,,,.\resources\duck01.jpg,,,1,,,,,,,,,0,,,,,,,,,None,312.9795355300001,None,312.9795355300001,None,,,,,,,306.91290359999994,309.6627059000002,309.37939730000016,None,0.0443085772930563,309.8960388999999,None,309.8960388999999,None,310.4126554999998,None,310.4126554999998,None,right,1.2365593999998055,310.4126554999998,None,311.7291983,None,left,1.208005100000264,311.7291983,None,311.7291983,None,-5.133421886979248,150.4169993425575,,3,001,2021_Apr_07_1343,AB_pic_singleT2,2021.1.2,60.01493171501121,
AB,lag4,4,5,9,0.06000000005000003,0.02,0.3,main,,,,,0,31,31,31,,,,,,,candycane01a.jpg,popcorn.jpg,snowman.jpg,snowshovel.jpg,makiroll.jpg,windshieldwiper02.jpg,lion.jpg,humanskeleton.jpg,toyanimal05.jpg,horseshoe.jpg,cross01.jpg,giraffe.jpg,tent.jpg,bumpercar.jpg,bridge.jpg,leafblower01.jpg,calendar.jpg,,,,,0,1,11,,,,,.\resources\toyanimal05.jpg,,,1,,,,,,,,,1,,,,,,,,,None,317.8454456299999,None,317.8454456299999,None,,,,,,,312.9961794000001,315.7455850000001,315.4789584,None,0.04334427808422924,315.99556759999996,None,315.99556759999996,None,316.76217540000016,None,316.76217540000016,None,right,0.8629519000000982,316.76217540000016,None,317.69544670000005,None,left,0.12954380000019228,317.69544670000005,None,317.69544670000005,None,-4.995348831290857,150.43184857350053,,3,001,2021_Apr_07_1343,AB_pic_singleT2,2021.1.2,60.01493171501121,
AB,lag6,6,3,9,0.06000000005000003,0.02,0.3,main,,,,,0,32,32,32,,,,,,,windmill.jpg,masquerademask01.jpg,toucan.jpg,raccoon.jpg,trophy01.jpg,bed.jpg,cigar.jpg,moose.jpg,elbow.jpg,parkingmeter.jpg,foot.jpg,athleticsock.jpg,toyanimal05.jpg,duck01.jpg,dromedary.jpg,skateboard.jpg,waterfall.jpg,,,,,1,0,11,,,,,.\resources\elbow.jpg,,,1,,,,,,,,,1,,,,,,,,,None,323.39505703000015,None,323.39505703000015,None,,,,,,,317.8621042999998,320.6123057,320.3456511999998,None,0.04242215496868469,320.8452235,None,320.8452235,None,321.6284985000002,None,321.6284985000002,None,left,1.5645716999997603,321.6284985000002,None,323.2617243999998,None,right,0.11525970000002417,323.2617243999998,None,323.2617243999998,None,-4.86373676331892,150.44672138981218,,3,001,2021_Apr_07_1343,AB_pic_singleT2,2021.1.2,60.01493171501121,
AB,lag2,2,3,5,0.06000000005000003,0.02,0.3,main,,,,,0,33,33,33,,,,,,,dragonfly01.jpg,ironingboard01.jpg,horse.jpg,zipper.jpg,giraffe.jpg,hockeypuck.jpg,beaver.jpg,snowman.jpg,bow.jpg,kangaroo.jpg,stool01.jpg,rooster.jpg,raccoon.jpg,cigar.jpg,helicopter.jpg,bridge.jpg,grizzly.jpg,,,,,1,0,7,,,,,.\resources\giraffe.jpg,,,1,,,,,,,,,1,,,,,,,,,None,329.89457182999996,None,329.89457182999996,None,,,,,,,323.4117000000001,326.1619076000002,325.8952583999999,None,0.041543152730093624,326.3948607000002,None,326.3948607000002,None,326.9114490000002,None,326.9114490000002,None,left,2.7856943000001593,326.9114490000002,None,329.7779085000002,None,right,0.09513280000010127,329.7779085000002,None,329.7779085000002,None,-4.738689081618524,150.46173583566207,,3,001,2021_Apr_07_1343,AB_pic_singleT2,2021.1.2,60.01493171501121,
AB,lag5,5,4,9,0.06000000005000003,0.02,0.3,main,,,,,0,34,34,34,,,,,,,skateboard.jpg,cross01.jpg,eyepatch.jpg,pigeon.jpg,christmastree.jpg,golfball.jpg,telescope.jpg,car.jpg,tiger02.jpg,ceilingfan01.jpg,cloud.jpg,anchor.jpg,snowshovel.jpg,dolphin01.jpg,fireplace.jpg,stubbywrench01a.jpg,doghouse.jpg,,,,,1,0,11,,,,,.\resources\tiger02.jpg,,,1,,,,,,,,,1,,,,,,,,,None,335.66081092999985,None,335.66081092999985,None,,,,,,,329.9112433999999,332.6614292999998,332.39479299999994,None,0.040707914266177744,332.894354,None,332.894354,None,333.6443035000002,None,333.6443035000002,None,left,1.7728225000000748,333.6443035000002,None,335.47747919999983,None,right,0.15558599999985745,335.47747919999983,None,335.47747919999983,None,-4.620244128466323,150.4770064959737,,3,001,2021_Apr_07_1343,AB_pic_singleT2,2021.1.2,60.01493171501121,
AB,lag7,7,5,12,0.06000000005000003,0.02,0.3,main,,,,,0,35,35,35,,,,,,,beerbottle.jpg,tie02.jpg,popcorn.jpg,well.jpg,granolabar01.jpg,snowman.jpg,anchor.jpg,candycane01a.jpg,fingerprint.jpg,dormer.jpg,dandelion.jpg,barrel01.jpg,bowlingpin.jpg,birthdaycandle.jpg,ironingboard01.jpg,bowlingball.jpg,bluecheese.jpg,,,,,0,0,14,,,,,.\resources\barrel01.jpg,,,1,,,,,,,,,1,,,,,,,,,None,340.26052293000004,None,340.26052293000004,None,,,,,,,335.67746750000015,338.42774310000004,338.14440379999996,None,0.03991665324460671,338.64397659999986,None,338.64397659999986,None,339.5772545,None,339.5772545,None,right,0.48782680000022083,339.5772545,None,340.1271839000001,None,right,0.11387580000018716,340.1271839000001,None,340.1271839000001,None,-4.508365396172171,150.49264207658527,,3,001,2021_Apr_07_1343,AB_pic_singleT2,2021.1.2,60.01493171501121,
AB,lag5,5,5,10,0.06000000005000003,0.02,0.3,main,,,,,0,36,36,36,,,,,,,handcuffs.jpg,dartboard.jpg,wheelbarrow01.jpg,acorn.jpg,microwave.jpg,rubikcube.jpg,swordfish.jpg,spicerack.jpg,arrow02.jpg,horse.jpg,moon.jpg,bat.jpg,crab01.jpg,cross01.jpg,africanelephant.jpg,bowlingpin.jpg,cashregister01.jpg,,,,,0,0,12,,,,,.\resources\horse.jpg,,,1,,,,,,,,,1,,,,,,,,,None,345.31013373000025,None,345.31013373000025,None,,,,,,,340.2771778000001,343.02736719999984,342.7440790999999,None,0.03916908943822175,343.2606903000001,None,343.2606903000001,None,344.04355859999987,None,344.04355859999987,None,right,1.0456014000001232,344.04355859999987,None,345.1601429000002,None,right,0.1289227000002029,345.1601429000002,None,345.1601429000002,None,-4.402940463656262,150.50874342630024,,3,001,2021_Apr_07_1343,AB_pic_singleT2,2021.1.2,60.01493171501121,
AB,lag7,7,3,10,0.06000000005000003,0.02,0.3,main,,,,,0,37,37,37,,,,,,,kiwi03.jpg,mailbox02.jpg,statue.jpg,skunk.jpg,bench01.jpg,snowboard.jpg,waterfall.jpg,soccerball.jpg,guitarcase.jpg,acorn.jpg,marble.jpg,shovel01.jpg,arrow02.jpg,tie02.jpg,microwave.jpg,skippingrope.jpg,lip.jpg,,,,,0,1,12,,,,,.\resources\acorn.jpg,,,1,,,,,,,,,1,,,,,,,,,None,350.75972923,None,350.75972923,None,,,,,,,345.3268036999998,348.0770045999998,347.7937393000002,None,0.038464441951912065,348.30992019999985,None,348.30992019999985,None,349.0765295000001,None,349.0765295000001,None,right,1.4445940999999038,349.0765295000001,None,350.59310159999995,None,left,0.12040739999974903,350.59310159999995,None,350.59310159999995,None,-4.303787104574881,150.52540207280308,,3,001,2021_Apr_07_1343,AB_pic_singleT2,2021.1.2,60.01493171501121,
AB,lag4,4,3,7,0.06000000005000003,0.02,0.3,main,,,,,0,38,38,38,,,,,,,tarantula.jpg,toad.jpg,arrow02.jpg,rubikcube.jpg,key07.jpg,cow.jpg,holdfast.jpg,smokingpipe.jpg,dragonfly01.jpg,peacock.jpg,showerhead01.jpg,noparkingsign.jpg,bridge.jpg,makiroll.jpg,anchor.jpg,waterfall.jpg,greathornowl.jpg,,,,,1,0,9,,,,,.\resources\holdfast.jpg,,,1,,,,,,,,,1,,,,,,,,,None,358.7924866299998,None,358.7924866299998,None,,,,,,,350.77641140000014,353.52655989999994,353.25992480000014,None,0.037801469966794767,353.7595041999998,None,353.7595041999998,None,354.3594573999999,None,354.3594573999999,None,left,4.185669100000268,354.3594573999999,None,358.62581820000014,None,right,0.13532889999987674,358.62581820000014,None,358.62581820000014,None,-4.210664436476676,150.54269929691088,,3,001,2021_Apr_07_1343,AB_pic_singleT2,2021.1.2,60.01493171501121,
AB,lag3,3,5,8,0.06000000005000003,0.02,0.3,main,,,,,0,39,39,39,,,,,,,electricguitar01.jpg,wallclock.jpg,alligator.jpg,masquerademask01.jpg,squirrel.jpg,coffeemaker.jpg,rose.jpg,bull.jpg,tire.jpg,banjo.jpg,snowshovel.jpg,popcorn.jpg,hand01b.jpg,turnstile.jpg,birdnest.jpg,escalator.jpg,nose.jpg,,,,,1,0,10,,,,,.\resources\bull.jpg,,,0,,,,,,,,,1,,,,,,,,,None,365.05870412999985,None,365.05870412999985,None,,,,,,,358.80915060000007,361.5593256000002,361.2926831,None,0.037178546842433394,361.79226419999986,None,361.79226419999986,None,362.4255469,None,362.4255469,None,right,2.439523300000019,362.4255469,None,364.9420792000001,None,right,0.09102490000032049,364.9420792000001,None,364.9420792000001,None,-4.486714803426235,150.54532481253946,,3,001,2021_Apr_07_1343,AB_pic_singleT2,2021.1.2,60.01493171501121,
AB,lag2,2,4,6,0.06000000005000003,0.02,0.3,main,,,,,0,40,40,40,,,,,,,dolphin01.jpg,greywolf.jpg,cow.jpg,flamingo.jpg,leafrake.jpg,chainsaw.jpg,beaver.jpg,harmonica.jpg,jeep.jpg,microwave.jpg,ear.jpg,tie02.jpg,worldmap.jpg,waterfall.jpg,ducttape.jpg,licenseplate.jpg,safe.jpg,,,,,0,0,8,,,,,.\resources\chainsaw.jpg,,,1,,,,,,,,,1,,,,,,,,,None,369.7584120300001,None,369.7584120300001,None,,,,,,,365.07538509999995,367.8255457999999,367.5588922000002,None,0.03901156792387445,368.0755294999999,None,368.0755294999999,None,368.62510169999996,None,368.62510169999996,None,right,0.9519993999997496,368.62510169999996,None,369.65840089999983,None,right,0.07873410000001968,369.65840089999983,None,369.65840089999983,None,-4.469194793075254,150.5586155173048,,3,001,2021_Apr_07_1343,AB_pic_singleT2,2021.1.2,60.01493171501121,
AB,lag1,1,4,5,0.06000000005000003,0.02,0.3,main,,,,,0,41,41,41,,,,,,,sandcastle.jpg,donut.jpg,dolphin01.jpg,windmill.jpg,cocktailshrimp02.jpg,polarbear.jpg,hockeystick.jpg,fishingrod.jpg,cactus.jpg,cashregister01.jpg,spicerack.jpg,ant.jpg,pokerchips.jpg,hammerheadshark.jpg,electrictoothbrush01c.jpg,bat.jpg,nose.jpg,,,,,1,1,7,,,,,.\resources\cocktailshrimp02.jpg,,,0,,,,,,,,,0,,,,,,,,,None,374.50807122999987,None,374.50807122999987,None,,,,,,,369.7750253999998,372.5252145999998,372.258558,None,0.0388917574333176,372.7751939,None,372.7751939,None,373.2584882000001,None,373.2584882000001,None,right,1.0466111999999157,373.2584882000001,None,374.3580373,None,right,0.1311294000001908,374.3580373,None,374.3580373,None,-4.714494372008674,150.56075252467383,,3,001,2021_Apr_07_1343,AB_pic_singleT2,2021.1.2,60.01493171501121,
AB,lag6,6,5,11,0.06000000005000003,0.02,0.3,main,,,,,0,42,42,42,,,,,,,cocktailshrimp02.jpg,leafblower01.jpg,cork02.jpg,lollipop04.jpg,snowshovel.jpg,floorlamp.jpg,pooltable.jpg,sledgehammer.jpg,ironingboard01.jpg,xylophone.jpg,scooter.jpg,accordion01.jpg,callbell.jpg,seal.jpg,cashregister01.jpg,greathornowl.jpg,marble.jpg,,,,,1,1,13,,,,,.\resources\scooter.jpg,,,0,,,,,,,,,1,,,,,,,,,None,380.9242382300002,None,380.9242382300002,None,,,,,,,374.5246860000002,377.274864,377.00825910000003,None,0.04052044527426741,377.5248636000001,None,377.5248636000001,None,378.374413,None,378.374413,None,right,2.3466530999999122,378.374413,None,380.7909040999998,None,left,0.09832390000019586,380.7909040999998,None,380.7909040999998,None,-4.9595883655160105,150.561215574439,,3,001,2021_Apr_07_1343,AB_pic_singleT2,2021.1.2,60.01493171501121,
AB,lag5,5,5,10,0.06000000005000003,0.02,0.3,main,,,,,0,43,43,43,,,,,,,athleticsock.jpg,tiger02.jpg,microphone01.jpg,sandcastle.jpg,englishcucumber.jpg,waterfountain02.jpg,key07.jpg,drumset.jpg,hammerheadshark.jpg,accordion01.jpg,parrot01.jpg,redfox.jpg,cow.jpg,snowshovel.jpg,squid.jpg,bluejay.jpg,beaver.jpg,,,,,0,0,12,,,,,.\resources\accordion01.jpg,,,1,,,,,,,,,1,,,,,,,,,None,385.4073001300001,None,385.4073001300001,None,,,,,,,380.9409197,383.6910716000002,383.4244248,None,0.04214819003967481,383.9240528999999,None,383.9240528999999,None,384.7573379999999,None,384.7573379999999,None,right,0.46780420000004597,384.7573379999999,None,385.2906336000001,None,right,0.09436050000022078,385.2906336000001,None,385.2906336000001,None,-4.932454294104952,150.57259224014382,,3,001,2021_Apr_07_1343,AB_pic_singleT2,2021.1.2,60.01493171501121,
AB,lag7,7,5,12,0.06000000005000003,0.02,0.3,main,,,,,0,44,44,44,,,,,,,spicerack.jpg,duck01.jpg,licenseplate.jpg,trophy01.jpg,bow.jpg,horseshoe.jpg,dalmatian.jpg,foosballtable.jpg,kangaroo.jpg,eye.jpg,moose.jpg,xylophone.jpg,firehydrant.jpg,ladybug03.jpg,mummy.jpg,golfball.jpg,bluecheese.jpg,,,,,0,0,14,,,,,.\resources\xylophone.jpg,,,1,,,,,,,,,1,,,,,,,,,None,389.9403389299999,None,389.9403389299999,None,,,,,,,385.42396629999985,388.17380860000003,387.9071379000002,None,0.04196479957751711,388.40710309999986,None,388.40710309999986,None,389.3570324000002,None,389.3570324000002,None,right,0.38011809999989055,389.3570324000002,None,389.8236624000001,None,right,0.08945940000012342,389.8236624000001,None,389.8236624000001,None,-4.8841248729238576,150.58516397038855,,3,001,2021_Apr_07_1343,AB_pic_singleT2,2021.1.2,60.01493171501121,
AB,lag3,3,4,7,0.06000000005000003,0.02,0.3,main,,,,,0,45,45,45,,,,,,,chainsaw.jpg,redfox.jpg,dandelion.jpg,apron.jpg,snowshovel.jpg,daddylonglegs.jpg,coffeemaker.jpg,lip.jpg,ducttape.jpg,magneticcompass.jpg,mummy.jpg,pumpkin.jpg,punchingbag.jpg,brownsugar.jpg,accordion01.jpg,africanelephant.jpg,harmonica.jpg,,,,,0,1,9,,,,,.\resources\coffeemaker.jpg,,,1,,,,,,,,,0,,,,,,,,,None,394.39046033000005,None,394.39046033000005,None,,,,,,,389.95699509999986,392.7067914999998,392.44014890000017,None,0.04164035200225156,392.9567824999999,None,392.9567824999999,None,393.59006409999984,None,393.59006409999984,None,right,0.48297869999987597,393.59006409999984,None,394.1400285999998,None,right,0.22111320000021806,394.1400285999998,None,394.1400285999998,None,-4.8352282039674845,150.59810745969932,,3,001,2021_Apr_07_1343,AB_pic_singleT2,2021.1.2,60.01493171501121,
AB,lag2,2,5,7,0.06000000005000003,0.02,0.3,main,,,,,0,46,46,46,,,,,,,waterfountain02.jpg,waterfall.jpg,doghouse.jpg,jackrabbit.jpg,pigeon.jpg,spiderweb.jpg,volleyball.jpg,daddylonglegs.jpg,snowboard.jpg,baseballbat.jpg,bat.jpg,makiroll.jpg,turnstile.jpg,athleticsock.jpg,polarbear.jpg,parachute.jpg,sheep.jpg,,,,,1,0,9,,,,,.\resources\volleyball.jpg,,,1,,,,,,,,,0,,,,,,,,,None,399.0896575300001,None,399.0896575300001,None,,,,,,,394.407115,397.1564735000002,396.8898288999999,None,0.04131208997265972,397.4064652000002,None,397.4064652000002,None,398.0230913999999,None,398.0230913999999,None,left,0.8500588000001699,398.0230913999999,None,398.9396691000002,None,left,0.10947329999999056,398.9396691000002,None,398.9396691000002,None,-4.78729472892928,150.6113472071809,,3,001,2021_Apr_07_1343,AB_pic_singleT2,2021.1.2,60.01493171501121,
AB,lag6,6,5,11,0.06000000005000003,0.02,0.3,main,,,,,0,47,47,47,,,,,,,magneticcompass.jpg,hulahoop.jpg,grizzly.jpg,escalator.jpg,sledgehammer.jpg,pirateflag.jpg,brownsugar.jpg,airhockeytable.jpg,volleyball.jpg,knee.jpg,moose.jpg,recyclingbin.jpg,parkingmeter.jpg,trophy01.jpg,horse.jpg,cork02.jpg,chefshat.jpg,,,,,0,1,13,,,,,.\resources\moose.jpg,,,1,,,,,,,,,0,,,,,,,,,None,404.0059463300002,None,404.0059463300002,None,,,,,,,399.1063236,401.85611000000017,401.58947279999984,None,0.040990198975889805,402.08943550000004,None,402.08943550000004,None,402.97271790000013,None,402.97271790000013,None,right,0.8205766000000949,402.97271790000013,None,403.8726267000002,None,right,0.09654879999970944,403.8726267000002,None,403.8726267000002,None,-4.7403997477858,150.6248674036921,,3,001,2021_Apr_07_1343,AB_pic_singleT2,2021.1.2,60.01493171501121,
AB,lag1,1,4,5,0.06000000005000003,0.02,0.3,main,,,,,0,48,48,48,,,,,,,corn02.jpg,handcuffs.jpg,soccerball.jpg,nose.jpg,bull.jpg,vacuumcleaner01.jpg,bridge.jpg,tortoise01.jpg,steeringwheel.jpg,locker.jpg,fridge.jpg,tiger02.jpg,rubikcube.jpg,firehydrant.jpg,greathornowl.jpg,jeans01.jpg,mailbox02.jpg,,,,,0,0,7,,,,,.\resources\bull.jpg,,,1,,,,,,,,,1,,,,,,,,,None,408.90559103000015,None,408.90559103000015,None,,,,,,,404.02260909999995,406.77285089999987,406.50615400000015,None,0.04067518341765866,407.0057224000002,None,407.0057224000002,None,407.52234980000003,None,407.52234980000003,None,right,1.1908296000001428,407.52234980000003,None,408.78892640000004,None,right,0.09212969999998677,408.78892640000004,None,408.78892640000004,None,-4.694512850125122,150.6386591820696,,3,001,2021_Apr_07_1343,AB_pic_singleT2,2021.1.2,60.01493171501121,
AB,lag4,4,3,7,0.06000000005000003,0.02,0.3,main,,,,,0,49,49,49,,,,,,,vulture.jpg,donut.jpg,cupcake.jpg,pumpkin.jpg,smokingpipe.jpg,ironingboard01.jpg,kiwi03.jpg,electricguitar01.jpg,tie02.jpg,sink.jpg,snowshoe.jpg,stubbywrench01a.jpg,parrot01.jpg,granolabar01.jpg,leafblower01.jpg,coffeemaker.jpg,alligator.jpg,,,,,1,1,9,,,,,.\resources\kiwi03.jpg,,,0,,,,,,,,,1,,,,,,,,,None,413.50525923000015,None,413.50525923000015,None,,,,,,,408.9222496000002,411.67205250000006,411.38876789999995,None,0.04036684370574115,411.9053706999998,None,411.9053706999998,None,412.5219984999999,None,412.5219984999999,None,right,0.8150804999995671,412.5219984999999,None,413.4052628999998,None,left,0.07579929999974411,413.4052628999998,None,413.4052628999998,None,-4.861942435608141,150.64318460548347,,3,001,2021_Apr_07_1343,AB_pic_singleT2,2021.1.2,60.01493171501121,
AB,lag3,3,4,7,0.06000000005000003,0.02,0.3,main,,,,,0,50,50,50,,,,,,,key07.jpg,bull.jpg,kneepad01c.jpg,hulahoop.jpg,smokingpipe.jpg,discoball.jpg,electrictoothbrush01c.jpg,cow.jpg,bow.jpg,lizard.jpg,spiderweb.jpg,cheetah.jpg,baseballbat.jpg,vulture.jpg,toucan.jpg,noparkingsign.jpg,crown.jpg,,,,,0,1,9,,,,,.\resources\electrictoothbrush01c.jpg,,,1,,,,,,,,,1,,,,,,,,,None,418.92154052999996,None,418.92154052999996,None,,,,,,,413.5219387000002,416.27212770000006,415.9888077999999,None,0.041477062590593916,416.5050443,None,416.5050443,None,417.1383298999999,None,417.1383298999999,None,right,1.6067481000000043,417.1383298999999,None,418.83820779999996,None,left,0.06693269999959739,418.83820779999996,None,418.83820779999996,None,-4.834850002656642,150.65547757405204,,3,001,2021_Apr_07_1343,AB_pic_singleT2,2021.1.2,60.01493171501121,
AB,lag7,7,5,12,0.06000000005000003,0.02,0.3,main,,,,,0,51,51,51,,,,,,,frenchfries.jpg,shovel01.jpg,callbell.jpg,statue.jpg,bowlingpin.jpg,soccerball.jpg,magneticcompass.jpg,slug.jpg,worldmap.jpg,hand01b.jpg,musicsheet.jpg,baseballbat.jpg,trumpet.jpg,kite.jpg,skunk.jpg,ironingboard01.jpg,eiffeltower.jpg,,,,,0,0,14,,,,,.\resources\baseballbat.jpg,,,1,,,,,,,,,1,,,,,,,,,None,423.6045482299999,None,423.6045482299999,None,,,,,,,418.9382185999998,421.68844320000017,421.42174669999986,None,0.0412938478172401,421.92131870000003,None,421.92131870000003,None,422.8712509000002,None,422.8712509000002,None,right,0.5539616999999453,422.8712509000002,None,423.50453460000017,None,right,0.08046009999998205,423.50453460000017,None,423.50453460000017,None,-4.796308043568494,150.66849272860634,,3,001,2021_Apr_07_1343,AB_pic_singleT2,2021.1.2,60.01493171501121,
AB,lag1,1,5,6,0.06000000005000003,0.02,0.3,main,,,,,0,52,52,52,,,,,,,kite.jpg,bowtie.jpg,cheetah.jpg,cruiseship.jpg,flag.jpg,microwave.jpg,cloud.jpg,drumstick.jpg,birdfeeder.jpg,foot.jpg,cashregister01.jpg,trampoline.jpg,uprightpiano01.jpg,sheep.jpg,slug.jpg,armadillo.jpg,parrot01.jpg,,,,,0,0,8,,,,,.\resources\microwave.jpg,,,1,,,,,,,,,1,,,,,,,,,None,428.00424343000014,None,428.00424343000014,None,,,,,,,423.6212048000002,426.3714022999998,426.1047570999999,None,0.04103447437962283,426.6043531999999,None,426.6043531999999,None,427.18804809999983,None,427.18804809999983,None,right,0.5970041999999012,427.18804809999983,None,427.8542306999998,None,right,0.10694609999973181,427.8542306999998,None,427.8542306999998,None,-4.757734925503658,150.6817774505604,,3,001,2021_Apr_07_1343,AB_pic_singleT2,2021.1.2,60.01493171501121,
AB,lag4,4,4,8,0.06000000005000003,0.02,0.3,main,,,,,0,53,53,53,,,,,,,cashregister01.jpg,golfball.jpg,hotdogweiner.jpg,barrel01.jpg,ironingboard01.jpg,alligator.jpg,zebra.jpg,hammerheadshark.jpg,xylophone.jpg,tree.jpg,squid.jpg,licenseplate.jpg,hockeypuck.jpg,coffeemaker.jpg,polarbear.jpg,nose.jpg,leafrake.jpg,,,,,0,0,10,,,,,.\resources\hammerheadshark.jpg,,,0,,,,,,,,,1,,,,,,,,,None,435.4703567300001,None,435.4703567300001,None,,,,,,,428.02088289999983,430.7710866000002,430.5044269,None,0.040774866016160725,431.0040091000001,None,431.0040091000001,None,431.7039571,None,431.7039571,None,left,3.553167200000189,431.7039571,None,435.3370006,None,right,0.11207300000023679,435.3370006,None,435.3370006,None,-4.902853432481431,150.6869337451939,,3,001,2021_Apr_07_1343,AB_pic_singleT2,2021.1.2,60.01493171501121,
AB,lag6,6,5,11,0.06000000005000003,0.02,0.3,main,,,,,0,54,54,54,,,,,,,porcupine.jpg,pig.jpg,cow.jpg,dandelion.jpg,tire.jpg,turnstile.jpg,kite.jpg,chainsaw.jpg,raccoon.jpg,bullet.jpg,peacock.jpg,stubbywrench01a.jpg,masquerademask01.jpg,cannon.jpg,escalator.jpg,parachute.jpg,tiger02.jpg,,,,,0,1,13,,,,,.\resources\peacock.jpg,,,1,,,,,,,,,1,,,,,,,,,None,440.6866791300002,None,440.6866791300002,None,,,,,,,435.4869841999998,438.2372684000002,437.9706412999999,None,0.04173651714378926,438.47016140000005,None,438.47016140000005,None,439.35343520000015,None,439.35343520000015,None,right,1.1116400999999314,439.35343520000015,None,440.5533567000002,None,left,0.10375810000005004,440.5533567000002,None,440.5533567000002,None,-4.877375611331863,150.6989685152309,,3,001,2021_Apr_07_1343,AB_pic_singleT2,2021.1.2,60.01493171501121,
AB,lag2,2,4,6,0.06000000005000003,0.02,0.3,main,,,,,0,55,55,55,,,,,,,trampoline.jpg,bathtub.jpg,brownsugar.jpg,motorcycle.jpg,cork02.jpg,boxingglove01.jpg,tree.jpg,tulip02.jpg,vulture.jpg,frenchfries.jpg,ipad02.jpg,daddylonglegs.jpg,armadillo.jpg,witchhat.jpg,redfox.jpg,jeans01.jpg,bull.jpg,,,,,0,0,8,,,,,.\resources\boxingglove01.jpg,,,1,,,,,,,,,0,,,,,,,,,None,445.28631252999986,None,445.28631252999986,None,,,,,,,440.70336480000014,443.4531366000001,443.1864937,None,0.04156411974258931,443.68645879999985,None,443.68645879999985,None,444.2697466999998,None,444.2697466999998,None,right,0.8034951000004185,444.2697466999998,None,445.15298919999987,None,left,0.11215889999994033,445.15298919999987,None,445.15298919999987,None,-4.843953483527894,150.71156498245767,,3,001,2021_Apr_07_1343,AB_pic_singleT2,2021.1.2,60.01493171501121,
AB,lag5,5,4,9,0.06000000005000003,0.02,0.3,main,,,,,0,56,56,56,,,,,,,granolabar01.jpg,pumpkin.jpg,helicopter.jpg,locker.jpg,chimney.jpg,bowlingball.jpg,triangle.jpg,callbell.jpg,cork02.jpg,turnstile.jpg,microwave.jpg,discoball.jpg,cow.jpg,cruiseship.jpg,acorn.jpg,sausage.jpg,beerbottle.jpg,,,,,1,1,11,,,,,.\resources\cork02.jpg,,,0,,,,,,,,,0,,,,,,,,,None,450.05263872999996,None,450.05263872999996,None,,,,,,,445.30298330000005,448.0532328999998,447.7865299,None,0.04133888361767702,448.2860947999998,None,448.2860947999998,None,449.0527060999998,None,449.0527060999998,None,right,0.8123415999998542,449.0527060999998,None,449.9526424999999,None,right,0.08039899999994304,449.9526424999999,None,449.9526424999999,None,-4.973578410307579,150.716768760391,,3,001,2021_Apr_07_1343,AB_pic_singleT2,2021.1.2,60.01493171501121,
AB,lag2,2,3,5,0.06000000005000003,0.02,0.3,main,,,,,0,57,57,57,,,,,,,tortoise01.jpg,stool01.jpg,ironingboard01.jpg,fishskeleton.jpg,skippingrope.jpg,pig.jpg,squirrel.jpg,daddylonglegs.jpg,kite.jpg,showerhead01.jpg,popcorn.jpg,banjo.jpg,crown.jpg,leafblower01.jpg,toilet.jpg,sausage.jpg,ant.jpg,,,,,0,1,7,,,,,.\resources\skippingrope.jpg,,,1,,,,,,,,,1,,,,,,,,,None,454.7023178299999,None,454.7023178299999,None,,,,,,,450.0693061000002,452.8195171000002,452.5361842000002,None,0.042197512750146424,453.03579860000036,None,453.03579860000036,None,453.55238729999974,None,453.55238729999974,None,right,0.9446717999999237,453.55238729999974,None,454.56897979999985,None,left,0.10417159999997239,454.56897979999985,None,454.56897979999985,None,-4.949443879991733,150.72825659126812,,3,001,2021_Apr_07_1343,AB_pic_singleT2,2021.1.2,60.01493171501121,
AB,lag6,6,5,11,0.06000000005000003,0.02,0.3,main,,,,,0,58,58,58,,,,,,,bullet.jpg,arrow02.jpg,foldingchair.jpg,sandcastle.jpg,fridge.jpg,crosscountryski.jpg,leafblower01.jpg,acousticguitar02.jpg,electricguitar01.jpg,chair.jpg,stubbywrench01a.jpg,nose.jpg,mailbox02.jpg,schoolbus.jpg,cross01.jpg,bluejay.jpg,corn02.jpg,,,,,0,0,13,,,,,.\resources\stubbywrench01a.jpg,,,0,,,,,,,,,1,,,,,,,,,space,459.8519441000003,None,459.8519441000003,None,,,,,,,454.7189709999998,457.46920439999985,457.1858637999999,None,0.04203417716355821,457.6854311000002,None,457.6854311000002,None,458.5853610999998,None,458.5853610999998,None,left,1.0317394000003333,458.5853610999998,None,459.68528430000015,None,right,0.12378840000019409,459.68528430000015,None,459.68528430000015,None,-5.06816181347134,150.7330240438835,2.4131478999997853,3,001,2021_Apr_07_1343,AB_pic_singleT2,2021.1.2,60.01493171501121,
AB,lag7,7,4,11,0.06000000005000003,0.02,0.3,main,,,,,0,59,59,59,,,,,,,swing.jpg,bench01.jpg,football.jpg,snowboard.jpg,crosscountryski.jpg,ducttape.jpg,lawnmower.jpg,giraffe.jpg,tennisracket.jpg,tarantula.jpg,zebra.jpg,table01.jpg,tiger02.jpg,rooster.jpg,tortoise01.jpg,lily.jpg,uprightpiano01.jpg,,,,,0,0,13,,,,,.\resources\zebra.jpg,,,1,,,,,,,,,1,,,,,,,,,None,466.8347938299997,None,466.8347938299997,None,,,,,,,462.3017764000001,465.0519720999996,464.76869990000023,None,0.042820451692869375,465.2850185000002,None,465.2850185000002,None,466.16815240000005,None,466.16815240000005,None,right,0.4649117999997543,466.16815240000005,None,466.7014488,None,right,0.09170220000032714,466.7014488,None,466.7014488,None,-5.045058512654306,150.74368552633126,,3,001,2021_Apr_07_1343,AB_pic_singleT2,2021.1.2,60.01493171501121,
AB,lag5,5,3,8,0.06000000005000003,0.02,0.3,main,,,,,0,60,60,60,,,,,,,rubikcube.jpg,hulahoop.jpg,rose.jpg,harmonica.jpg,lollipop04.jpg,pokerchips.jpg,anchor.jpg,ladybug03.jpg,swing.jpg,dormer.jpg,calendar.jpg,jackrabbit.jpg,elbow.jpg,squirrel.jpg,shovel01.jpg,baseballbat.jpg,nunchuk.jpg,,,,,0,0,10,,,,,.\resources\ladybug03.jpg,,,1,,,,,,,,,1,,,,,,,,,None,471.1011416300001,None,471.1011416300001,None,,,,,,,466.8514616999996,469.60163729999977,469.33499489999986,None,0.04266416103148012,469.8516261,None,469.8516261,None,470.5511883000004,None,470.5511883000004,None,right,0.3380070000002888,470.5511883000004,None,470.9844830999996,None,right,0.08857140000054642,470.9844830999996,None,470.9844830999996,None,-5.017667826116613,150.7547722489271,,3,001,2021_Apr_07_1343,AB_pic_singleT2,2021.1.2,60.01493171501121,
AB,lag3,3,5,8,0.06000000005000003,0.02,0.3,main,,,,,0,61,61,61,,,,,,,safe.jpg,lion.jpg,basketball01.jpg,redfox.jpg,greathornowl.jpg,corn02.jpg,bumpercar.jpg,boxingglove01.jpg,icecube02.jpg,flag.jpg,butterfly.jpg,key07.jpg,trampoline.jpg,seagull.jpg,vulture.jpg,seal.jpg,bench01.jpg,,,,,1,0,10,,,,,.\resources\boxingglove01.jpg,,,0,,,,,,,,,1,,,,,,,,,None,475.4508279300001,None,475.4508279300001,None,,,,,,,471.1178066999996,473.8680086999998,473.60135649999984,None,0.04247933310304927,474.10091989999955,None,474.10091989999955,None,474.8175348999998,None,474.8175348999998,None,right,0.4237031999991814,474.8175348999998,None,475.31750070000044,None,right,0.09161780000067665,475.31750070000044,None,475.31750070000044,None,-5.125539439018358,150.75940727512446,,3,001,2021_Apr_07_1343,AB_pic_singleT2,2021.1.2,60.01493171501121,
AB,lag4,4,5,9,0.06000000005000003,0.02,0.3,main,,,,,0,62,62,62,,,,,,,whiteout.jpg,cheetah.jpg,surfboard.jpg,foldingchair.jpg,toucan.jpg,icecube02.jpg,birdfeeder.jpg,badmintonracket.jpg,dalmatian.jpg,chimney.jpg,fortunecookie.jpg,athleticsock.jpg,pig.jpg,witchhat.jpg,saxophone.jpg,microphone01.jpg,fridge.jpg,,,,,0,0,11,,,,,.\resources\dalmatian.jpg,,,1,,,,,,,,,1,,,,,,,,,None,479.75053702999986,None,479.75053702999986,None,,,,,,,475.4674976000001,478.21769710000035,477.95104089999995,None,0.04319354870011294,478.45060630000035,None,478.45060630000035,None,479.2342918999998,None,479.2342918999998,None,right,0.29479910000009113,479.2342918999998,None,479.61718580000024,None,right,0.0880723999998736,479.61718580000024,None,479.61718580000024,None,-5.103843184819403,150.76948795713292,,3,001,2021_Apr_07_1343,AB_pic_singleT2,2021.1.2,60.01493171501121,
AB,lag1,1,3,4,0.06000000005000003,0.02,0.3,main,,,,,0,63,63,63,,,,,,,lightswitch01.jpg,lawnmower.jpg,lollipop04.jpg,brownsugar.jpg,wheelchair.jpg,makiroll.jpg,hotdogweiner.jpg,turnstile.jpg,trampoline.jpg,ladder.jpg,cymbal.jpg,stubbywrench01a.jpg,harmonica.jpg,sausage.jpg,foldingchair.jpg,kiwi03.jpg,helicopter.jpg,,,,,0,1,6,,,,,.\resources\brownsugar.jpg,,,1,,,,,,,,,1,,,,,,,,,None,484.60017593000003,None,484.60017593000003,None,,,,,,,479.76717990000043,482.51738239999986,482.2507375,None,0.043046757231042544,482.75030259999994,None,482.75030259999994,None,483.2173479999997,None,483.2173479999997,None,right,1.1437732000003962,483.2173479999997,None,484.4502064000003,None,left,0.10304770000038843,484.4502064000003,None,484.4502064000003,None,-5.078860498532658,150.77995204400273,,3,001,2021_Apr_07_1343,AB_pic_singleT2,2021.1.2,60.01493171501121,
AB,lag5,5,4,9,0.06000000005000003,0.02,0.3,main,,,,,0,64,64,64,,,,,,,lizard.jpg,mailbox02.jpg,lollipop04.jpg,horse.jpg,jackrabbit.jpg,bluejay.jpg,sausage.jpg,holdfast.jpg,paperairplane.jpg,frenchfries.jpg,leafblower01.jpg,microphone01.jpg,tulip02.jpg,skunk.jpg,cow.jpg,wheelbarrow01.jpg,pooltable.jpg,,,,,0,0,11,,,,,.\resources\paperairplane.jpg,,,1,,,,,,,,,1,,,,,,,,,None,489.0331970299997,None,489.0331970299997,None,,,,,,,484.6168601000004,487.36666079999986,487.1004380999998,None,0.04287808008962489,487.5999773999997,None,487.5999773999997,None,488.38325639999994,None,488.38325639999994,None,right,0.409836599999835,488.38325639999994,None,488.8832206000002,None,right,0.13387969999985216,488.8832206000002,None,488.8832206000002,None,-5.05406430362231,150.79064519432387,,3,001,2021_Apr_07_1343,AB_pic_singleT2,2021.1.2,60.01493171501121,
AB,lag4,4,3,7,0.06000000005000003,0.02,0.3,main,,,,,0,65,65,65,,,,,,,wallclock.jpg,snowshoe.jpg,bathtub.jpg,cow.jpg,mailbox02.jpg,doghouse.jpg,jellybean.jpg,ipad02.jpg,bacon.jpg,snowshovel.jpg,toolbox02.jpg,hotdogweiner.jpg,surfboard.jpg,tire.jpg,popcorn.jpg,mattress.jpg,steeringwheel.jpg,,,,,0,0,9,,,,,.\resources\jellybean.jpg,,,1,,,,,,,,,1,,,,,,,,,None,493.21622832999975,None,493.21622832999975,None,,,,,,,489.04985350000015,491.80005610000035,491.5167425000004,None,0.04271059823666456,492.0163005999998,None,492.0163005999998,None,492.6662620000002,None,492.6662620000002,None,right,0.35085849999995844,492.6662620000002,None,493.09956850000026,None,right,0.09352909999961412,493.09956850000026,None,493.09956850000026,None,-5.0295402376153735,150.80154994447219,,3,001,2021_Apr_07_1343,AB_pic_singleT2,2021.1.2,60.01493171501121,
AB,lag7,7,3,10,0.06000000005000003,0.02,0.3,main,,,,,0,66,66,66,,,,,,,wheelbarrow01.jpg,parachute.jpg,paperairplane.jpg,golfball.jpg,candycane01a.jpg,boat.jpg,christmastree.jpg,jellyfish.jpg,icecube02.jpg,polarbear.jpg,kiwi03.jpg,pumpkin.jpg,acorn.jpg,raccoon.jpg,banjo.jpg,bluecheese.jpg,sledgehammer.jpg,,,,,1,1,12,,,,,.\resources\polarbear.jpg,,,1,,,,,,,,,1,,,,,,,,,None,498.23253553000023,None,498.23253553000023,None,,,,,,,493.2328814999996,495.9831357999997,495.69977100000006,None,0.04254488499022516,496.19938330000014,None,496.19938330000014,None,497.03261410000005,None,497.03261410000005,None,left,1.01642560000073,497.03261410000005,None,498.1325294000003,None,left,0.08459299999958603,498.1325294000003,None,498.1325294000003,None,-5.0052823634002905,150.81265367878882,,3,001,2021_Apr_07_1343,AB_pic_singleT2,2021.1.2,60.01493171501121,
AB,lag2,2,3,5,0.06000000005000003,0.02,0.3,main,,,,,0,67,67,67,,,,,,,parrot01.jpg,snowboard.jpg,dartboard.jpg,curtain.jpg,chimney.jpg,baseballbat.jpg,zipper.jpg,hand01b.jpg,jellybean.jpg,birdhouse.jpg,birthdaycandle.jpg,pig.jpg,badmintonracket.jpg,xylophone.jpg,butterfly.jpg,volleyball.jpg,flamingo.jpg,,,,,0,0,7,,,,,.\resources\chimney.jpg,,,1,,,,,,,,,1,,,,,,,,,None,502.46554043000043,None,502.46554043000043,None,,,,,,,498.2492242000003,500.9993939000001,500.7327471000003,None,0.042380904841933235,501.2494021999996,None,501.2494021999996,None,501.76560440000003,None,501.76560440000003,None,right,0.49950489999991987,501.76560440000003,None,502.3488860000002,None,right,0.1002478999998857,502.3488860000002,None,502.3488860000002,None,-4.981282822441838,150.82394495771447,,3,001,2021_Apr_07_1343,AB_pic_singleT2,2021.1.2,60.01493171501121,
AB,lag6,6,4,10,0.06000000005000003,0.02,0.3,main,,,,,0,68,68,68,,,,,,,bacon.jpg,eye.jpg,ipad02.jpg,leafblower01.jpg,bumpercar.jpg,vulture.jpg,spicerack.jpg,lollipop04.jpg,toucan.jpg,panda.jpg,ant.jpg,dolphin01.jpg,jellybean.jpg,microphone01.jpg,porcupine.jpg,tire.jpg,skunk.jpg,,,,,1,0,12,,,,,.\resources\panda.jpg,,,1,,,,,,,,,1,,,,,,,,,None,508.6650941299998,None,508.6650941299998,None,,,,,,,502.4822159,505.2323792000002,504.9491038000001,None,0.042218609156171885,505.44917289999967,None,505.44917289999967,None,506.2823137999999,None,506.2823137999999,None,left,2.1667485999996643,506.2823137999999,None,508.5150996999996,None,right,0.1019971000005171,508.5150996999996,None,508.5150996999996,None,-4.95753427061302,150.83541334023587,,3,001,2021_Apr_07_1343,AB_pic_singleT2,2021.1.2,60.01493171501121,
AB,lag1,1,4,5,0.06000000005000003,0.02,0.3,main,,,,,0,69,69,69,,,,,,,tarantula.jpg,peacock.jpg,crosscountryski.jpg,tree.jpg,jeep.jpg,armadillo.jpg,mrpotatohead.jpg,urinal.jpg,electrictoothbrush01c.jpg,chimney.jpg,cobra.jpg,bowlingball.jpg,car.jpg,trophy01.jpg,cow.jpg,bowtie.jpg,xylophone.jpg,,,,,0,1,7,,,,,.\resources\jeep.jpg,,,1,,,,,,,,,0,,,,,,,,,None,514.2147503299996,None,514.2147503299996,None,,,,,,,508.6817513000001,511.4319465000003,511.16529149999997,None,0.0420579523816684,511.6648766000003,None,511.6648766000003,None,512.1818816999998,None,512.1818816999998,None,right,1.8352782000001753,512.1818816999998,None,514.1146956999996,None,right,0.07050079999953596,514.1146956999996,None,514.1146956999996,None,-4.934029901425925,150.84704930923164,,3,001,2021_Apr_07_1343,AB_pic_singleT2,2021.1.2,60.01493171501121,
AB,lag3,3,5,8,0.06000000005000003,0.02,0.3,main,,,,,0,70,70,70,,,,,,,snowshoe.jpg,key07.jpg,chainsaw.jpg,arrow02.jpg,lizard.jpg,basketball01.jpg,spiderweb.jpg,hand01b.jpg,cork02.jpg,makiroll.jpg,tie02.jpg,microwave.jpg,skateboard.jpg,ant.jpg,pooltable.jpg,duck01.jpg,humanskeleton.jpg,,,,,0,1,10,,,,,.\resources\hand01b.jpg,,,1,,,,,,,,,1,,,,,,,,,None,519.4809527299997,None,519.4809527299997,None,,,,,,,514.2313609999997,516.9815511000002,516.7149188999997,None,0.04189889223215333,517.2144899,None,517.2144899,None,517.9148493999996,None,517.9148493999996,None,right,1.2542608999992808,517.9148493999996,None,519.2476810000003,None,left,0.21739499999966938,519.2476810000003,None,519.2476810000003,None,-4.910763405279581,150.85884420530596,,3,001,2021_Apr_07_1343,AB_pic_singleT2,2021.1.2,60.01493171501121,
AB,lag4,4,3,7,0.06000000005000003,0.02,0.3,main,,,,,0,71,71,71,,,,,,,fireplace.jpg,vulture.jpg,trampoline.jpg,crab01.jpg,statue.jpg,moose.jpg,jeans01.jpg,ant.jpg,kneepad01c.jpg,showerhead01.jpg,golfball.jpg,fridge.jpg,spear02.jpg,polarbear.jpg,paperairplane.jpg,ladybug03.jpg,dartboard.jpg,,,,,0,0,9,,,,,.\resources\jeans01.jpg,,,1,,,,,,,,,1,,,,,,,,,None,523.74735033,None,523.74735033,None,,,,,,,519.4979933999998,522.2478120000001,521.9645322000001,None,0.041741389439718335,522.4640815999996,None,522.4640815999996,None,523.1144847999999,None,523.1144847999999,None,right,0.41456839999955264,523.1144847999999,None,523.5973539000001,None,right,0.12378110000008746,523.5973539000001,None,523.5973539000001,None,-4.887728930579305,150.870790165912,,3,001,2021_Apr_07_1343,AB_pic_singleT2,2021.1.2,60.01493171501121,
AB,lag1,1,3,4,0.06000000005000003,0.02,0.3,main,,,,,0,72,72,72,,,,,,,honeybee.jpg,foldingchair.jpg,frenchfries.jpg,magneticcompass.jpg,tortoise01.jpg,alligator.jpg,whiteout.jpg,englishcucumber.jpg,fridge.jpg,ant.jpg,stubbywrench01a.jpg,eyepatch.jpg,skunk.jpg,bowlingpin.jpg,shovel01.jpg,bull.jpg,cork02.jpg,,,,,0,0,6,,,,,.\resources\magneticcompass.jpg,,,1,,,,,,,,,1,,,,,,,,,None,527.8804189300001,None,527.8804189300001,None,,,,,,,523.7640139999999,526.5142085000002,526.2304907000002,None,0.04158540751857717,526.7304784000003,None,526.7304784000003,None,527.1808299999998,None,527.1808299999998,None,right,0.500204300000405,527.1808299999998,None,527.7470697000003,None,right,0.11007489999974496,527.7470697000003,None,527.7470697000003,None,-4.864921048206067,150.88288006919677,,3,001,2021_Apr_07_1343,AB_pic_singleT2,2021.1.2,60.01493171501121,
AB,lag2,2,3,5,0.06000000005000003,0.02,0.3,main,,,,,0,73,73,73,,,,,,,jackrabbit.jpg,corn02.jpg,steeringwheel.jpg,arrow02.jpg,triangle.jpg,lip.jpg,skateboard.jpg,tricycle.jpg,chimney.jpg,golfball.jpg,skunk.jpg,parkfountain.jpg,licenseplate.jpg,acorn.jpg,horseshoe.jpg,tennisracket.jpg,frenchfries.jpg,,,,,0,0,7,,,,,.\resources\triangle.jpg,,,1,,,,,,,,,1,,,,,,,,,None,532.0300970299998,None,532.0300970299998,None,,,,,,,527.8970617,530.6472484999999,530.3639447,None,0.041430912549250604,530.8635104999998,None,530.8635104999998,None,531.3801618000002,None,531.3801618000002,None,right,0.4369171999996979,531.3801618000002,None,531.8967791,None,right,0.10434689999965485,531.8967791,None,531.8967791,None,-4.842334719017436,150.8951074821117,,3,001,2021_Apr_07_1343,AB_pic_singleT2,2021.1.2,60.01493171501121,
AB,lag5,5,5,10,0.06000000005000003,0.02,0.3,main,,,,,0,74,74,74,,,,,,,sink.jpg,bacon.jpg,jackrabbit.jpg,spear02.jpg,daddylonglegs.jpg,lighthouse.jpg,noparkingsign.jpg,fridge.jpg,cigar.jpg,ostrich.jpg,bowlingball.jpg,vulture.jpg,dalmatian.jpg,firehydrant.jpg,dormer.jpg,punchingbag.jpg,zebra.jpg,,,,,1,0,12,,,,,.\resources\ostrich.jpg,,,1,,,,,,,,,1,,,,,,,,,None,537.5464132299996,None,537.5464132299996,None,,,,,,,532.0467783999998,534.7970877000002,534.5137589999999,None,0.041277872981241075,535.0132595999999,None,535.0132595999999,None,535.8298916999997,None,535.8298916999997,None,left,1.5231676999992487,535.8298916999997,None,537.4297503000003,None,right,0.09134050000011484,537.4297503000003,None,537.4297503000003,None,-4.819965264055472,150.90746661241204,,3,001,2021_Apr_07_1343,AB_pic_singleT2,2021.1.2,60.01493171501121,
AB,lag6,6,4,10,0.06000000005000003,0.02,0.3,main,,,,,0,75,75,75,,,,,,,ducttape.jpg,englishcucumber.jpg,ladder.jpg,slug.jpg,cobra.jpg,lightswitch01.jpg,table01.jpg,ironingboard01.jpg,sheep.jpg,discoball.jpg,chair.jpg,raccoon.jpg,tank.jpg,crown.jpg,swordfish.jpg,spiderweb.jpg,cork02.jpg,,,,,0,0,12,,,,,.\resources\discoball.jpg,,,1,,,,,,,,,1,,,,,,,,,None,542.1959990300004,None,542.1959990300004,None,,,,,,,537.5630727000002,540.3132270000001,540.0299448000001,None,0.04112625945219402,540.5295289000001,None,540.5295289000001,None,541.3461203000002,None,541.3461203000002,None,right,0.6629087000001164,541.3461203000002,None,542.0960405000001,None,right,0.08091509999940172,542.0960405000001,None,542.0960405000001,None,-4.797808337177327,150.91995226417825,,3,001,2021_Apr_07_1343,AB_pic_singleT2,2021.1.2,60.01493171501121,
AB,lag7,7,3,10,0.06000000005000003,0.02,0.3,main,,,,,0,76,76,76,,,,,,,curtain.jpg,skateboard.jpg,snowshovel.jpg,tulip02.jpg,callbell.jpg,locker.jpg,kneepad01c.jpg,beaver.jpg,firehydrant.jpg,parrot01.jpg,acousticguitar02.jpg,microphone01.jpg,crown.jpg,hotdogweiner.jpg,horseshoe.jpg,safe.jpg,snowman.jpg,,,,,0,1,12,,,,,.\resources\parrot01.jpg,,,1,,,,,,,,,0,,,,,,,,,None,546.6124278299997,None,546.6124278299997,None,,,,,,,542.2127138999999,544.9629212000004,544.6796062999997,None,0.04097604462180215,545.1791716000002,None,545.1791716000002,None,545.9961959999996,None,545.9961959999996,None,right,0.42891449999933684,545.9961959999996,None,546.5124563000004,None,right,0.08066910000070493,546.5124563000004,None,546.5124563000004,None,-4.775859899859628,150.93255979655234,,3,001,2021_Apr_07_1343,AB_pic_singleT2,2021.1.2,60.01493171501121,
AB,lag3,3,4,7,0.06000000005000003,0.02,0.3,main,,,,,0,77,77,77,,,,,,,dreamcatcher.jpg,greywolf.jpg,jeep.jpg,cloud.jpg,rooster.jpg,cigar.jpg,pingpongtable.jpg,dromedary.jpg,funnel.jpg,athleticsock.jpg,bed.jpg,tulip02.jpg,pooltable.jpg,uprightpiano01.jpg,horse.jpg,magneticcompass.jpg,spiderweb.jpg,,,,,1,0,9,,,,,.\resources\pingpongtable.jpg,,,0,,,,,,,,,1,,,,,,,,,None,551.0454231300002,None,551.0454231300002,None,,,,,,,546.6290805000003,549.3792798999998,549.0959318,None,0.04082720301892261,549.5956007,None,549.5956007,None,550.2292000000002,None,550.2292000000002,None,right,0.6118614999995771,550.2292000000002,None,550.9120687999998,None,right,0.11307769999984885,550.9120687999998,None,550.9120687999998,None,-4.86372903474211,150.94029327843506,,3,001,2021_Apr_07_1343,AB_pic_singleT2,2021.1.2,60.01493171501121,
AB,lag4,4,4,8,0.06000000005000003,0.02,0.3,main,,,,,0,78,78,78,,,,,,,frisbee.jpg,grizzly.jpg,microphone01.jpg,englishcucumber.jpg,uprightpiano01.jpg,hammerheadshark.jpg,rollerblade.jpg,zipper.jpg,tennisracket.jpg,bacon.jpg,lizard.jpg,callbell.jpg,fridge.jpg,footballhelmet.jpg,holdfast.jpg,skippingrope.jpg,zebra.jpg,,,,,0,0,10,,,,,.\resources\zipper.jpg,,,1,,,,,,,,,1,,,,,,,,,None,555.3783872300003,None,555.3783872300003,None,,,,,,,551.0620550999997,553.8121898000004,553.5289470000002,None,0.04140725620780906,554.0455681999997,None,554.0455681999997,None,554.7284758000001,None,554.7284758000001,None,right,0.44057169999996404,554.7284758000001,None,555.2450580999998,None,right,0.10799859999951877,555.2450580999998,None,555.2450580999998,None,-4.846574369564572,150.95227325694938,,3,001,2021_Apr_07_1343,AB_pic_singleT2,2021.1.2,60.01493171501121,
AB,lag5,5,3,8,0.06000000005000003,0.02,0.3,main,,,,,0,79,79,79,,,,,,,beaver.jpg,ear.jpg,tank.jpg,honeybee.jpg,nosmokingsign.jpg,drumset.jpg,parkingmeter.jpg,basketball01.jpg,bullet.jpg,bluecheese.jpg,bull.jpg,drumstick.jpg,crown.jpg,tree.jpg,sword01.jpg,lion.jpg,statue.jpg,,,,,0,0,10,,,,,.\resources\basketball01.jpg,,,1,,,,,,,,,1,,,,,,,,,None,559.6115027299995,None,559.6115027299995,None,,,,,,,555.3950449999998,558.1452510000004,557.8619548000001,None,0.041290327043137266,558.3615357000003,None,558.3615357000003,None,559.0618771000004,None,559.0618771000004,None,right,0.3471685000004072,559.0618771000004,None,559.4781359000003,None,right,0.10701309999967634,559.4781359000003,None,559.4781359000003,None,-4.826409429085144,150.96450135035144,,3,001,2021_Apr_07_1343,AB_pic_singleT2,2021.1.2,60.01493171501121,
AB,lag6,6,3,9,0.06000000005000003,0.02,0.3,main,,,,,0,80,80,80,,,,,,,ceilingfan01.jpg,tortoise01.jpg,ducttape.jpg,sink.jpg,turnstile.jpg,bed.jpg,saxophone.jpg,rose.jpg,daddylonglegs.jpg,basketball01.jpg,cruiseship.jpg,worldmap.jpg,pig.jpg,squid.jpg,harmonica.jpg,foosballtable.jpg,africanelephant.jpg,,,,,0,0,11,,,,,.\resources\daddylonglegs.jpg,,,1,,,,,,,,,1,,,,,,,,,None,563.9111696299999,None,563.9111696299999,None,,,,,,,559.6281376000002,562.3782980999999,562.1116663999996,None,0.04115340848102349,562.6112497999998,None,562.6112497999998,None,563.3778282999997,None,563.3778282999997,None,right,0.32721159999982774,563.3778282999997,None,563.7778117000003,None,right,0.10321849999945698,563.7778117000003,None,563.7778117000003,None,-4.806323713388906,150.97685153701312,,3,001,2021_Apr_07_1343,AB_pic_singleT2,2021.1.2,60.01493171501121,
AB,lag3,3,5,8,0.06000000005000003,0.02,0.3,main,,,,,0,81,81,81,,,,,,,bowtie.jpg,spear02.jpg,wheelbarrow01.jpg,lily.jpg,skunk.jpg,chainsaw.jpg,drumset.jpg,donut.jpg,fishingrod.jpg,safe.jpg,tennisracket.jpg,waterfall.jpg,ducttape.jpg,marble.jpg,bullet.jpg,coffeemaker.jpg,badmintonracket.jpg,,,,,0,1,10,,,,,.\resources\donut.jpg,,,1,,,,,,,,,1,,,,,,,,,None,568.5941627300001,None,568.5941627300001,None,,,,,,,563.9278233999999,566.6780286999997,566.3946965999999,None,0.04101700367616044,566.894272,None,566.894272,None,567.5775380999999,None,567.5775380999999,None,right,0.8395276999999624,567.5775380999999,None,568.4941427999997,None,left,0.07490659999984928,568.4941427999997,None,568.4941427999997,None,-4.7864067874692795,150.9893158280417,,3,001,2021_Apr_07_1343,AB_pic_singleT2,2021.1.2,60.01493171501121,
AB,lag7,7,5,12,0.06000000005000003,0.02,0.3,main,,,,,0,82,82,82,,,,,,,hand01b.jpg,snowshoe.jpg,parachute.jpg,squid.jpg,frisbee.jpg,hulahoop.jpg,smokingpipe.jpg,dromedary.jpg,stool01.jpg,candycane01a.jpg,worldmap.jpg,seagull.jpg,table01.jpg,uprightpiano01.jpg,skunk.jpg,hockeystick.jpg,hammerheadshark.jpg,,,,,0,1,14,,,,,.\resources\seagull.jpg,,,1,,,,,,,,,1,,,,,,,,,None,573.6271263299998,None,573.6271263299998,None,,,,,,,568.6107711,571.3609832999996,571.0776762999999,None,0.040881708184035484,571.5772318000004,None,571.5772318000004,None,572.5105227999998,None,572.5105227999998,None,right,0.7706075999994937,572.5105227999998,None,573.3604713,None,left,0.24057689999972354,573.3604713,None,573.3604713,None,-4.766658540481446,151.00189017588568,,3,001,2021_Apr_07_1343,AB_pic_singleT2,2021.1.2,60.01493171501121,
AB,lag1,1,3,4,0.06000000005000003,0.02,0.3,main,,,,,0,83,83,83,,,,,,,escalator.jpg,chimney.jpg,lighthouse.jpg,athleticsock.jpg,crosscountryski.jpg,table01.jpg,trophy01.jpg,pigeon.jpg,beaver.jpg,bathtub.jpg,windshieldwiper02.jpg,magneticcompass.jpg,crown.jpg,smokingpipe.jpg,worldmap.jpg,baseballbat.jpg,wheelchair.jpg,,,,,0,1,6,,,,,.\resources\athleticsock.jpg,,,1,,,,,,,,,1,,,,,,,,,None,578.2434792300003,None,578.2434792300003,None,,,,,,,573.6437106999997,576.3939016999998,576.1106660999999,None,0.040747522394815265,576.6102355999997,None,576.6102355999997,None,577.0605994000002,None,577.0605994000002,None,right,0.9564448000000993,577.0605994000002,None,578.0935080000004,None,left,0.13165680000020075,578.0935080000004,None,578.0935080000004,None,-4.747076313076582,151.01457103904903,,3,001,2021_Apr_07_1343,AB_pic_singleT2,2021.1.2,60.01493171501121,
AB,lag2,2,3,5,0.06000000005000003,0.02,0.3,main,,,,,0,84,84,84,,,,,,,sausage.jpg,triangle.jpg,spicerack.jpg,apron.jpg,jackrabbit.jpg,toad.jpg,rollerblade.jpg,bumpercar.jpg,squirrel.jpg,zipper.jpg,acorn.jpg,alligator.jpg,hockeypuck.jpg,crab01.jpg,icecube02.jpg,cheetah.jpg,jellybean.jpg,,,,,0,0,7,,,,,.\resources\jackrabbit.jpg,,,1,,,,,,,,,1,,,,,,,,,None,582.3931998299997,None,582.3931998299997,None,,,,,,,578.2601756999998,581.0104061999996,580.7270830000002,None,0.0406144296672572,581.2266317999997,None,581.2266317999997,None,581.7432985,None,581.7432985,None,right,0.4497613999992609,581.7432985,None,582.2598688000003,None,right,0.1092372000002797,582.2598688000003,None,582.2598688000003,None,-4.727657537437301,151.02735525316731,,3,001,2021_Apr_07_1343,AB_pic_singleT2,2021.1.2,60.01493171501121,
AB,lag1,1,4,5,0.06000000005000003,0.02,0.3,main,,,,,0,85,85,85,,,,,,,smokingpipe.jpg,platypus.jpg,skateboard.jpg,musicsheet.jpg,athleticsock.jpg,rollerblade.jpg,bow.jpg,safe.jpg,porcupine.jpg,parrot01.jpg,penguin.jpg,trophy01.jpg,ironingboard01.jpg,flamingo.jpg,xylophone.jpg,cruiseship.jpg,tulip02.jpg,,,,,0,0,7,,,,,.\resources\athleticsock.jpg,,,1,,,,,,,,,1,,,,,,,,,None,587.1595264299997,None,587.1595264299997,None,,,,,,,582.4098624000003,585.1600528000004,584.8767433999997,None,0.04048241385349275,585.376299,None,585.376299,None,585.8929395999999,None,585.8929395999999,None,right,1.0682430999995631,585.8929395999999,None,587.0428397999999,None,right,0.08620749999954569,587.0428397999999,None,587.0428397999999,None,-4.7083998073398,151.04024000401333,,3,001,2021_Apr_07_1343,AB_pic_singleT2,2021.1.2,60.01493171501121,
AB,lag5,5,4,9,0.06000000005000003,0.02,0.3,main,,,,,0,86,86,86,,,,,,,church.jpg,penguin.jpg,parkfountain.jpg,vacuumcleaner01.jpg,microwave.jpg,greatwhiteshark.jpg,horseshoe.jpg,leafblower01.jpg,fridge.jpg,christmastree.jpg,sword01.jpg,tank.jpg,apron.jpg,icecube02.jpg,fingerprint.jpg,jellybean.jpg,pumpkin.jpg,,,,,1,0,11,,,,,.\resources\fridge.jpg,,,0,,,,,,,,,1,,,,,,,,,None,592.5091374300002,None,592.5091374300002,None,,,,,,,587.1761762000001,589.9263759,589.6597334000003,None,0.040351459771897524,590.1763665000003,None,590.1763665000003,None,590.9092321000003,None,590.9092321000003,None,right,1.3958725000002232,590.9092321000003,None,592.3758033999998,None,right,0.10523330000069109,592.3758033999998,None,592.3758033999998,None,-4.786533763206919,151.04886661125028,,3,001,2021_Apr_07_1343,AB_pic_singleT2,2021.1.2,60.01493171501121,
AB,lag7,7,4,11,0.06000000005000003,0.02,0.3,main,,,,,0,87,87,87,,,,,,,sheep.jpg,badmintonracket.jpg,christmastree.jpg,saltshaker03a.jpg,banjo.jpg,fishskeleton.jpg,jeep.jpg,rubikcube.jpg,bridge.jpg,wheelchair.jpg,bowlingball.jpg,nose.jpg,holdfast.jpg,kiwi03.jpg,mummy.jpg,humanskeleton.jpg,dreamcatcher.jpg,,,,,0,0,13,,,,,.\resources\bowlingball.jpg,,,1,,,,,,,,,1,,,,,,,,,None,597.67543073,None,597.67543073,None,,,,,,,592.5258005999999,595.2759897000001,595.0093367000004,None,0.04086643126037896,595.5255718000003,None,595.5255718000003,None,596.3921759,None,596.3921759,None,right,1.0969284000002517,596.3921759,None,597.5754263000003,None,right,0.08161250000011933,597.5754263000003,None,597.5754263000003,None,-4.771293805347645,151.06122514082088,,3,001,2021_Apr_07_1343,AB_pic_singleT2,2021.1.2,60.01493171501121,
AB,lag4,4,3,7,0.06000000005000003,0.02,0.3,main,,,,,0,88,88,88,,,,,,,butterfly.jpg,bed.jpg,swing.jpg,lollipop04.jpg,knee.jpg,pokerchips.jpg,safe.jpg,granolabar01.jpg,platypus.jpg,pig.jpg,grizzly.jpg,dandelion.jpg,cork02.jpg,crosscountryski.jpg,motorcycle.jpg,horseshoe.jpg,bullet.jpg,,,,,0,1,9,,,,,.\resources\safe.jpg,,,1,,,,,,,,,1,,,,,,,,,None,602.4250865300003,None,602.4250865300003,None,,,,,,,597.6921008000004,600.4423018000002,600.1589792,None,0.04076220195306483,600.6756167999997,None,600.6756167999997,None,601.2919559999996,None,601.2919559999996,None,right,0.9330596999998306,601.2919559999996,None,602.2917871000004,None,left,0.10143770000013319,602.2917871000004,None,602.2917871000004,None,-4.753447915254483,151.0737918331319,,3,001,2021_Apr_07_1343,AB_pic_singleT2,2021.1.2,60.01493171501121,
AB,lag6,6,4,10,0.06000000005000003,0.02,0.3,main,,,,,0,89,89,89,,,,,,,leafblower01.jpg,cannon.jpg,tank.jpg,cross01.jpg,church.jpg,seagull.jpg,birdhouse.jpg,guitarcase.jpg,spear02.jpg,masquerademask01.jpg,ducttape.jpg,redfox.jpg,cheetah.jpg,tree.jpg,bull.jpg,rollerblade.jpg,toad.jpg,,,,,1,0,12,,,,,.\resources\masquerademask01.jpg,,,0,,,,,,,,,1,,,,,,,,,None,607.7913505299996,None,607.7913505299996,None,,,,,,,602.4417497,605.1919461000002,604.9253022999997,None,0.04064068427670107,605.4248703999997,None,605.4248703999997,None,606.2414740999998,None,606.2414740999998,None,right,1.2796626999997898,606.2414740999998,None,607.6080187000002,None,right,0.13717699999961042,607.6080187000002,None,607.6080187000002,None,-4.826642708325512,151.08231860025694,,3,001,2021_Apr_07_1343,AB_pic_singleT2,2021.1.2,60.01493171501121,
AB,lag3,3,3,6,0.06000000005000003,0.02,0.3,main,,,,,0,90,90,90,,,,,,,jeep.jpg,eyepatch.jpg,trampoline.jpg,flamingo.jpg,bacon.jpg,pooltable.jpg,harmonica.jpg,redfox.jpg,bat.jpg,discoball.jpg,funnel.jpg,cannon.jpg,birdnest.jpg,dreamcatcher.jpg,steeringwheel.jpg,jellybean.jpg,bumpercar.jpg,,,,,1,0,8,,,,,.\resources\pooltable.jpg,,,1,,,,,,,,,1,,,,,,,,,None,614.50752493,None,614.50752493,None,,,,,,,607.8080096999997,610.5582284999996,610.2915437999995,None,0.04112286021956004,610.7911213000002,None,610.7911213000002,None,611.3744271,None,611.3744271,None,left,2.874698599999647,611.3744271,None,614.3242044000003,None,right,0.16482939999968949,614.3242044000003,None,614.3242044000003,None,-4.812085408490907,151.0943763429518,,3,001,2021_Apr_07_1343,AB_pic_singleT2,2021.1.2,60.01493171501121,
AB,lag2,2,3,5,0.06000000005000003,0.02,0.3,main,,,,,0,91,91,91,,,,,,,dreamcatcher.jpg,helicopter.jpg,tree.jpg,arrow02.jpg,lily.jpg,cork02.jpg,soccerball.jpg,seagull.jpg,kite.jpg,jellyfish.jpg,duck01.jpg,xylophone.jpg,lawnmower.jpg,saltshaker03a.jpg,hand01b.jpg,musicsheet.jpg,cruiseship.jpg,,,,,1,1,7,,,,,.\resources\lily.jpg,,,1,,,,,,,,,0,,,,,,,,,None,619.5238367300001,None,619.5238367300001,None,,,,,,,614.5241846000004,617.2743796,616.9910587999998,None,0.04102323276110427,617.4906403,None,617.4906403,None,618.0076524000001,None,618.0076524000001,None,left,1.3055175999998028,618.0076524000001,None,619.3905059000003,None,right,0.11452929999995831,619.3905059000003,None,619.3905059000003,None,-4.7953712021556925,151.10662608177168,,3,001,2021_Apr_07_1343,AB_pic_singleT2,2021.1.2,60.01493171501121,
AB,lag4,4,4,8,0.06000000005000003,0.02,0.3,main,,,,,0,92,92,92,,,,,,,anchor.jpg,africanelephant.jpg,foosballtable.jpg,arrow02.jpg,lizard.jpg,bat.jpg,swing.jpg,tricycle.jpg,table01.jpg,ladybug03.jpg,barrel01.jpg,steeringwheel.jpg,lighthouse.jpg,handcuffs.jpg,dalmatian.jpg,accordion01.jpg,nunchuk.jpg,,,,,0,0,10,,,,,.\resources\tricycle.jpg,,,1,,,,,,,,,1,,,,,,,,,None,624.04020943,None,624.04020943,None,,,,,,,619.5404938999995,622.2906802000002,622.0073632999997,None,0.04090929513527992,622.5069626,None,622.5069626,None,623.2072801999998,None,623.2072801999998,None,right,0.6258045999993556,623.2072801999998,None,623.9235203000003,None,right,0.09360600000036357,623.9235203000003,None,623.9235203000003,None,-4.778719267383383,151.11897769519024,,3,001,2021_Apr_07_1343,AB_pic_singleT2,2021.1.2,60.01493171501121,
AB,lag7,7,4,11,0.06000000005000003,0.02,0.3,main,,,,,0,93,93,93,,,,,,,soccerball.jpg,humanskeleton.jpg,cobra.jpg,peacock.jpg,cloud.jpg,lizard.jpg,makiroll.jpg,turnstile.jpg,pokerchips.jpg,ant.jpg,icecube02.jpg,chefshat.jpg,musicsheet.jpg,foot.jpg,trophy01.jpg,cat.jpg,skateboard.jpg,,,,,0,0,13,,,,,.\resources\icecube02.jpg,,,1,,,,,,,,,1,,,,,,,,,None,628.4899005299997,None,628.4899005299997,None,,,,,,,624.0568457000004,626.8070656000004,626.5404282000004,None,0.0407957605492688,627.0399857999996,None,627.0399857999996,None,627.9232558999997,None,627.9232558999997,None,right,0.3578079999997499,627.9232558999997,None,628.3565870999996,None,right,0.09255269999994198,628.3565870999996,None,628.3565870999996,None,-4.762185030176931,151.13142573548996,,3,001,2021_Apr_07_1343,AB_pic_singleT2,2021.1.2,60.01493171501121,
AB,lag1,1,5,6,0.06000000005000003,0.02,0.3,main,,,,,0,94,94,94,,,,,,,seagull.jpg,mrpotatohead.jpg,kneepad01c.jpg,kiwi03.jpg,coffeemaker.jpg,dreamcatcher.jpg,flamingo.jpg,mummy.jpg,polarbear.jpg,pumpkin.jpg,lollipop04.jpg,jellybean.jpg,baseballbat.jpg,lion.jpg,armadillo.jpg,jackrabbit.jpg,saxophone.jpg,,,,,1,0,8,,,,,.\resources\dreamcatcher.jpg,,,0,,,,,,,,,1,,,,,,,,,None,632.7562737299997,None,632.7562737299997,None,,,,,,,628.5065553999998,631.2568059999999,630.9901593,None,0.04068299734072438,631.4897440999998,None,631.4897440999998,None,632.0563203999995,None,632.0563203999995,None,right,0.4967947999994067,632.0563203999995,None,632.6562755999998,None,right,0.07280309999987367,632.6562755999998,None,632.6562755999998,None,-4.83016132040206,151.1401076150472,,3,001,2021_Apr_07_1343,AB_pic_singleT2,2021.1.2,60.01493171501121,
AB,lag5,5,4,9,0.06000000005000003,0.02,0.3,main,,,,,0,95,95,95,,,,,,,knee.jpg,doghouse.jpg,cork02.jpg,bowtie.jpg,donut.jpg,frisbee.jpg,parkfountain.jpg,locker.jpg,eiffeltower.jpg,sword01.jpg,swordfish.jpg,waterfall.jpg,rubikcube.jpg,coffeemaker.jpg,windshieldwiper02.jpg,telescope.jpg,boxingglove01.jpg,,,,,0,0,11,,,,,.\resources\eiffeltower.jpg,,,0,,,,,,,,,1,,,,,,,,,None,639.1396037300003,None,639.1396037300003,None,,,,,,,632.7729457,635.5227728000004,635.2561185999998,None,0.04113041719776474,635.7560875000004,None,635.7560875000004,None,636.5227066000002,None,636.5227066000002,None,left,2.4143963000005897,636.5227066000002,None,639.0395881,None,right,0.057560799999919254,639.0395881,None,639.0395881,None,-4.897137802124446,151.14829795215462,,3,001,2021_Apr_07_1343,AB_pic_singleT2,2021.1.2,60.01493171501121,
AB,lag2,2,5,7,0.06000000005000003,0.02,0.3,main,,,,,0,96,96,96,,,,,,,platypus.jpg,whiteout.jpg,toyanimal05.jpg,mummy.jpg,ducttape.jpg,bat.jpg,sledgehammer.jpg,sword01.jpg,kite.jpg,treadmill.jpg,electricguitar01.jpg,football.jpg,zipper.jpg,fishingrod.jpg,bed.jpg,parachute.jpg,spicerack.jpg,,,,,0,0,9,,,,,.\resources\sledgehammer.jpg,,,1,,,,,,,,,1,,,,,,,,,None,643.6055045300002,None,643.6055045300002,None,,,,,,,639.1562336000002,641.9056222000004,641.6389781000003,None,0.04157130611707802,642.1556093000004,None,642.1556093000004,None,642.7888893000004,None,642.7888893000004,None,right,0.6042600999999195,642.7888893000004,None,643.4721728999998,None,right,0.09692059999997582,643.4721728999998,None,643.4721728999998,None,-4.883877501305461,151.15975309220144,,3,001,2021_Apr_07_1343,AB_pic_singleT2,2021.1.2,60.01493171501121,
AB,lag6,6,3,9,0.06000000005000003,0.02,0.3,main,,,,,0,97,97,97,,,,,,,windshieldwiper02.jpg,bow.jpg,squid.jpg,moose.jpg,fishingrod.jpg,apron.jpg,pingpongtable.jpg,windmill.jpg,seagull.jpg,toad.jpg,crab01.jpg,church.jpg,saxophone.jpg,golfball.jpg,baseballbat.jpg,electrictoothbrush01c.jpg,microwave.jpg,,,,,1,0,11,,,,,.\resources\seagull.jpg,,,0,,,,,,,,,1,,,,,,,,,None,648.2051783299996,None,648.2051783299996,None,,,,,,,643.6221639999999,646.3719801000002,646.1053201999998,None,0.04148043202082234,646.6052830000003,None,646.6052830000003,None,647.3719059,None,647.3719059,None,right,0.6212027999999918,647.3719059,None,648.0885291999998,None,right,0.08854150000024674,648.0885291999998,None,648.0885291999998,None,-4.94578119058264,151.16770723631078,,3,001,2021_Apr_07_1343,AB_pic_singleT2,2021.1.2,60.01493171501121,
AB,lag3,3,3,6,0.06000000005000003,0.02,0.3,main,,,,,0,98,98,98,,,,,,,well.jpg,holdfast.jpg,granolabar01.jpg,beerbottle.jpg,waterfountain02.jpg,trampoline.jpg,parrot01.jpg,cheetah.jpg,musicsheet.jpg,seal.jpg,hotdogweiner.jpg,bacon.jpg,pumpkin.jpg,turnstile.jpg,car.jpg,armadillo.jpg,fortunecookie.jpg,,,,,0,0,8,,,,,.\resources\trampoline.jpg,,,1,,,,,,,,,1,,,,,,,,,None,652.3715411300002,None,652.3715411300002,None,,,,,,,648.2218336000001,650.9716419000001,650.7049854000002,None,0.041887752797652764,651.2049566999999,None,651.2049566999999,None,651.7882568999999,None,651.7882568999999,None,right,0.3727990999996109,651.7882568999999,None,652.2382140000004,None,right,0.1148124999999709,652.2382140000004,None,652.2382140000004,None,-4.93293355130325,151.17873147137104,,3,001,2021_Apr_07_1343,AB_pic_singleT2,2021.1.2,60.01493171501121,
AB,lag1,1,3,4,0.06000000005000003,0.02,0.3,main,,,,,0,99,99,99,,,,,,,pigeon.jpg,table01.jpg,tent.jpg,toucan.jpg,tree.jpg,tennisracket.jpg,beerbottle.jpg,windshieldwiper02.jpg,snowboard.jpg,boxingglove01.jpg,chainsaw.jpg,makiroll.jpg,shovel01.jpg,bat.jpg,birdhouse.jpg,windmill.jpg,cymbal.jpg,,,,,0,0,6,,,,,.\resources\toucan.jpg,,,1,,,,,,,,,1,,,,,,,,,None,656.5212226300002,None,656.5212226300002,None,,,,,,,652.3882126000003,655.1380432999999,654.8713658000001,None,0.04179971515120051,655.3713212999996,None,655.3713212999996,None,655.8379566999997,None,655.8379566999997,None,right,0.4831709999998566,655.8379566999997,None,656.4046039999998,None,right,0.09244720000060624,656.4046039999998,None,656.4046039999998,None,-4.918793743983432,151.1899234726861,,3,001,2021_Apr_07_1343,AB_pic_singleT2,2021.1.2,60.01493171501121,
AB,lag2,2,4,6,0.06000000005000003,0.02,0.3,main,,,,,0,100,100,100,,,,,,,jellybean.jpg,bench01.jpg,eyepatch.jpg,ear.jpg,barrel01.jpg,candycane01a.jpg,daddylonglegs.jpg,eiffeltower.jpg,dandelion.jpg,squid.jpg,seagull.jpg,porcupine.jpg,punchingbag.jpg,horseshoe.jpg,raccoon.jpg,duck01.jpg,microwave.jpg,,,,,1,0,8,,,,,.\resources\candycane01a.jpg,,,1,,,,,,,,,1,,,,,,,,,None,662.1208279300001,None,662.1208279300001,None,,,,,,,656.5378801000002,659.2880851000004,659.0047768,None,0.041703097404122945,659.5043798000002,None,659.5043798000002,None,660.0876289000003,None,660.0876289000003,None,left,1.825496500000554,660.0876289000003,None,661.9874893000001,None,right,0.0937155999999959,661.9874893000001,None,661.9874893000001,None,-4.904717186175304,151.2012253112976,,3,001,2021_Apr_07_1343,AB_pic_singleT2,2021.1.2,60.01493171501121,
AB,lag3,3,5,8,0.06000000005000003,0.02,0.3,main,,,,,0,101,101,101,,,,,,,waterfountain02.jpg,parachute.jpg,parrot01.jpg,hammerheadshark.jpg,parkfountain.jpg,tulip02.jpg,pig.jpg,hand01b.jpg,tennisracket.jpg,squirrel.jpg,tree.jpg,table01.jpg,statue.jpg,elbow.jpg,lily.jpg,parkingmeter.jpg,curtain.jpg,,,,,0,0,10,,,,,.\resources\hand01b.jpg,,,1,,,,,,,,,1,,,,,,,,,None,666.70382163,None,666.70382163,None,,,,,,,662.1374973999996,664.8876859999996,664.6210348999998,None,0.04160688204968625,665.1205974999998,None,665.1205974999998,None,665.8205478000004,None,665.8205478000004,None,right,0.6686591000006956,665.8205478000004,None,666.5705204000001,None,right,0.10257650000039575,666.5705204000001,None,666.5705204000001,None,-4.890727445753379,151.2126318869312,,3,001,2021_Apr_07_1343,AB_pic_singleT2,2021.1.2,60.01493171501121,
AB,lag5,5,3,8,0.06000000005000003,0.02,0.3,main,,,,,0,102,102,102,,,,,,,squirrel.jpg,cork02.jpg,bluejay.jpg,slug.jpg,guitarcase.jpg,vacuumcleaner01.jpg,accordion01.jpg,tiger02.jpg,dromedary.jpg,fridge.jpg,parachute.jpg,church.jpg,butterfly.jpg,triangle.jpg,snowshovel.jpg,football.jpg,jeep.jpg,,,,,1,0,10,,,,,.\resources\tiger02.jpg,,,1,,,,,,,,,1,,,,,,,,,None,671.5368194300002,None,671.5368194300002,None,,,,,,,666.7204856000003,669.4702905999998,669.1873754000003,None,0.041511226466628096,669.6869551000004,None,669.6869551000004,None,670.3868968000002,None,670.3868968000002,None,left,0.8543466999999509,670.3868968000002,None,671.3201668999995,None,right,0.20097890000033658,671.3201668999995,None,671.3201668999995,None,-4.8768235843231285,151.22413930756602,,3,001,2021_Apr_07_1343,AB_pic_singleT2,2021.1.2,60.01493171501121,
AB,lag6,6,5,11,0.06000000005000003,0.02,0.3,main,,,,,0,103,103,103,,,,,,,moon.jpg,accordion01.jpg,lily.jpg,horse.jpg,chimney.jpg,duck01.jpg,golfball.jpg,knee.jpg,barrel01.jpg,lollipop04.jpg,fishingrod.jpg,pirateflag.jpg,statue.jpg,skunk.jpg,spiderweb.jpg,floorlamp.jpg,trumpet.jpg,,,,,0,0,13,,,,,.\resources\fishingrod.jpg,,,1,,,,,,,,,1,,,,,,,,,None,676.1364651300003,None,676.1364651300003,None,,,,,,,671.5534828000004,674.3033246,674.0370292000002,None,0.041416125587627424,674.5366021000004,None,674.5366021000004,None,675.4198707999999,None,675.4198707999999,None,right,0.5092273999998724,675.4198707999999,None,676.0198481000002,None,right,0.09319529999993392,676.0198481000002,None,676.0198481000002,None,-4.8630042668944915,151.23574392717404,,3,001,2021_Apr_07_1343,AB_pic_singleT2,2021.1.2,60.01493171501121,
