trialType,cndTyp,lag,T1_loc,T2_loc,stimLen,isi,skipProb,phase,trials.thisRepN,trials.thisTrialN,trials.thisN,trials.thisIndex,trials2.thisRepN,trials2.thisTrialN,trials2.thisN,trials2.thisIndex,key_resp_4.keys,key_resp_4.rt,key_resp_4.started,key_resp_4.stopped,textbox.started,textbox.stopped,img0,img1,img2,img3,img4,img5,img6,img7,img8,img9,img10,img11,img12,img13,img14,img15,img16,option1.started,option1.stopped,text_2.started,text_2.stopped,skip1,skip2,lastPresent,displayPicture.started,displayPicture.stopped,polygon_2.started,polygon_2.stopped,opt1_t1,polygon_4.started,polygon_4.stopped,cor1,option1_t1.started,option1_t1.stopped,key_resp.keys,key_resp.rt,key_resp.started,key_resp.stopped,polygon_5.started,polygon_5.stopped,cor2,key_resp_2.keys,key_resp_2.rt,key_resp_2.started,key_resp_2.stopped,textbox_2.started,textbox_2.stopped,textbox_3.started,textbox_3.stopped,key_resp_3.keys,key_resp_3.started,key_resp_3.stopped,textbox_6.started,textbox_6.stopped,key_resp_7.keys,key_resp_7.rt,key_resp_7.started,key_resp_7.stopped,textbox_4.started,textbox_4.stopped,option1_3.started,option1_3.stopped,text_7.started,text_7.stopped,curStimTim,displayPicture_4.started,displayPicture_4.stopped,polygon_16.started,polygon_16.stopped,polygon_7.started,polygon_7.stopped,option1_t1_2.started,option1_t1_2.stopped,key_resp_6.keys,key_resp_6.rt,key_resp_6.started,key_resp_6.stopped,polygon_17.started,polygon_17.stopped,key_resp_8.keys,key_resp_8.rt,key_resp_8.started,key_resp_8.stopped,textbox_5.started,textbox_5.stopped,B0,B1,key_resp_3.rt,participant,session,date,expName,psychopyVersion,frameRate,
,,,,,,,,,,,,,,,,,space,65.84421970000017,11.354834600000004,None,,,,,,,,,,,,,,,,,,,,,,,,,,,,,,,,,,,,,,,,,,,,,,,,,,,,,,,,,,,,,,,,,,,,,,,,,,,,,,,,,,,,,,,,,,,4,001,2021_Apr_08_1301,AB_pic_singleT2,2021.1.2,60.00772899551331,
AB,lag3,3,5,8,0.2,0.05,0.5,,0,0,0,10,,,,,,,,,11.354834600000004,None,sledgehammer.jpg,noparkingsign.jpg,cloud.jpg,nunchuk.jpg,callbell.jpg,harmonica.jpg,spiderweb.jpg,golfball.jpg,horseshoe.jpg,chainsaw.jpg,ear.jpg,dromedary.jpg,kangaroo.jpg,football.jpg,snowshoe.jpg,porcupine.jpg,pig.jpg,77.26117799999997,80.01052170000025,79.74387690000026,None,1,1,10,80.26050110000028,None,80.26050110000028,None,.\resources\golfball.jpg,83.01030070000002,None,0,83.01030070000002,None,right,1.8928129000000808,83.01030070000002,None,84.94396570000004,None,1,left,4.8232772999999725,84.94396570000004,None,84.94396570000004,None,89.8269115999999,None,None,90.82654433999997,None,90.82654433999997,None,,,,,,,,,,,,,,,,,,,,,,,,,,,,,,,,,,,4,001,2021_Apr_08_1301,AB_pic_singleT2,2021.1.2,60.00772899551331,
AB,lag1,1,4,5,0.2,0.05,0.5,,0,1,1,12,,,,,,,,,,,noparkingsign.jpg,lion.jpg,ironingboard01.jpg,telescope.jpg,bluecheese.jpg,magneticcompass.jpg,punchingbag.jpg,parrot01.jpg,holdfast.jpg,fridge.jpg,daddylonglegs.jpg,toyanimal05.jpg,penguin.jpg,jeep.jpg,greathornowl.jpg,bullet.jpg,lighthouse.jpg,90.84350569999992,93.59285990000012,93.30957540000031,None,0,1,7,93.82617929999992,None,93.82617929999992,None,.\resources\bluecheese.jpg,95.8260287999999,None,1,95.8260287999999,None,right,1.8770551999996314,95.8260287999999,None,97.75971060000006,None,1,left,1.3753717999998116,97.75971060000006,None,97.75971060000006,None,99.19290210000031,None,None,100.1920885399999,None,100.1920885399999,None,,,,,,,,,,,,,,,,,,,,,,,,,,,,,,,,,,,4,001,2021_Apr_08_1301,AB_pic_singleT2,2021.1.2,60.00772899551331,
AB,lag5,5,4,9,0.2,0.05,0.5,,0,2,2,6,,,,,,,,,,,showerhead01.jpg,birdhouse.jpg,jackrabbit.jpg,sword01.jpg,funnel.jpg,vacuumcleaner01.jpg,golfball.jpg,firehydrant.jpg,tank.jpg,fingerprint.jpg,cocktailshrimp02.jpg,cobra.jpg,bench01.jpg,tulip02.jpg,jeep.jpg,cloud.jpg,foosballtable.jpg,100.20949510000014,102.95889060000013,102.67553330000032,None,0,0,11,103.1921662000002,None,103.1921662000002,None,.\resources\tank.jpg,106.19194100000027,None,1,106.19194100000027,None,right,1.4790671999999176,106.19194100000027,None,107.72561130000008,None,0,left,1.5055250999998862,107.72561130000008,None,107.72561130000008,None,109.29217790000007,None,None,110.29179024000032,None,110.29179024000032,None,,,,,,,,,,,,,,,,,,,,,,,,,,,,,,,,,,,4,001,2021_Apr_08_1301,AB_pic_singleT2,2021.1.2,60.00772899551331,
AB,lag4,4,4,8,0.2,0.05,0.5,,0,3,3,13,,,,,,,,,,,pingpongtable.jpg,crown.jpg,ironingboard01.jpg,crab01.jpg,chimney.jpg,redfox.jpg,flamingo.jpg,airhockeytable.jpg,windshieldwiper02.jpg,badmintonracket.jpg,hockeypuck.jpg,tulip02.jpg,seagull.jpg,flag.jpg,parrot01.jpg,fireplace.jpg,bridge.jpg,110.30875410000021,113.05810489999999,112.7748296000002,None,0,1,10,113.27476450000017,None,113.27476450000017,None,.\resources\airhockeytable.jpg,116.04119910000031,None,1,116.04119910000031,None,right,1.2618762999995852,116.04119910000031,None,117.35819070000002,None,1,left,1.0648216999998112,117.35819070000002,None,117.35819070000002,None,118.45811890000027,None,None,119.45774634,None,119.45774634,None,,,,,,,,,,,,,,,,,,,,,,,,,,,,,,,,,,,4,001,2021_Apr_08_1301,AB_pic_singleT2,2021.1.2,60.00772899551331,
AB,lag2,2,3,5,0.2,0.05,0.5,,0,4,4,4,,,,,,,,,,,skunk.jpg,duck01.jpg,chainsaw.jpg,lollipop04.jpg,seal.jpg,sheep.jpg,ironingboard01.jpg,flag.jpg,statue.jpg,bowtie.jpg,tent.jpg,foot.jpg,moose.jpg,popcorn.jpg,englishcucumber.jpg,dreamcatcher.jpg,birthdaycandle.jpg,119.47471070000006,122.22412640000016,121.94076719999998,None,1,1,7,122.45739590000017,None,122.45739590000017,None,.\resources\seal.jpg,124.45724859999996,None,0,124.45724859999996,None,right,1.3178099000001566,124.45724859999996,None,125.80754640000009,None,1,left,1.8795101999999133,125.80754640000009,None,125.80754640000009,None,127.72406620000015,None,None,128.72368824000014,None,128.72368824000014,None,,,,,,,,,,,,,,,,,,,,,,,,,,,,,,,,,,,4,001,2021_Apr_08_1301,AB_pic_singleT2,2021.1.2,60.00772899551331,
AB,lag6,6,5,11,0.2,0.05,0.5,,0,5,5,0,,,,,,,,,,,crown.jpg,witchhat.jpg,nose.jpg,baseballbat.jpg,icecube02.jpg,eiffeltower.jpg,funnel.jpg,microphone01.jpg,rubikcube.jpg,tulip02.jpg,mummy.jpg,grizzly.jpg,waterfountain02.jpg,dalmatian.jpg,bench01.jpg,porcupine.jpg,snowman.jpg,128.74065399999995,131.4904452000003,131.22380859999998,None,0,0,13,131.74043959999995,None,131.74043959999995,None,.\resources\mummy.jpg,135.23977350000018,None,1,135.23977350000018,None,right,1.1432647000001452,135.23977350000018,None,136.42302910000012,None,0,left,5.5279451000001245,136.42302910000012,None,136.42302910000012,None,141.98969710000006,None,None,142.98930554000017,None,142.98930554000017,None,,,,,,,,,,,,,,,,,,,,,,,,,,,,,,,,,,,4,001,2021_Apr_08_1301,AB_pic_singleT2,2021.1.2,60.00772899551331,
AB,lag1,1,3,4,0.2,0.05,0.5,,0,6,6,3,,,,,,,,,,,chainsaw.jpg,electricguitar01.jpg,christmaslights.jpg,bowlingpin.jpg,kite.jpg,skippingrope.jpg,crosscountryski.jpg,porcupine.jpg,sword01.jpg,tank.jpg,cymbal.jpg,moon.jpg,parachute.jpg,trophy01.jpg,cloud.jpg,snowboard.jpg,mummy.jpg,143.0062743000001,145.75572940000006,145.47241110000027,None,1,0,6,145.97237539999992,None,145.97237539999992,None,.\resources\bowlingpin.jpg,147.73892249999994,None,0,147.73892249999994,None,right,1.196049199999834,147.73892249999994,None,148.9726062000002,None,1,right,1.4984024000000318,148.9726062000002,None,148.9726062000002,None,150.52249400000005,None,None,151.52212874000034,None,151.52212874000034,None,,,,,,,,,,,,,,,,,,,,,,,,,,,,,,,,,,,4,001,2021_Apr_08_1301,AB_pic_singleT2,2021.1.2,60.00772899551331,
AB,lag3,3,3,6,0.2,0.05,0.5,,0,7,7,5,,,,,,,,,,,doghouse.jpg,christmastree.jpg,microphone01.jpg,beaver.jpg,chair.jpg,trampoline.jpg,kangaroo.jpg,swordfish.jpg,windmill.jpg,tortoise01.jpg,jellybean.jpg,shower.jpg,ipad02.jpg,dolphin01.jpg,rose.jpg,lighthouse.jpg,bluecheese.jpg,151.5390906,154.28843370000027,154.00512619999995,None,1,0,8,154.5217571999999,None,154.5217571999999,None,.\resources\trampoline.jpg,156.77156440000022,None,0,156.77156440000022,None,right,1.4354213999999956,156.77156440000022,None,158.2718428999999,None,0,left,0.9831295000003593,158.2718428999999,None,158.2718428999999,None,159.28843250000023,None,None,160.2876585400003,None,160.2876585400003,None,,,,,,,,,,,,,,,,,,,,,,,,,,,,,,,,,,,4,001,2021_Apr_08_1301,AB_pic_singleT2,2021.1.2,60.00772899551331,
AB,lag7,7,4,11,0.2,0.05,0.5,,0,8,8,2,,,,,,,,,,,frisbee.jpg,ceilingfan01.jpg,acousticguitar02.jpg,foldingchair.jpg,pumpkin.jpg,daddylonglegs.jpg,beerbottle.jpg,platypus.jpg,vulture.jpg,lightswitch01.jpg,zipper.jpg,discoball.jpg,popcorn.jpg,scooter.jpg,telescope.jpg,arrow02.jpg,mummy.jpg,160.28794730000004,163.03815409999993,162.7711044,None,1,1,13,163.28813890000015,None,163.28813890000015,None,.\resources\zipper.jpg,166.78748169999994,None,0,166.78748169999994,None,right,1.1956341000000066,166.78748169999994,None,168.0207296000001,None,1,left,1.49022530000002,168.0207296000001,None,168.0207296000001,None,169.5539521000003,None,None,170.55398184000015,None,170.55398184000015,None,,,,,,,,,,,,,,,,,,,,,,,,,,,,,,,,,,,4,001,2021_Apr_08_1301,AB_pic_singleT2,2021.1.2,60.00772899551331,
AB,lag2,2,5,7,0.2,0.05,0.5,,0,9,9,9,,,,,,,,,,,jellybean.jpg,recyclingbin.jpg,christmaslights.jpg,dolphin01.jpg,bridge.jpg,mailbox02.jpg,jeans01.jpg,frenchfries.jpg,crab01.jpg,cashregister01.jpg,waterfall.jpg,squid.jpg,windshieldwiper02.jpg,horse.jpg,waterfountain02.jpg,ladder.jpg,footballhelmet.jpg,170.570962,173.320743,173.05413470000008,None,1,1,9,173.57072900000026,None,173.57072900000026,None,.\resources\jeans01.jpg,176.0701386000003,None,0,176.0701386000003,None,right,1.784854600000017,176.0701386000003,None,177.90334610000014,None,1,left,0.6235825000003388,177.90334610000014,None,177.90334610000014,None,178.55330160000017,None,None,179.55292444000034,None,179.55292444000034,None,,,,,,,,,,,,,,,,,,,,,,,,,,,,,,,,,,,4,001,2021_Apr_08_1301,AB_pic_singleT2,2021.1.2,60.00772899551331,
AB,lag5,5,4,9,0.2,0.05,0.5,,0,10,10,11,,,,,,,,,,,bowlingball.jpg,honeybee.jpg,brownsugar.jpg,rooster.jpg,africanelephant.jpg,licenseplate.jpg,paperairplane.jpg,toad.jpg,leafrake.jpg,polarbear.jpg,volleyball.jpg,tulip02.jpg,treadmill.jpg,parrot01.jpg,shower.jpg,skippingrope.jpg,squirrel.jpg,179.56988290000004,182.32008420000034,182.0367807,None,0,0,11,182.5534067000001,None,182.5534067000001,None,.\resources\leafrake.jpg,185.55278580000027,None,1,185.55278580000027,None,right,1.1181000000001404,185.55278580000027,None,186.7026957999999,None,1,right,0.84828779999998,186.7026957999999,None,186.7026957999999,None,187.58596360000024,None,None,188.58562534000012,None,188.58562534000012,None,,,,,,,,,,,,,,,,,,,,,,,,,,,,,,,,,,,4,001,2021_Apr_08_1301,AB_pic_singleT2,2021.1.2,60.00772899551331,
AB,lag4,4,3,7,0.2,0.05,0.5,,0,11,11,1,,,,,,,,,,,ipad02.jpg,sausage.jpg,bowtie.jpg,sheep.jpg,leafblower01.jpg,tent.jpg,kiwi03.jpg,bumpercar.jpg,spicerack.jpg,barrel01.jpg,tarantula.jpg,hammerheadshark.jpg,masquerademask01.jpg,waterfountain02.jpg,witchhat.jpg,athleticsock.jpg,crab01.jpg,188.60256730000015,191.35241010000004,191.08576610000023,None,1,1,9,191.60240500000032,None,191.60240500000032,None,.\resources\kiwi03.jpg,194.10218650000002,None,0,194.10218650000002,None,right,0.7687553000000662,194.10218650000002,None,194.9021382000003,None,1,left,1.6889098999999987,194.9021382000003,None,194.9021382000003,None,196.6524512000003,None,None,197.65205584000014,None,197.65205584000014,None,,,,,,,,,,,,,,,,,,,,,,,,,,,,,,,,,,,4,001,2021_Apr_08_1301,AB_pic_singleT2,2021.1.2,60.00772899551331,
AB,lag7,7,5,12,0.2,0.05,0.5,,0,12,12,7,,,,,,,,,,,bullet.jpg,kangaroo.jpg,callbell.jpg,safe.jpg,knee.jpg,eiffeltower.jpg,magneticcompass.jpg,motorcycle.jpg,spiderweb.jpg,parkingmeter.jpg,musicsheet.jpg,well.jpg,sink.jpg,dandelion.jpg,granolabar01.jpg,cactus.jpg,trumpet.jpg,197.66902800000003,200.41838789999997,200.13507820000018,None,0,0,14,200.65171880000003,None,200.65171880000003,None,.\resources\well.jpg,204.4014356,None,1,204.4014356,None,right,1.7094343000003391,204.4014356,None,206.15174470000034,None,1,right,1.119245200000023,206.15174470000034,None,206.15174470000034,None,207.31834420000018,None,None,208.31752904000032,None,208.31752904000032,None,,,,,,,,,,,,,,,,,,,,,,,,,,,,,,,,,,,4,001,2021_Apr_08_1301,AB_pic_singleT2,2021.1.2,60.00772899551331,
AB,lag6,6,5,11,0.2,0.05,0.5,,0,13,13,8,,,,,,,,,,,triangle.jpg,candycane01a.jpg,locker.jpg,cow.jpg,mummy.jpg,worldmap.jpg,vulture.jpg,footballhelmet.jpg,toucan.jpg,nunchuk.jpg,bluejay.jpg,jellyfish.jpg,makiroll.jpg,anchor.jpg,jeans01.jpg,coffeemaker.jpg,kangaroo.jpg,208.31782260000023,211.06761849999998,210.8009773000001,None,1,1,13,211.3009399,None,211.3009399,None,.\resources\bluejay.jpg,214.81734269999993,None,0,214.81734269999993,None,right,0.7896448000001328,214.81734269999993,None,215.65062580000017,None,1,left,0.5482700000002296,215.65062580000017,None,215.65062580000017,None,216.2343444999999,None,None,217.23354184000019,None,217.23354184000019,None,,,,,,,,,,,,,,,,,,,,,,,,,,,,,,,,,,,4,001,2021_Apr_08_1301,AB_pic_singleT2,2021.1.2,60.00772899551331,
,,,,,,,,,,,,,,,,,,,,,,,,,,,,,,,,,,,,,,,,,,,,,,,,,,,,,,,,,,,,,,,,,,,,,,,,,,,,,space,20.79488259999971,217.25092300000028,None,,,,,,,,,,,,,,,,,,,,,,,,,,,,,,,4,001,2021_Apr_08_1301,AB_pic_singleT2,2021.1.2,60.00772899551331,
AB,lag6,6,5,11,0.2,0.05,0.5,ramp,,,,,0,0,0,0,,,,,,,hand01b.jpg,showerhead01.jpg,soccerball.jpg,worldmap.jpg,leafblower01.jpg,surfboard.jpg,floorlamp.jpg,nosmokingsign.jpg,toolbox02.jpg,birthdaycandle.jpg,calendar.jpg,mailbox02.jpg,horseshoe.jpg,cow.jpg,crown.jpg,cobra.jpg,alligator.jpg,,,,,1,1,13,,,,,.\resources\calendar.jpg,,,0,,,,,,,,,1,,,,,,,,,None,246.86520353999995,None,246.86520353999995,None,,,,,217.25092300000028,None,238.18279270000016,240.9321378000002,240.66549039999995,None,0.2,241.09880780000026,None,241.09880780000026,None,244.61521460000017,None,244.61521460000017,None,right,1.0157242999998743,244.61521460000017,None,245.66558099999997,None,left,1.173342600000069,245.66558099999997,None,245.66558099999997,None,,,,4,001,2021_Apr_08_1301,AB_pic_singleT2,2021.1.2,60.00772899551331,
AB,lag4,4,4,8,0.19066666667,0.048,0.48,ramp,,,,,0,1,1,1,,,,,,,boat.jpg,frenchfries.jpg,church.jpg,bowlingpin.jpg,lily.jpg,icecube02.jpg,bathtub.jpg,witchhat.jpg,hotdogweiner.jpg,helicopter.jpg,bow.jpg,schoolbus.jpg,knee.jpg,ceilingfan01.jpg,bull.jpg,wheelbarrow01.jpg,spicerack.jpg,,,,,1,0,10,,,,,.\resources\witchhat.jpg,,,0,,,,,,,,,1,,,,,,,,,None,253.83088884000009,None,253.83088884000009,None,,,,,,,246.88216850000003,249.63150740000015,249.36486010000021,None,0.19066666667,249.88149450000014,None,249.88149450000014,None,252.51461270000004,None,252.51461270000004,None,right,0.5802542000001267,252.51461270000004,None,253.16459129999998,None,right,0.6182526000002326,253.16459129999998,None,253.16459129999998,None,-28.934567251234473,146.3125023127514,,4,001,2021_Apr_08_1301,AB_pic_singleT2,2021.1.2,60.00772899551331,
AB,lag7,7,4,11,0.18133333334,0.046,0.45999999999999996,ramp,,,,,0,2,2,2,,,,,,,toad.jpg,cactus.jpg,mailbox02.jpg,stubbywrench01a.jpg,donut.jpg,tarantula.jpg,redfox.jpg,mrpotatohead.jpg,acousticguitar02.jpg,duck01.jpg,corn02.jpg,cloud.jpg,rollerblade.jpg,bacon.jpg,platypus.jpg,smokingpipe.jpg,whiteout.jpg,,,,,1,1,13,,,,,.\resources\corn02.jpg,,,0,,,,,,,,,1,,,,,,,,,None,261.4474426400001,None,261.4474426400001,None,,,,,,,253.84785050000005,256.5976425000001,256.33100149999996,None,0.18133333334,256.8476482000003,None,256.8476482000003,None,260.04739760000007,None,260.04739760000007,None,right,0.8074697999995806,260.04739760000007,None,260.9140049,None,left,0.5168424000003142,260.9140049,None,260.9140049,None,-28.686098263088397,146.41067845824693,,4,001,2021_Apr_08_1301,AB_pic_singleT2,2021.1.2,60.00772899551331,
AB,lag5,5,5,10,0.17200000001000001,0.044,0.43999999999999995,ramp,,,,,0,3,3,3,,,,,,,vulture.jpg,parkfountain.jpg,basketball01.jpg,table01.jpg,platypus.jpg,bluejay.jpg,escalator.jpg,hotdogweiner.jpg,seal.jpg,lip.jpg,parachute.jpg,mailbox02.jpg,dormer.jpg,dalmatian.jpg,shower.jpg,nunchuk.jpg,porcupine.jpg,,,,,0,0,12,,,,,.\resources\lip.jpg,,,1,,,,,,,,,1,,,,,,,,,None,268.39650543999994,None,268.39650543999994,None,,,,,,,261.46440069999994,264.21376410000016,263.9471140000003,None,0.17200000001000001,264.44708190000006,None,264.44708190000006,None,267.2802056000003,None,267.2802056000003,None,right,0.518702299999859,267.2802056000003,None,267.86349429999996,None,right,0.5113160000000789,267.86349429999996,None,267.86349429999996,None,-27.72835244369447,146.47436817093038,,4,001,2021_Apr_08_1301,AB_pic_singleT2,2021.1.2,60.00772899551331,
AB,lag2,2,3,5,0.16266666668000002,0.041999999999999996,0.41999999999999993,ramp,,,,,0,4,4,4,,,,,,,smokingpipe.jpg,cactus.jpg,snowboard.jpg,toilet.jpg,pigeon.jpg,birdnest.jpg,trampoline.jpg,toyanimal05.jpg,cloud.jpg,kite.jpg,donut.jpg,bowlingball.jpg,raccoon.jpg,birthdaycandle.jpg,sledgehammer.jpg,fireplace.jpg,fridge.jpg,,,,,0,1,7,,,,,.\resources\pigeon.jpg,,,1,,,,,,,,,1,,,,,,,,,None,275.6963873399999,None,275.6963873399999,None,,,,,,,268.4134658999999,271.1632575000001,270.89661150000006,None,0.16266666668000002,271.39657820000025,None,271.39657820000025,None,273.06310450000024,None,273.06310450000024,None,right,1.2317166000002544,273.06310450000024,None,274.36302709999995,None,left,1.3158352999998897,274.36302709999995,None,274.36302709999995,None,-26.751074310641386,146.40162403381765,,4,001,2021_Apr_08_1301,AB_pic_singleT2,2021.1.2,60.00772899551331,
AB,lag3,3,5,8,0.15333333335000002,0.039999999999999994,0.3999999999999999,ramp,,,,,0,5,5,5,,,,,,,parkingmeter.jpg,seal.jpg,beerbottle.jpg,licenseplate.jpg,kiwi03.jpg,cork02.jpg,granolabar01.jpg,marble.jpg,raccoon.jpg,bull.jpg,punchingbag.jpg,cloud.jpg,foosballtable.jpg,rose.jpg,xylophone.jpg,pumpkin.jpg,honeybee.jpg,,,,,0,0,10,,,,,.\resources\marble.jpg,,,1,,,,,,,,,1,,,,,,,,,None,281.94549713999993,None,281.94549713999993,None,,,,,,,275.7133586000002,278.4627307000003,278.1960821,None,0.15333333335000002,278.6960477,None,278.6960477,None,280.8458972000001,None,280.8458972000001,None,right,0.5369831000002705,280.8458972000001,None,281.4624851000001,None,right,0.46433380000007674,281.4624851000001,None,281.4624851000001,None,-25.643814187160423,146.24073009645429,,4,001,2021_Apr_08_1301,AB_pic_singleT2,2021.1.2,60.00772899551331,
AB,lag1,1,4,5,0.14400000002000002,0.03799999999999999,0.3799999999999999,ramp,,,,,0,6,6,6,,,,,,,snowboard.jpg,electricguitar01.jpg,cobra.jpg,dormer.jpg,fingerprint.jpg,cloud.jpg,vacuumcleaner01.jpg,jackrabbit.jpg,skippingrope.jpg,lip.jpg,alligator.jpg,hockeystick.jpg,foldingchair.jpg,ear.jpg,raccoon.jpg,callbell.jpg,tortoise01.jpg,,,,,1,0,7,,,,,.\resources\fingerprint.jpg,,,0,,,,,,,,,1,,,,,,,,,None,287.54558624000026,None,287.54558624000026,None,,,,,,,281.9624444000003,284.7127399000003,284.4456533,None,0.14400000002000002,284.9622867999999,None,284.9622867999999,None,286.42884160000017,None,286.42884160000017,None,right,0.6419608999999582,286.42884160000017,None,287.14590710000016,None,right,0.3808809000001929,287.14590710000016,None,287.14590710000016,None,-25.56241259048595,145.94875797607125,,4,001,2021_Apr_08_1301,AB_pic_singleT2,2021.1.2,60.00772899551331,
AB,lag6,6,5,11,0.13466666669000002,0.03599999999999999,0.3599999999999999,ramp,,,,,0,7,7,7,,,,,,,moose.jpg,eiffeltower.jpg,surfboard.jpg,fishingrod.jpg,mummy.jpg,popcorn.jpg,pirateflag.jpg,schoolbus.jpg,jeans01.jpg,lizard.jpg,harmonica.jpg,sandcastle.jpg,stool01.jpg,locker.jpg,sausage.jpg,greatwhiteshark.jpg,hand01b.jpg,,,,,1,1,13,,,,,.\resources\harmonica.jpg,,,0,,,,,,,,,1,,,,,,,,,None,294.5616980399999,None,294.5616980399999,None,,,,,,,287.5625382999999,290.3118866000002,290.04523900000027,None,0.13466666669000002,290.5618772,None,290.5618772,None,292.96169680000025,None,292.96169680000025,None,right,0.901198900000054,292.96169680000025,None,293.9282770000002,None,left,0.6145688999999948,293.9282770000002,None,293.9282770000002,None,-25.491828087583492,145.6957561907195,,4,001,2021_Apr_08_1301,AB_pic_singleT2,2021.1.2,60.00772899551331,
AB,lag3,3,4,7,0.12533333336000002,0.03399999999999999,0.33999999999999986,ramp,,,,,0,8,8,8,,,,,,,dreamcatcher.jpg,airhockeytable.jpg,candycane01a.jpg,worldmap.jpg,parkfountain.jpg,horse.jpg,leafrake.jpg,lighthouse.jpg,christmaslights.jpg,funnel.jpg,motorcycle.jpg,bathtub.jpg,frenchfries.jpg,cat.jpg,snowshoe.jpg,bow.jpg,spiderweb.jpg,,,,,1,0,9,,,,,.\resources\leafrake.jpg,,,0,,,,,,,,,1,,,,,,,,,None,300.1775251400003,None,300.1775251400003,None,,,,,,,294.5786556999999,297.3280285000003,297.06137839999997,None,0.12533333336000002,297.5613457000002,None,297.5613457000002,None,299.17788540000015,None,299.17788540000015,None,right,0.572981499999969,299.17788540000015,None,299.82784319999996,None,right,0.33095800000000963,299.82784319999996,None,299.82784319999996,None,-25.425911648421927,145.473397951125,,4,001,2021_Apr_08_1301,AB_pic_singleT2,2021.1.2,60.00772899551331,
AB,lag4,4,4,8,0.11600000003000002,0.03199999999999999,0.31999999999999984,ramp,,,,,0,9,9,9,,,,,,,noparkingsign.jpg,greywolf.jpg,masquerademask01.jpg,africanelephant.jpg,zebra.jpg,icecube02.jpg,lizard.jpg,butterfly.jpg,arrow02.jpg,moose.jpg,handcuffs.jpg,foot.jpg,punchingbag.jpg,sausage.jpg,foosballtable.jpg,alligator.jpg,ironingboard01.jpg,,,,,0,0,10,,,,,.\resources\butterfly.jpg,,,1,,,,,,,,,1,,,,,,,,,None,305.9104450399999,None,305.9104450399999,None,,,,,,,300.1945121000001,302.94431450000025,302.67763059999993,None,0.11600000003000002,303.17759580000006,None,303.17759580000006,None,304.8274758,None,304.8274758,None,right,0.5793547999996917,304.8274758,None,305.47742829999993,None,right,0.38549779999993916,305.47742829999993,None,305.47742829999993,None,-24.322484455690482,145.27732608270352,,4,001,2021_Apr_08_1301,AB_pic_singleT2,2021.1.2,60.00772899551331,
AB,lag5,5,4,9,0.10666666670000002,0.029999999999999985,0.2999999999999998,ramp,,,,,0,10,10,10,,,,,,,cloud.jpg,motorcycle.jpg,discoball.jpg,escalator.jpg,ironingboard01.jpg,pig.jpg,key07.jpg,frisbee.jpg,kneepad01c.jpg,shovel01.jpg,masquerademask01.jpg,seagull.jpg,honeybee.jpg,bathtub.jpg,turnstile.jpg,lip.jpg,soccerball.jpg,,,,,1,0,11,,,,,.\resources\kneepad01c.jpg,,,0,,,,,,,,,1,,,,,,,,,None,311.61045634000027,None,311.61045634000027,None,,,,,,,305.92740019999997,308.6771983000001,308.4105526000001,None,0.10666666670000002,308.9105148000001,None,308.9105148000001,None,310.57706250000024,None,310.57706250000024,None,right,0.5257501000000957,310.57706250000024,None,311.1770194000003,None,right,0.41375460000017483,311.1770194000003,None,311.1770194000003,None,-24.17845793302459,144.95124105656382,,4,001,2021_Apr_08_1301,AB_pic_singleT2,2021.1.2,60.00772899551331,
AB,lag2,2,3,5,0.09733333337000002,0.027999999999999983,0.3,ramp,,,,,0,11,11,11,,,,,,,whiteout.jpg,armadillo.jpg,swing.jpg,englishcucumber.jpg,ladybug03.jpg,microphone01.jpg,windshieldwiper02.jpg,baseballbat.jpg,giraffe.jpg,greywolf.jpg,eye.jpg,apron.jpg,toad.jpg,mrpotatohead.jpg,beerbottle.jpg,bat.jpg,platypus.jpg,,,,,1,0,7,,,,,.\resources\ladybug03.jpg,,,0,,,,,,,,,1,,,,,,,,,None,316.67632033999996,None,316.67632033999996,None,,,,,,,311.62744720000023,314.37678930000015,314.1101387000001,None,0.09733333337000002,314.6101071999999,None,314.6101071999999,None,315.6433652000003,None,315.6433652000003,None,right,0.5634258999998565,315.6433652000003,None,316.2766557000002,None,right,0.37027839999973367,316.2766557000002,None,316.2766557000002,None,-24.10881832374013,144.64246282370507,,4,001,2021_Apr_08_1301,AB_pic_singleT2,2021.1.2,60.00772899551331,
AB,lag1,1,4,5,0.08800000004000003,0.02599999999999998,0.3,ramp,,,,,0,12,12,12,,,,,,,africanelephant.jpg,scorpion.jpg,spicerack.jpg,accordion01.jpg,noparkingsign.jpg,bed.jpg,bowlingball.jpg,shovel01.jpg,jackrabbit.jpg,grizzly.jpg,ironingboard01.jpg,saxophone.jpg,microwave.jpg,cupcake.jpg,crown.jpg,sledgehammer.jpg,fishingrod.jpg,,,,,1,0,7,,,,,.\resources\noparkingsign.jpg,,,0,,,,,,,,,1,,,,,,,,,None,321.6426319400001,None,321.6426319400001,None,,,,,,,316.69329070000026,319.4430950000003,319.17644240000004,None,0.08800000004000003,319.6764085000002,None,319.6764085000002,None,320.60967189999997,None,320.60967189999997,None,right,0.5811733000000459,320.60967189999997,None,321.2596238000003,None,right,0.3551559000002271,321.2596238000003,None,321.2596238000003,None,-24.049986357149013,144.35719771608487,,4,001,2021_Apr_08_1301,AB_pic_singleT2,2021.1.2,60.00772899551331,
AB,lag7,7,5,12,0.07866666671000003,0.02399999999999998,0.3,ramp,,,,,0,13,13,13,,,,,,,worldmap.jpg,bluecheese.jpg,alligator.jpg,noparkingsign.jpg,showerhead01.jpg,stubbywrench01a.jpg,eye.jpg,boxingglove01.jpg,swordfish.jpg,sledgehammer.jpg,swing.jpg,rubikcube.jpg,birdfeeder.jpg,bull.jpg,foot.jpg,shovel01.jpg,tire.jpg,,,,,1,0,14,,,,,.\resources\rubikcube.jpg,,,0,,,,,,,,,1,,,,,,,,,None,327.17556434000005,None,327.17556434000005,None,,,,,,,321.65959110000017,324.4094190000003,324.14274150000006,None,0.07866666671000003,324.6427064000002,None,324.6427064000002,None,326.2092626000001,None,326.2092626000001,None,right,0.5095068000000538,326.2092626000001,None,326.7925616,None,right,0.34228639999992083,326.7925616,None,326.7925616,None,-23.995544193868202,144.0929063923113,,4,001,2021_Apr_08_1301,AB_pic_singleT2,2021.1.2,60.00772899551331,
AB,lag1,1,3,4,0.06933333338000003,0.021999999999999978,0.3,ramp,,,,,0,14,14,14,,,,,,,golfball.jpg,bridge.jpg,microphone01.jpg,exitsign.jpg,dragonfly01.jpg,christmaslights.jpg,mummy.jpg,cat.jpg,bed.jpg,redfox.jpg,makiroll.jpg,flag.jpg,africanelephant.jpg,spiderweb.jpg,candycane01a.jpg,masquerademask01.jpg,fishingrod.jpg,,,,,1,1,6,,,,,.\resources\exitsign.jpg,,,0,,,,,,,,,1,,,,,,,,,None,332.47566894,None,332.47566894,None,,,,,,,327.19254460000025,329.94234930000016,329.67570550000005,None,0.06933333338000003,330.1923319,None,330.1923319,None,330.8422872000003,None,330.8422872000003,None,right,0.8604797000002691,330.8422872000003,None,331.77555050000024,None,left,0.6713054000001648,331.77555050000024,None,331.77555050000024,None,-23.94438002301768,143.84687349101603,,4,001,2021_Apr_08_1301,AB_pic_singleT2,2021.1.2,60.00772899551331,
AB,lag6,6,5,11,0.06000000005000003,0.02,0.3,main,,,,,0,15,15,15,,,,,,,ant.jpg,arrow02.jpg,calendar.jpg,pooltable.jpg,wallclock.jpg,parkfountain.jpg,acorn.jpg,horseshoe.jpg,sausage.jpg,treadmill.jpg,lightswitch01.jpg,platypus.jpg,triangle.jpg,wheelbarrow01.jpg,honeybee.jpg,ladder.jpg,windmill.jpg,,,,,0,1,13,,,,,.\resources\lightswitch01.jpg,,,1,,,,,,,,,1,,,,,,,,,None,339.6413567399999,None,339.6413567399999,None,,,,,,,332.49261630000024,335.2419719000002,334.97532560000013,None,0.17609471634237223,335.49195080000004,None,335.49195080000004,None,338.24174990000006,None,338.24174990000006,None,right,0.7250898000002053,338.24174990000006,None,339.0416944000001,None,left,0.5571565999998711,339.0416944000001,None,339.0416944000001,None,-23.732329632622665,143.6466357747979,,4,001,2021_Apr_08_1301,AB_pic_singleT2,2021.1.2,60.00772899551331,
AB,lag1,1,5,6,0.06000000005000003,0.02,0.3,main,,,,,0,16,16,16,,,,,,,cow.jpg,parkingmeter.jpg,polarbear.jpg,golfball.jpg,jeans01.jpg,rooster.jpg,pirateflag.jpg,flag.jpg,saxophone.jpg,waterfall.jpg,magneticcompass.jpg,fingerprint.jpg,ipad02.jpg,guitarcase.jpg,wheelchair.jpg,toad.jpg,lighthouse.jpg,,,,,1,1,8,,,,,.\resources\rooster.jpg,,,0,,,,,,,,,1,,,,,,,,,None,345.90756794000015,None,345.90756794000015,None,,,,,,,339.65832650000016,342.40811580000013,342.1414686999999,None,0.17486399078028042,342.6581027,None,342.6581027,None,344.4246384999999,None,344.4246384999999,None,right,1.0621336000003794,344.4246384999999,None,345.5578863000003,None,left,0.3208896999999524,345.5578863000003,None,345.5578863000003,None,-24.230115121322093,143.3355031253428,,4,001,2021_Apr_08_1301,AB_pic_singleT2,2021.1.2,60.00772899551331,
AB,lag5,5,3,8,0.06000000005000003,0.02,0.3,main,,,,,0,17,17,17,,,,,,,giraffe.jpg,skippingrope.jpg,motorcycle.jpg,beerbottle.jpg,nunchuk.jpg,tarantula.jpg,skateboard.jpg,jackrabbit.jpg,lollipop04.jpg,knee.jpg,statue.jpg,tent.jpg,scorpion.jpg,cork02.jpg,toolbox02.jpg,cruiseship.jpg,bacon.jpg,,,,,0,1,10,,,,,.\resources\jackrabbit.jpg,,,1,,,,,,,,,1,,,,,,,,,None,352.52421154,None,352.52421154,None,,,,,,,345.92453739999996,348.6743551000002,348.3910078000001,None,0.17871643049971483,348.90765669999996,None,348.90765669999996,None,351.10748560000025,None,351.10748560000025,None,right,0.9153037999999469,351.10748560000025,None,352.1245312000003,None,left,0.37022979999983363,352.1245312000003,None,352.1245312000003,None,-24.11198316839684,143.14603843378498,,4,001,2021_Apr_08_1301,AB_pic_singleT2,2021.1.2,60.00772899551331,
AB,lag3,3,4,7,0.06000000005000003,0.02,0.3,main,,,,,0,18,18,18,,,,,,,hand01b.jpg,ironingboard01.jpg,crown.jpg,cashregister01.jpg,porcupine.jpg,trophy01.jpg,parrot01.jpg,foldingchair.jpg,birdfeeder.jpg,shower.jpg,ducttape.jpg,noparkingsign.jpg,panda.jpg,raccoon.jpg,barrel01.jpg,lollipop04.jpg,peacock.jpg,,,,,0,0,9,,,,,.\resources\parrot01.jpg,,,1,,,,,,,,,1,,,,,,,,,None,358.58998044,None,358.58998044,None,,,,,,,352.5411566,355.29051600000025,355.0239122999999,None,0.17812772053284215,355.5405022000002,None,355.5405022000002,None,357.54035480000016,None,357.54035480000016,None,right,0.586410800000067,357.54035480000016,None,358.2069664000003,None,right,0.3519188000000213,358.2069664000003,None,358.2069664000003,None,-23.955118502826522,142.9757712224667,,4,001,2021_Apr_08_1301,AB_pic_singleT2,2021.1.2,60.00772899551331,
AB,lag2,2,5,7,0.06000000005000003,0.02,0.3,main,,,,,0,19,19,19,,,,,,,cross01.jpg,electrictoothbrush01c.jpg,bowlingpin.jpg,mattress.jpg,lizard.jpg,moose.jpg,spear02.jpg,kneepad01c.jpg,triangle.jpg,horseshoe.jpg,snowman.jpg,discoball.jpg,turnstile.jpg,dragonfly01.jpg,pingpongtable.jpg,cactus.jpg,englishcucumber.jpg,,,,,1,1,9,,,,,.\resources\spear02.jpg,,,0,,,,,,,,,1,,,,,,,,,None,364.82330953999997,None,364.82330953999997,None,,,,,,,358.6069490000002,361.35674429999995,361.09009630000014,None,0.17724270795864994,361.6067201000003,None,361.6067201000003,None,363.5899194000001,None,363.5899194000001,None,right,0.6487990999999056,363.5899194000001,None,364.3069696,None,left,0.4998203000000103,364.3069696,None,364.3069696,None,-24.301701806166836,142.72601804470594,,4,001,2021_Apr_08_1301,AB_pic_singleT2,2021.1.2,60.00772899551331,
AB,lag4,4,3,7,0.06000000005000003,0.02,0.3,main,,,,,0,20,20,20,,,,,,,pingpongtable.jpg,bowtie.jpg,hammerheadshark.jpg,mummy.jpg,ostrich.jpg,kangaroo.jpg,cigar.jpg,kite.jpg,fortunecookie.jpg,hockeypuck.jpg,sheep.jpg,windmill.jpg,mailbox02.jpg,seagull.jpg,safe.jpg,dormer.jpg,bull.jpg,,,,,0,1,9,,,,,.\resources\cigar.jpg,,,1,,,,,,,,,1,,,,,,,,,None,371.18948394000006,None,371.18948394000006,None,,,,,,,364.8402696999999,367.5896473,367.3229742000001,None,0.17998117315401105,367.8229367000001,None,367.8229367000001,None,369.8560970000001,None,369.8560970000001,None,right,0.6547173000003568,369.8560970000001,None,370.58937660000015,None,left,0.5614031000000068,370.58937660000015,None,370.58937660000015,None,-24.195467765668234,142.56664659565595,,4,001,2021_Apr_08_1301,AB_pic_singleT2,2021.1.2,60.00772899551331,
AB,lag7,7,5,12,0.06000000005000003,0.02,0.3,main,,,,,0,21,21,21,,,,,,,windshieldwiper02.jpg,jellybean.jpg,mouse.jpg,moose.jpg,bacon.jpg,makiroll.jpg,tulip02.jpg,cashregister01.jpg,humanskeleton.jpg,foosballtable.jpg,horse.jpg,parachute.jpg,floorlamp.jpg,footballhelmet.jpg,brownsugar.jpg,bed.jpg,accordion01.jpg,,,,,0,0,14,,,,,.\resources\parachute.jpg,,,1,,,,,,,,,1,,,,,,,,,None,378.32186014000024,None,378.32186014000024,None,,,,,,,371.2064614000003,373.95580970000015,373.6891873000002,None,0.17943721576998647,374.20578880000016,None,374.20578880000016,None,377.20556680000004,None,377.20556680000004,None,right,0.5851379000000634,377.20556680000004,None,377.8721836000002,None,right,0.4305623000000196,377.8721836000002,None,377.8721836000002,None,-24.07589837261601,142.41872982858337,,4,001,2021_Apr_08_1301,AB_pic_singleT2,2021.1.2,60.00772899551331,
AB,lag6,6,5,11,0.06000000005000003,0.02,0.3,main,,,,,0,22,22,22,,,,,,,pumpkin.jpg,pig.jpg,cannon.jpg,hotdogweiner.jpg,africanelephant.jpg,wheelchair.jpg,greywolf.jpg,cocktailshrimp02.jpg,nosmokingsign.jpg,granolabar01.jpg,discoball.jpg,curtain.jpg,mouse.jpg,tennisracket.jpg,kiwi03.jpg,parrot01.jpg,microphone01.jpg,,,,,0,0,13,,,,,.\resources\discoball.jpg,,,1,,,,,,,,,1,,,,,,,,,None,385.15473334000023,None,385.15473334000023,None,,,,,,,378.33885239999995,381.08864199999994,380.82200979999993,None,0.17878401783517137,381.3219706000002,None,381.3219706000002,None,384.1384270000001,None,384.1384270000001,None,right,0.5643325000000914,384.1384270000001,None,384.7883847999999,None,right,0.33832600000005186,384.7883847999999,None,384.7883847999999,None,-23.960839235506032,142.27816464673313,,4,001,2021_Apr_08_1301,AB_pic_singleT2,2021.1.2,60.00772899551331,
AB,lag7,7,5,12,0.06000000005000003,0.02,0.3,main,,,,,0,23,23,23,,,,,,,fridge.jpg,lawnmower.jpg,rubikcube.jpg,handcuffs.jpg,cat.jpg,church.jpg,bluejay.jpg,fishskeleton.jpg,jellybean.jpg,licenseplate.jpg,barrel01.jpg,mouse.jpg,hockeystick.jpg,showerhead01.jpg,wheelbarrow01.jpg,birdhouse.jpg,shower.jpg,,,,,0,0,14,,,,,.\resources\mouse.jpg,,,1,,,,,,,,,1,,,,,,,,,None,392.1708835400003,None,392.1708835400003,None,,,,,,,385.1716905999999,387.9214720000002,387.65483640000025,None,0.17815195788869717,388.1714758999999,None,388.1714758999999,None,391.15457949999995,None,391.15457949999995,None,right,0.5802155000001221,391.15457949999995,None,391.8212095000001,None,right,0.3056674999997995,391.8212095000001,None,391.8212095000001,None,-23.850358621189578,142.14413657843102,,4,001,2021_Apr_08_1301,AB_pic_singleT2,2021.1.2,60.00772899551331,
AB,lag5,5,3,8,0.06000000005000003,0.02,0.3,main,,,,,0,24,24,24,,,,,,,foot.jpg,acorn.jpg,harmonica.jpg,lighthouse.jpg,seal.jpg,toyanimal05.jpg,shower.jpg,chefshat.jpg,well.jpg,hotdogweiner.jpg,birdfeeder.jpg,masquerademask01.jpg,turnstile.jpg,statue.jpg,waterfall.jpg,saltshaker03a.jpg,cross01.jpg,,,,,0,1,10,,,,,.\resources\chefshat.jpg,,,1,,,,,,,,,1,,,,,,,,,None,398.87081514,None,398.87081514,None,,,,,,,392.18785300000013,394.93764540000006,394.67099520000033,None,0.17754269426642594,395.18763300000023,None,395.18763300000023,None,397.3707729,None,397.3707729,None,right,0.7560440000002018,397.3707729,None,398.2378043000001,None,left,0.6009840000001532,398.2378043000001,None,398.2378043000001,None,-23.743952220792675,142.01604037459182,,4,001,2021_Apr_08_1301,AB_pic_singleT2,2021.1.2,60.00772899551331,
AB,lag3,3,3,6,0.06000000005000003,0.02,0.3,main,,,,,0,25,25,25,,,,,,,guitarcase.jpg,cow.jpg,porcupine.jpg,toyanimal05.jpg,sheep.jpg,eyepatch.jpg,makiroll.jpg,pumpkin.jpg,rose.jpg,rooster.jpg,ipad02.jpg,dandelion.jpg,tire.jpg,nose.jpg,penguin.jpg,rubikcube.jpg,mattress.jpg,,,,,0,0,8,,,,,.\resources\eyepatch.jpg,,,1,,,,,,,,,1,,,,,,,,,None,404.71995214000015,None,404.71995214000015,None,,,,,,,398.8877592000001,401.6371375000001,401.3704844000001,None,0.176953578733974,401.88714000000004,None,401.88714000000004,None,403.6703135,None,403.6703135,None,right,0.6244306999997207,403.6703135,None,404.3702758000002,None,right,0.3085000000000946,404.3702758000002,None,404.3702758000002,None,-23.641182450102683,141.89334855695463,,4,001,2021_Apr_08_1301,AB_pic_singleT2,2021.1.2,60.00772899551331,
AB,lag2,2,3,5,0.06000000005000003,0.02,0.3,main,,,,,0,26,26,26,,,,,,,moose.jpg,jackrabbit.jpg,birthdaycandle.jpg,ant.jpg,stubbywrench01a.jpg,banjo.jpg,parachute.jpg,lighthouse.jpg,cat.jpg,hockeypuck.jpg,worldmap.jpg,totempole.jpg,giraffe.jpg,snowshovel.jpg,key07.jpg,wallclock.jpg,acousticguitar02.jpg,,,,,0,1,7,,,,,.\resources\stubbywrench01a.jpg,,,1,,,,,,,,,1,,,,,,,,,None,410.8861720399999,None,410.8861720399999,None,,,,,,,404.7369876,407.4867135000002,407.2200608999999,None,0.17638231154420028,407.7200310999999,None,407.7200310999999,None,409.3199105000001,None,409.3199105000001,None,right,0.8868750999999975,409.3199105000001,None,410.2698412000002,None,left,0.6009036000000378,410.2698412000002,None,410.2698412000002,None,-23.54168329367176,141.77559614497324,,4,001,2021_Apr_08_1301,AB_pic_singleT2,2021.1.2,60.00772899551331,
AB,lag1,1,5,6,0.06000000005000003,0.02,0.3,main,,,,,0,27,27,27,,,,,,,boxingglove01.jpg,eyepatch.jpg,lip.jpg,skateboard.jpg,toilet.jpg,spicerack.jpg,kite.jpg,birdnest.jpg,bull.jpg,snowboard.jpg,lion.jpg,spiderweb.jpg,redfox.jpg,statue.jpg,knee.jpg,wheelchair.jpg,church.jpg,,,,,1,0,8,,,,,.\resources\spicerack.jpg,,,0,,,,,,,,,1,,,,,,,,,None,416.68574934000014,None,416.68574934000014,None,,,,,,,410.90314120000016,413.6529293000001,413.38628470000026,None,0.17582699937513535,413.9029173000001,None,413.9029173000001,None,415.6694551000003,None,415.6694551000003,None,right,0.5612248000002182,415.6694551000003,None,416.31940550000013,None,right,0.3194040000003042,416.31940550000013,None,416.31940550000013,None,-23.767456791977363,141.60613637387536,,4,001,2021_Apr_08_1301,AB_pic_singleT2,2021.1.2,60.00772899551331,
AB,lag4,4,5,9,0.06000000005000003,0.02,0.3,main,,,,,0,28,28,28,,,,,,,athleticsock.jpg,christmaslights.jpg,steeringwheel.jpg,banjo.jpg,jeans01.jpg,golfball.jpg,slug.jpg,locker.jpg,parkingmeter.jpg,dragonfly01.jpg,tire.jpg,greatwhiteshark.jpg,tarantula.jpg,grizzly.jpg,crab01.jpg,pooltable.jpg,corn02.jpg,,,,,0,0,11,,,,,.\resources\parkingmeter.jpg,,,1,,,,,,,,,1,,,,,,,,,None,423.05194634,None,423.05194634,None,,,,,,,416.70270959999993,419.4525117999999,419.1858705000002,None,0.17763178769799287,419.7024882000003,None,419.7024882000003,None,422.08564760000013,None,422.08564760000013,None,right,0.5369940000000497,422.08564760000013,None,422.7022773000001,None,right,0.3204163000000335,422.7022773000001,None,422.7022773000001,None,-23.693321987879756,141.4945995368057,,4,001,2021_Apr_08_1301,AB_pic_singleT2,2021.1.2,60.00772899551331,
AB,lag3,3,4,7,0.06000000005000003,0.02,0.3,main,,,,,0,29,29,29,,,,,,,fingerprint.jpg,bluejay.jpg,englishcucumber.jpg,cow.jpg,doghouse.jpg,ostrich.jpg,snowman.jpg,hockeypuck.jpg,volleyball.jpg,windmill.jpg,bathtub.jpg,drumset.jpg,cross01.jpg,dartboard.jpg,ear.jpg,urinal.jpg,lightswitch01.jpg,,,,,0,1,9,,,,,.\resources\snowman.jpg,,,1,,,,,,,,,1,,,,,,,,,None,429.4014785400003,None,429.4014785400003,None,,,,,,,423.0689139000003,425.8188096000001,425.55209340000033,None,0.17724786974979856,426.0520515999999,None,426.0520515999999,None,428.0518870000003,None,428.0518870000003,None,right,0.7307575999998335,428.0518870000003,None,428.8685015000003,None,left,0.506174899999678,428.8685015000003,None,428.8685015000003,None,-23.61212169794077,141.38878236310003,,4,001,2021_Apr_08_1301,AB_pic_singleT2,2021.1.2,60.00772899551331,
AB,lag1,1,4,5,0.06000000005000003,0.02,0.3,main,,,,,0,30,30,30,,,,,,,seagull.jpg,marble.jpg,anchor.jpg,fingerprint.jpg,basketball01.jpg,penguin.jpg,licenseplate.jpg,noparkingsign.jpg,baseballbat.jpg,panda.jpg,beaver.jpg,soccerball.jpg,elbow.jpg,ipad02.jpg,safe.jpg,lip.jpg,beerbottle.jpg,,,,,0,1,7,,,,,.\resources\basketball01.jpg,,,1,,,,,,,,,1,,,,,,,,,None,436.00139344000024,None,436.00139344000024,None,,,,,,,429.4184694000003,432.1682607,431.9016128999999,None,0.17680621928592832,432.40157920000024,None,432.40157920000024,None,434.0014561999999,None,434.0014561999999,None,right,1.0772594000000026,434.0014561999999,None,435.1513445000003,None,left,0.8233313000000635,435.1513445000003,None,435.1513445000003,None,-23.53267639191383,141.2867683416414,,4,001,2021_Apr_08_1301,AB_pic_singleT2,2021.1.2,60.00772899551331,
AB,lag4,4,5,9,0.06000000005000003,0.02,0.3,main,,,,,0,31,31,31,,,,,,,basketball01.jpg,rollerblade.jpg,bathtub.jpg,locker.jpg,rubikcube.jpg,lily.jpg,saltshaker03a.jpg,helicopter.jpg,dragonfly01.jpg,foosballtable.jpg,humanskeleton.jpg,ear.jpg,skippingrope.jpg,cactus.jpg,ironingboard01.jpg,kneepad01c.jpg,stubbywrench01a.jpg,,,,,0,0,11,,,,,.\resources\dragonfly01.jpg,,,1,,,,,,,,,1,,,,,,,,,None,442.51717804,None,442.51717804,None,,,,,,,436.0183601000001,438.76775440000006,438.5011050999999,None,0.17637158132726125,439.0010813000001,None,439.0010813000001,None,441.38423119999993,None,441.38423119999993,None,right,0.6226233000002139,441.38423119999993,None,442.0841775000001,None,right,0.40250860000014654,442.0841775000001,None,442.0841775000001,None,-23.455088960103097,141.18822257716306,,4,001,2021_Apr_08_1301,AB_pic_singleT2,2021.1.2,60.00772899551331,
AB,lag6,6,3,9,0.06000000005000003,0.02,0.3,main,,,,,0,32,32,32,,,,,,,showerhead01.jpg,parrot01.jpg,panda.jpg,spear02.jpg,waterfountain02.jpg,guitarcase.jpg,chefshat.jpg,floorlamp.jpg,ducttape.jpg,saxophone.jpg,volleyball.jpg,honeybee.jpg,accordion01.jpg,golfball.jpg,beaver.jpg,bridge.jpg,eyepatch.jpg,,,,,1,0,11,,,,,.\resources\ducttape.jpg,,,0,,,,,,,,,1,,,,,,,,,None,449.25003944000025,None,449.25003944000025,None,,,,,,,442.5341745000003,445.28437020000024,445.0177070000002,None,0.17594515227816912,445.51726239999994,None,445.51726239999994,None,447.9004255000002,None,447.9004255000002,None,right,0.6501783999997315,447.9004255000002,None,448.6170393,None,right,0.5897952999998779,448.6170393,None,448.6170393,None,-23.632500244498296,141.0488666584003,,4,001,2021_Apr_08_1301,AB_pic_singleT2,2021.1.2,60.00772899551331,
AB,lag2,2,3,5,0.06000000005000003,0.02,0.3,main,,,,,0,33,33,33,,,,,,,lollipop04.jpg,flag.jpg,polarbear.jpg,waterfountain02.jpg,granolabar01.jpg,crosscountryski.jpg,drumstick.jpg,turnstile.jpg,boat.jpg,acorn.jpg,daddylonglegs.jpg,mailbox02.jpg,dromedary.jpg,hammerheadshark.jpg,wheelchair.jpg,drumset.jpg,seagull.jpg,,,,,0,0,7,,,,,.\resources\granolabar01.jpg,,,1,,,,,,,,,1,,,,,,,,,None,454.8996330399999,None,454.8996330399999,None,,,,,,,449.2670045000002,452.0168056,451.7505569000002,None,0.1773767857788609,452.2501185000003,None,452.2501185000003,None,453.84998850000034,None,453.84998850000034,None,right,0.5806468999999197,453.84998850000034,None,454.49995220000005,None,right,0.37865510000028735,454.49995220000005,None,454.49995220000005,None,-23.57082155661128,140.9552931148322,,4,001,2021_Apr_08_1301,AB_pic_singleT2,2021.1.2,60.00772899551331,
AB,lag5,5,4,9,0.06000000005000003,0.02,0.3,main,,,,,0,34,34,34,,,,,,,crown.jpg,scooter.jpg,honeybee.jpg,boat.jpg,parachute.jpg,bumpercar.jpg,tennisracket.jpg,seagull.jpg,brownsugar.jpg,icecube02.jpg,lip.jpg,church.jpg,marble.jpg,christmastree.jpg,rollerblade.jpg,hulahoop.jpg,tiger02.jpg,,,,,0,0,11,,,,,.\resources\brownsugar.jpg,,,1,,,,,,,,,1,,,,,,,,,None,461.5158127399999,None,461.5158127399999,None,,,,,,,454.9165912000001,457.66637259999993,457.39974000000007,None,0.17705696158142378,457.8997492000001,None,457.8997492000001,None,460.28287539999997,None,460.28287539999997,None,right,0.6037725999999566,460.28287539999997,None,460.96615240000006,None,right,0.5205447999996977,460.96615240000006,None,460.96615240000006,None,-23.504842938468055,140.86567279845244,,4,001,2021_Apr_08_1301,AB_pic_singleT2,2021.1.2,60.00772899551331,
AB,lag7,7,5,12,0.06000000005000003,0.02,0.3,main,,,,,0,35,35,35,,,,,,,magneticcompass.jpg,electrictoothbrush01c.jpg,tire.jpg,shovel01.jpg,boxingglove01.jpg,cross01.jpg,seal.jpg,daddylonglegs.jpg,cobra.jpg,lightswitch01.jpg,windmill.jpg,armadillo.jpg,pigeon.jpg,mouse.jpg,soccerball.jpg,sword01.jpg,christmaslights.jpg,,,,,0,0,14,,,,,.\resources\armadillo.jpg,,,1,,,,,,,,,1,,,,,,,,,None,468.71528964000015,None,468.71528964000015,None,,,,,,,461.5327795999999,464.2829782000001,464.0163335,None,0.17670122752476147,464.5329571,None,464.5329571,None,467.49900730000013,None,467.49900730000013,None,right,0.6035945000003267,467.49900730000013,None,468.1822952,None,right,0.4884390999995958,468.1822952,None,468.1822952,None,-23.440033570494958,140.7788103873067,,4,001,2021_Apr_08_1301,AB_pic_singleT2,2021.1.2,60.00772899551331,
AB,lag5,5,5,10,0.06000000005000003,0.02,0.3,main,,,,,0,36,36,36,,,,,,,key07.jpg,xylophone.jpg,table01.jpg,toad.jpg,ostrich.jpg,sausage.jpg,lollipop04.jpg,ducttape.jpg,nosmokingsign.jpg,zebra.jpg,marble.jpg,motorcycle.jpg,curtain.jpg,bathtub.jpg,hockeystick.jpg,parachute.jpg,dandelion.jpg,,,,,1,1,12,,,,,.\resources\zebra.jpg,,,0,,,,,,,,,1,,,,,,,,,None,476.0818786399999,None,476.0818786399999,None,,,,,,,468.7322534000002,471.4820797,471.21543140000017,None,0.1763498914596121,471.71544020000033,None,471.71544020000033,None,474.2985414000002,None,474.2985414000002,None,right,0.7880861000003279,474.2985414000002,None,475.16514310000025,None,left,0.8895524000004116,475.16514310000025,None,475.16514310000025,None,-23.587780917402394,140.65768654569413,,4,001,2021_Apr_08_1301,AB_pic_singleT2,2021.1.2,60.00772899551331,
AB,lag7,7,3,10,0.06000000005000003,0.02,0.3,main,,,,,0,37,37,37,,,,,,,fishingrod.jpg,dragonfly01.jpg,kangaroo.jpg,moose.jpg,panda.jpg,sink.jpg,daddylonglegs.jpg,shower.jpg,boxingglove01.jpg,lion.jpg,showerhead01.jpg,statue.jpg,golfball.jpg,crosscountryski.jpg,fingerprint.jpg,tulip02.jpg,moon.jpg,,,,,1,1,12,,,,,.\resources\lion.jpg,,,0,,,,,,,,,1,,,,,,,,,None,483.2147086399999,None,483.2147086399999,None,,,,,,,476.0988503000001,478.84827850000033,478.58158879999996,None,0.1775521543958367,479.08154880000006,None,479.08154880000006,None,481.6813373000002,None,481.6813373000002,None,right,0.781267299999854,481.6813373000002,None,482.54793810000024,None,left,0.6505628999998407,482.54793810000024,None,482.54793810000024,None,-23.72214369102194,140.54168840854078,,4,001,2021_Apr_08_1301,AB_pic_singleT2,2021.1.2,60.00772899551331,
AB,lag4,4,3,7,0.06000000005000003,0.02,0.3,main,,,,,0,38,38,38,,,,,,,exitsign.jpg,grizzly.jpg,brownsugar.jpg,microwave.jpg,raccoon.jpg,beaver.jpg,lily.jpg,hammerheadshark.jpg,windmill.jpg,cruiseship.jpg,mailbox02.jpg,redfox.jpg,sausage.jpg,lawnmower.jpg,swordfish.jpg,chair.jpg,calendar.jpg,,,,,0,0,9,,,,,.\resources\lily.jpg,,,1,,,,,,,,,1,,,,,,,,,None,489.5971450400001,None,489.5971450400001,None,,,,,,,483.23167820000003,485.98102870000025,485.71440559999996,None,0.17865473466601658,486.2310248000001,None,486.2310248000001,None,488.23087499999997,None,488.23087499999997,None,right,0.7357615000000806,488.23087499999997,None,489.04747220000013,None,right,0.5191111999997702,489.04747220000013,None,489.04747220000013,None,-23.671440367512314,140.4613106700374,,4,001,2021_Apr_08_1301,AB_pic_singleT2,2021.1.2,60.00772899551331,
AB,lag3,3,5,8,0.06000000005000003,0.02,0.3,main,,,,,0,39,39,39,,,,,,,helicopter.jpg,horse.jpg,ipad02.jpg,skateboard.jpg,motorcycle.jpg,tennisracket.jpg,donut.jpg,exitsign.jpg,christmastree.jpg,ducttape.jpg,ceilingfan01.jpg,schoolbus.jpg,tree.jpg,toolbox02.jpg,accordion01.jpg,shower.jpg,frisbee.jpg,,,,,1,1,10,,,,,.\resources\exitsign.jpg,,,0,,,,,,,,,1,,,,,,,,,None,496.8299304400001,None,496.8299304400001,None,,,,,,,489.6141014000002,492.363928,492.0972535000003,None,0.1783959911031744,492.5972330000002,None,492.5972330000002,None,494.8137231000003,None,494.8137231000003,None,right,1.0890110000000277,494.8137231000003,None,495.98029710000014,None,left,0.8263573999997789,495.98029710000014,None,495.98029710000014,None,-23.787084189390708,140.35359883327015,,4,001,2021_Apr_08_1301,AB_pic_singleT2,2021.1.2,60.00772899551331,
AB,lag2,2,4,6,0.06000000005000003,0.02,0.3,main,,,,,0,40,40,40,,,,,,,crosscountryski.jpg,badmintonracket.jpg,statue.jpg,cocktailshrimp02.jpg,windmill.jpg,squid.jpg,bowtie.jpg,birdnest.jpg,foldingchair.jpg,bumpercar.jpg,showerhead01.jpg,key07.jpg,bat.jpg,pig.jpg,licenseplate.jpg,drumset.jpg,surfboard.jpg,,,,,0,0,8,,,,,.\resources\squid.jpg,,,1,,,,,,,,,1,,,,,,,,,None,502.8128170399999,None,502.8128170399999,None,,,,,,,496.84690430000023,499.59669740000004,499.33003810000014,None,0.1793568441405962,499.83005019999996,None,499.83005019999996,None,501.6465298999999,None,501.6465298999999,None,right,0.5841267999999218,501.6465298999999,None,502.2964950000003,None,right,0.49412230000007185,502.2964950000003,None,502.2964950000003,None,-23.740063380179844,140.27739688378352,,4,001,2021_Apr_08_1301,AB_pic_singleT2,2021.1.2,60.00772899551331,
AB,lag1,1,4,5,0.06000000005000003,0.02,0.3,main,,,,,0,41,41,41,,,,,,,lighthouse.jpg,cat.jpg,jackrabbit.jpg,penguin.jpg,leafrake.jpg,badmintonracket.jpg,volleyball.jpg,bench01.jpg,tree.jpg,sink.jpg,wallclock.jpg,bowtie.jpg,porcupine.jpg,crab01.jpg,dalmatian.jpg,lightswitch01.jpg,firehydrant.jpg,,,,,0,1,7,,,,,.\resources\leafrake.jpg,,,1,,,,,,,,,1,,,,,,,,,None,508.77905464,None,508.77905464,None,,,,,,,502.82978640000033,505.5795837000003,505.2962792999999,None,0.17911907619811568,505.79623940000033,None,505.79623940000033,None,507.4127808999999,None,507.4127808999999,None,right,0.7777873999998519,507.4127808999999,None,508.26273920000017,None,left,0.4959288000000015,508.26273920000017,None,508.26273920000017,None,-23.692292649062633,140.20368571425567,,4,001,2021_Apr_08_1301,AB_pic_singleT2,2021.1.2,60.00772899551331,
AB,lag6,6,5,11,0.06000000005000003,0.02,0.3,main,,,,,0,42,42,42,,,,,,,totempole.jpg,spicerack.jpg,platypus.jpg,cow.jpg,jackrabbit.jpg,zipper.jpg,callbell.jpg,porcupine.jpg,apron.jpg,guitarcase.jpg,toolbox02.jpg,tire.jpg,wheelchair.jpg,noparkingsign.jpg,church.jpg,athleticsock.jpg,tree.jpg,,,,,1,0,13,,,,,.\resources\toolbox02.jpg,,,0,,,,,,,,,1,,,,,,,,,None,516.4618388400003,None,516.4618388400003,None,,,,,,,508.79602309999996,511.5458243999999,511.2625068,None,0.17887252308968776,511.76247530000023,None,511.76247530000023,None,514.5789323000001,None,514.5789323000001,None,right,0.6277032999996663,514.5789323000001,None,515.2955570000001,None,right,1.1510200000002442,515.2955570000001,None,515.2955570000001,None,-23.795061122122608,140.10501697906966,,4,001,2021_Apr_08_1301,AB_pic_singleT2,2021.1.2,60.00772899551331,
AB,lag5,5,5,10,0.06000000005000003,0.02,0.3,main,,,,,0,43,43,43,,,,,,,hockeystick.jpg,pirateflag.jpg,cocktailshrimp02.jpg,fireplace.jpg,masquerademask01.jpg,leafblower01.jpg,foot.jpg,sword01.jpg,flamingo.jpg,tulip02.jpg,parkfountain.jpg,saltshaker03a.jpg,soccerball.jpg,cigar.jpg,eyepatch.jpg,callbell.jpg,recyclingbin.jpg,,,,,0,0,12,,,,,.\resources\tulip02.jpg,,,1,,,,,,,,,1,,,,,,,,,None,523.61131874,None,523.61131874,None,,,,,,,516.4787999000002,519.2286439000002,518.9452858000002,None,0.1797320040795138,519.4452504000003,None,519.4452504000003,None,522.0617223000002,None,522.0617223000002,None,right,0.6648534000000836,522.0617223000002,None,522.7950071000002,None,right,0.787521100000049,522.7950071000002,None,522.7950071000002,None,-23.752114130504324,140.03457519603145,,4,001,2021_Apr_08_1301,AB_pic_singleT2,2021.1.2,60.00772899551331,
AB,lag7,7,5,12,0.06000000005000003,0.02,0.3,main,,,,,0,44,44,44,,,,,,,punchingbag.jpg,locker.jpg,ladybug03.jpg,arrow02.jpg,armadillo.jpg,turnstile.jpg,exitsign.jpg,panda.jpg,butterfly.jpg,mattress.jpg,squirrel.jpg,platypus.jpg,firehydrant.jpg,cheetah.jpg,snowshoe.jpg,callbell.jpg,hulahoop.jpg,,,,,1,0,14,,,,,.\resources\platypus.jpg,,,0,,,,,,,,,1,,,,,,,,,None,530.6441794400001,None,530.6441794400001,None,,,,,,,523.6282888000003,526.3781065000001,526.1114542000003,None,0.17951572642994407,526.6114272000002,None,526.6114272000002,None,529.6278702000002,None,529.6278702000002,None,right,0.5708200999997644,529.6278702000002,None,530.2944878999999,None,right,0.32806090000030963,530.2944878999999,None,530.2944878999999,None,-23.84529511777153,139.94137572403383,,4,001,2021_Apr_08_1301,AB_pic_singleT2,2021.1.2,60.00772899551331,
AB,lag3,3,4,7,0.06000000005000003,0.02,0.3,main,,,,,0,45,45,45,,,,,,,treadmill.jpg,pokerchips.jpg,bathtub.jpg,christmastree.jpg,parkingmeter.jpg,foosballtable.jpg,tortoise01.jpg,bowlingball.jpg,soccerball.jpg,telescope.jpg,dartboard.jpg,ladybug03.jpg,motorcycle.jpg,hulahoop.jpg,duck01.jpg,platypus.jpg,toilet.jpg,,,,,1,0,9,,,,,.\resources\tortoise01.jpg,,,0,,,,,,,,,1,,,,,,,,,None,536.6770874400003,None,536.6770874400003,None,,,,,,,530.6611286,533.4109563,533.144329,None,0.18030113930456448,533.6609424000001,None,533.6609424000001,None,535.6774588999999,None,535.6774588999999,None,right,0.5533221000000594,535.6774588999999,None,536.3107668,None,right,0.34382110000024113,536.3107668,None,536.3107668,None,-23.932026249606945,139.85059073116403,,4,001,2021_Apr_08_1301,AB_pic_singleT2,2021.1.2,60.00772899551331,
AB,lag2,2,5,7,0.06000000005000003,0.02,0.3,main,,,,,0,46,46,46,,,,,,,lily.jpg,greathornowl.jpg,giraffe.jpg,cactus.jpg,snowman.jpg,exitsign.jpg,penguin.jpg,fireplace.jpg,birdnest.jpg,xylophone.jpg,tricycle.jpg,doghouse.jpg,greywolf.jpg,sledgehammer.jpg,bat.jpg,coffeemaker.jpg,windshieldwiper02.jpg,,,,,0,0,9,,,,,.\resources\penguin.jpg,,,1,,,,,,,,,1,,,,,,,,,None,542.6599904399999,None,542.6599904399999,None,,,,,,,536.6940550000002,539.4438830000001,539.1772011,None,0.18103835299056018,539.677171,None,539.677171,None,541.7103534,None,541.7103534,None,right,0.5442050000001473,541.7103534,None,542.3269750000002,None,right,0.3115739999998368,542.3269750000002,None,542.3269750000002,None,-23.893437848087604,139.7843408937995,,4,001,2021_Apr_08_1301,AB_pic_singleT2,2021.1.2,60.00772899551331,
AB,lag6,6,5,11,0.06000000005000003,0.02,0.3,main,,,,,0,47,47,47,,,,,,,snowman.jpg,pooltable.jpg,nose.jpg,leafblower01.jpg,ant.jpg,hulahoop.jpg,bowlingball.jpg,ladybug03.jpg,funnel.jpg,cupcake.jpg,pig.jpg,redfox.jpg,badmintonracket.jpg,pigeon.jpg,parrot01.jpg,honeybee.jpg,sink.jpg,,,,,0,0,13,,,,,.\resources\pig.jpg,,,1,,,,,,,,,1,,,,,,,,,None,549.5094786399999,None,549.5094786399999,None,,,,,,,542.6769594,545.4267578000001,545.1601091,None,0.18084809820302872,545.6767493,None,545.6767493,None,548.4931961,None,548.4931961,None,right,0.553389000000152,548.4931961,None,549.1431414000001,None,right,0.33547459999999774,549.1431414000001,None,549.1431414000001,None,-23.854855108083,139.72004857550138,,4,001,2021_Apr_08_1301,AB_pic_singleT2,2021.1.2,60.00772899551331,
AB,lag1,1,4,5,0.06000000005000003,0.02,0.3,main,,,,,0,48,48,48,,,,,,,dalmatian.jpg,leafrake.jpg,snowman.jpg,africanelephant.jpg,jeep.jpg,flamingo.jpg,football.jpg,spiderweb.jpg,grizzly.jpg,dreamcatcher.jpg,dormer.jpg,zebra.jpg,eiffeltower.jpg,electrictoothbrush01c.jpg,chefshat.jpg,pokerchips.jpg,funnel.jpg,,,,,0,0,7,,,,,.\resources\jeep.jpg,,,1,,,,,,,,,1,,,,,,,,,None,555.22572604,None,555.22572604,None,,,,,,,549.5264662000002,552.276235,552.0095839000003,None,0.18065517244336754,552.5262282000001,None,552.5262282000001,None,554.1427609,None,554.1427609,None,right,0.5837562000001526,554.1427609,None,554.8093915000002,None,right,0.3891897999997127,554.8093915000002,None,554.8093915000002,None,-23.816890984664465,139.65749276640966,,4,001,2021_Apr_08_1301,AB_pic_singleT2,2021.1.2,60.00772899551331,
AB,lag4,4,3,7,0.06000000005000003,0.02,0.3,main,,,,,0,49,49,49,,,,,,,boat.jpg,parkingmeter.jpg,accordion01.jpg,toad.jpg,lawnmower.jpg,football.jpg,brownsugar.jpg,anchor.jpg,smokingpipe.jpg,pirateflag.jpg,makiroll.jpg,honeybee.jpg,cocktailshrimp02.jpg,zebra.jpg,nosmokingsign.jpg,africanelephant.jpg,greatwhiteshark.jpg,,,,,0,0,9,,,,,.\resources\brownsugar.jpg,,,1,,,,,,,,,1,,,,,,,,,None,561.9252090399999,None,561.9252090399999,None,,,,,,,555.2426928000002,557.9924867000002,557.7258389000001,None,0.1804642547030331,558.2424755,None,558.2424755,None,560.2589926000003,None,560.2589926000003,None,right,0.8435220999999729,560.2589926000003,None,561.1755758000002,None,right,0.7030749999998989,561.1755758000002,None,561.1755758000002,None,-23.779515716456846,139.59657538772768,,4,001,2021_Apr_08_1301,AB_pic_singleT2,2021.1.2,60.00772899551331,
AB,lag3,3,4,7,0.06000000005000003,0.02,0.3,main,,,,,0,50,50,50,,,,,,,hand01b.jpg,snowboard.jpg,armadillo.jpg,tortoise01.jpg,zipper.jpg,spicerack.jpg,duck01.jpg,vulture.jpg,cigar.jpg,fridge.jpg,hotdogweiner.jpg,arrow02.jpg,masquerademask01.jpg,bathtub.jpg,hulahoop.jpg,granolabar01.jpg,birdfeeder.jpg,,,,,1,0,9,,,,,.\resources\duck01.jpg,,,0,,,,,,,,,1,,,,,,,,,None,568.09140264,None,568.09140264,None,,,,,,,561.9421702000002,564.6923743,564.4257386000002,None,0.18027526826986282,564.9252927,None,564.9252927,None,566.9584843,None,566.9584843,None,right,0.640080399999988,566.9584843,None,567.6750952,None,right,0.3873693999998977,567.6750952,None,567.6750952,None,-23.856942821089785,139.51620872986445,,4,001,2021_Apr_08_1301,AB_pic_singleT2,2021.1.2,60.00772899551331,
AB,lag7,7,5,12,0.06000000005000003,0.02,0.3,main,,,,,0,51,51,51,,,,,,,birdnest.jpg,stool01.jpg,spiderweb.jpg,mailbox02.jpg,bathtub.jpg,holdfast.jpg,elbow.jpg,flag.jpg,spear02.jpg,butterfly.jpg,witchhat.jpg,ear.jpg,pokerchips.jpg,frisbee.jpg,punchingbag.jpg,bull.jpg,armadillo.jpg,,,,,0,0,14,,,,,.\resources\ear.jpg,,,1,,,,,,,,,1,,,,,,,,,None,575.7408858400003,None,575.7408858400003,None,,,,,,,568.1084376000001,570.858669,570.5919489,None,0.18093408222614768,571.0915078999999,None,571.0915078999999,None,574.1246243000003,None,574.1246243000003,None,right,0.5939791000000696,574.1246243000003,None,574.7912610000001,None,right,0.9272232000002987,574.7912610000001,None,574.7912610000001,None,-23.82231374480625,139.4576148282273,,4,001,2021_Apr_08_1301,AB_pic_singleT2,2021.1.2,60.00772899551331,
AB,lag1,1,5,6,0.06000000005000003,0.02,0.3,main,,,,,0,52,52,52,,,,,,,cymbal.jpg,dragonfly01.jpg,kiwi03.jpg,sandcastle.jpg,fishingrod.jpg,drumstick.jpg,urinal.jpg,scooter.jpg,turnstile.jpg,coffeemaker.jpg,cork02.jpg,icecube02.jpg,footballhelmet.jpg,basketball01.jpg,masquerademask01.jpg,car.jpg,birdnest.jpg,,,,,0,1,8,,,,,.\resources\drumstick.jpg,,,1,,,,,,,,,1,,,,,,,,,None,586.05724464,None,586.05724464,None,,,,,,,575.7578490000003,578.5076498999999,578.2410067000003,None,0.18076179014660537,578.7409911000002,None,578.7409911000002,None,580.574186,None,580.574186,None,right,2.4085251999999855,580.574186,None,583.0911041000002,None,left,2.939378300000044,583.0911041000002,None,583.0911041000002,None,-23.78762381917692,139.40059952971663,,4,001,2021_Apr_08_1301,AB_pic_singleT2,2021.1.2,60.00772899551331,
AB,lag4,4,4,8,0.06000000005000003,0.02,0.3,main,,,,,0,53,53,53,,,,,,,chainsaw.jpg,toad.jpg,soccerball.jpg,giraffe.jpg,christmastree.jpg,ladybug03.jpg,pooltable.jpg,africanelephant.jpg,urinal.jpg,stubbywrench01a.jpg,kiwi03.jpg,curtain.jpg,chimney.jpg,boat.jpg,parachute.jpg,licenseplate.jpg,bowtie.jpg,,,,,1,1,10,,,,,.\resources\africanelephant.jpg,,,0,,,,,,,,,1,,,,,,,,,None,594.5901855400001,None,594.5901855400001,None,,,,,,,586.0742424000002,588.8236256000002,588.556941,None,0.18058687168651938,589.0569028000002,None,589.0569028000002,None,591.2900711,None,591.2900711,None,right,0.9565311999999722,591.2900711,None,592.3399740000002,None,left,2.2265056999999615,592.3399740000002,None,592.3399740000002,None,-23.858974869385616,139.3255200890982,,4,001,2021_Apr_08_1301,AB_pic_singleT2,2021.1.2,60.00772899551331,
AB,lag6,6,5,11,0.06000000005000003,0.02,0.3,main,,,,,0,54,54,54,,,,,,,zipper.jpg,bathtub.jpg,candycane01a.jpg,urinal.jpg,christmastree.jpg,corn02.jpg,key07.jpg,pig.jpg,fortunecookie.jpg,porcupine.jpg,kneepad01c.jpg,cocktailshrimp02.jpg,bluejay.jpg,triangle.jpg,skippingrope.jpg,africanelephant.jpg,dormer.jpg,,,,,0,0,13,,,,,.\resources\kneepad01c.jpg,,,1,,,,,,,,,1,,,,,,,,,None,602.3556148400002,None,602.3556148400002,None,,,,,,,594.6068803000001,597.3562707000003,597.0896199000001,None,0.18119630355128938,597.5895882000002,None,597.5895882000002,None,600.4393873000001,None,600.4393873000001,None,right,0.6470894999997654,600.4393873000001,None,601.1726602000001,None,right,1.1618711999999505,601.1726602000001,None,601.1726602000001,None,-23.826629469238707,139.27057844954683,,4,001,2021_Apr_08_1301,AB_pic_singleT2,2021.1.2,60.00772899551331,
AB,lag2,2,4,6,0.06000000005000003,0.02,0.3,main,,,,,0,55,55,55,,,,,,,well.jpg,sword01.jpg,ladder.jpg,helicopter.jpg,peacock.jpg,masquerademask01.jpg,leafblower01.jpg,alligator.jpg,rollerblade.jpg,callbell.jpg,acorn.jpg,chair.jpg,honeybee.jpg,golfball.jpg,whiteout.jpg,christmastree.jpg,recyclingbin.jpg,,,,,0,0,8,,,,,.\resources\masquerademask01.jpg,,,1,,,,,,,,,1,,,,,,,,,None,608.8551503400003,None,608.8551503400003,None,,,,,,,602.3725973000003,605.1227786000002,604.8394679,None,0.18103553608411568,605.3561038,None,605.3561038,None,607.1722096000001,None,607.1722096000001,None,right,0.8583987000001798,607.1722096000001,None,608.1055256000002,None,right,0.7169663999998193,608.1055256000002,None,608.1055256000002,None,-23.794264440391565,139.2170585508367,,4,001,2021_Apr_08_1301,AB_pic_singleT2,2021.1.2,60.00772899551331,
AB,lag5,5,4,9,0.06000000005000003,0.02,0.3,main,,,,,0,56,56,56,,,,,,,wheelchair.jpg,eye.jpg,crosscountryski.jpg,key07.jpg,pumpkin.jpg,hotdogweiner.jpg,rollerblade.jpg,peacock.jpg,ear.jpg,mummy.jpg,firehydrant.jpg,pigeon.jpg,waterfall.jpg,pokerchips.jpg,cannon.jpg,electrictoothbrush01c.jpg,fridge.jpg,,,,,1,1,11,,,,,.\resources\ear.jpg,,,0,,,,,,,,,1,,,,,,,,,None,615.77128884,None,615.77128884,None,,,,,,,608.8721085,611.6219103000001,611.3552608000002,None,0.18087265356433663,611.8552328000003,None,611.8552328000003,None,614.2883829,None,614.2883829,None,right,0.8703009999999267,614.2883829,None,615.2549537000002,None,left,0.48762189999979455,615.2549537000002,None,615.2549537000002,None,-23.86041258933126,139.14667201092868,,4,001,2021_Apr_08_1301,AB_pic_singleT2,2021.1.2,60.00772899551331,
AB,lag2,2,3,5,0.06000000005000003,0.02,0.3,main,,,,,0,57,57,57,,,,,,,chefshat.jpg,surfboard.jpg,treadmill.jpg,schoolbus.jpg,cat.jpg,nunchuk.jpg,pumpkin.jpg,butterfly.jpg,stubbywrench01a.jpg,well.jpg,daddylonglegs.jpg,lip.jpg,boxingglove01.jpg,sheep.jpg,flamingo.jpg,leafblower01.jpg,baseballbat.jpg,,,,,0,1,7,,,,,.\resources\cat.jpg,,,1,,,,,,,,,1,,,,,,,,,None,621.7208549400001,None,621.7208549400001,None,,,,,,,615.7882617000002,618.5384709000002,618.2717817,None,0.18143953129161622,618.7713662000003,None,618.7713662000003,None,620.4045839000003,None,620.4045839000003,None,right,0.6898747999998704,620.4045839000003,None,621.1711929999999,None,left,0.5312644000000546,621.1711929999999,None,621.1711929999999,None,-23.830076565022818,139.09501262446054,,4,001,2021_Apr_08_1301,AB_pic_singleT2,2021.1.2,60.00772899551331,
AB,lag6,6,5,11,0.06000000005000003,0.02,0.3,main,,,,,0,58,58,58,,,,,,,moon.jpg,acousticguitar02.jpg,lily.jpg,fishskeleton.jpg,dandelion.jpg,safe.jpg,dormer.jpg,doghouse.jpg,toad.jpg,eye.jpg,magneticcompass.jpg,jackrabbit.jpg,turnstile.jpg,coffeemaker.jpg,zebra.jpg,electrictoothbrush01c.jpg,moose.jpg,,,,,0,1,13,,,,,.\resources\magneticcompass.jpg,,,1,,,,,,,,,1,,,,,,,,,space,629.3210784,None,629.3210784,None,,,,,,,621.7378272000003,624.4880429000002,624.2213928000003,None,0.1812888215785552,624.7210044999999,None,624.7210044999999,None,627.5707739000002,None,627.5707739000002,None,right,1.1317223000000922,627.5707739000002,None,628.7707186,None,left,0.4918609999999717,628.7707186,None,628.7707186,None,-23.799748353316733,139.0446421377357,8.853510100000221,4,001,2021_Apr_08_1301,AB_pic_singleT2,2021.1.2,60.00772899551331,
AB,lag7,7,4,11,0.06000000005000003,0.02,0.3,main,,,,,0,59,59,59,,,,,,,brownsugar.jpg,dromedary.jpg,birdfeeder.jpg,bowlingpin.jpg,schoolbus.jpg,drumstick.jpg,tire.jpg,sandcastle.jpg,hockeypuck.jpg,ear.jpg,snowshovel.jpg,lizard.jpg,jeep.jpg,parkingmeter.jpg,shovel01.jpg,englishcucumber.jpg,trophy01.jpg,,,,,1,0,13,,,,,.\resources\snowshovel.jpg,,,0,,,,,,,,,1,,,,,,,,,None,645.6695938400002,None,645.6695938400002,None,,,,,,,638.2371501,640.9865034000002,640.7032277999999,None,0.1811363769737181,641.2031554000002,None,641.2031554000002,None,644.0529397000003,None,644.0529397000003,None,right,0.5854615000002923,644.0529397000003,None,644.7195321000002,None,right,0.9189456999997674,644.7195321000002,None,644.7195321000002,None,-23.8613936136855,138.9784516360296,,4,001,2021_Apr_08_1301,AB_pic_singleT2,2021.1.2,60.00772899551331,
AB,lag5,5,3,8,0.06000000005000003,0.02,0.3,main,,,,,0,60,60,60,,,,,,,wheelchair.jpg,golfball.jpg,christmaslights.jpg,boat.jpg,dolphin01.jpg,fingerprint.jpg,crown.jpg,wheelbarrow01.jpg,chair.jpg,microphone01.jpg,microwave.jpg,kiwi03.jpg,saltshaker03a.jpg,uprightpiano01.jpg,pig.jpg,leafrake.jpg,swordfish.jpg,,,,,1,1,10,,,,,.\resources\wheelbarrow01.jpg,,,0,,,,,,,,,1,,,,,,,,,None,652.40201264,None,652.40201264,None,,,,,,,645.6865850000002,648.4359328000003,648.1693204999999,None,0.18166620564263092,648.6859199000003,None,648.6859199000003,None,650.9190881000002,None,650.9190881000002,None,right,0.8553397999999106,650.9190881000002,None,651.8690205999999,None,left,0.513409899999715,651.8690205999999,None,651.8690205999999,None,-23.9199550295475,138.91341640534503,,4,001,2021_Apr_08_1301,AB_pic_singleT2,2021.1.2,60.00772899551331,
AB,lag3,3,5,8,0.06000000005000003,0.02,0.3,main,,,,,0,61,61,61,,,,,,,chimney.jpg,totempole.jpg,drumstick.jpg,armadillo.jpg,cork02.jpg,curtain.jpg,wheelchair.jpg,snowshoe.jpg,wheelbarrow01.jpg,giraffe.jpg,smokingpipe.jpg,punchingbag.jpg,bacon.jpg,lion.jpg,jeans01.jpg,acousticguitar02.jpg,greatwhiteshark.jpg,,,,,1,0,10,,,,,.\resources\snowshoe.jpg,,,0,,,,,,,,,1,,,,,,,,,None,659.3353187400002,None,659.3353187400002,None,,,,,,,652.4189872,655.1688016999999,654.9021388000003,None,0.18217282423480638,655.4021026000003,None,655.4021026000003,None,657.6519283,None,657.6519283,None,right,0.6026854000001549,657.6519283,None,658.3685496,None,right,0.9338674999999057,658.3685496,None,658.3685496,None,-23.975372628426353,138.84942187323887,,4,001,2021_Apr_08_1301,AB_pic_singleT2,2021.1.2,60.00772899551331,
AB,lag4,4,5,9,0.06000000005000003,0.02,0.3,main,,,,,0,62,62,62,,,,,,,golfball.jpg,foldingchair.jpg,statue.jpg,holdfast.jpg,seagull.jpg,cupcake.jpg,arrow02.jpg,saxophone.jpg,hotdogweiner.jpg,urinal.jpg,birdhouse.jpg,lip.jpg,greywolf.jpg,vacuumcleaner01.jpg,fingerprint.jpg,ladder.jpg,witchhat.jpg,,,,,0,0,11,,,,,.\resources\hotdogweiner.jpg,,,1,,,,,,,,,1,,,,,,,,,None,666.23478534,None,666.23478534,None,,,,,,,659.3522346000002,662.1016098000002,661.8349651000001,None,0.18265590628601905,662.3349650000002,None,662.3349650000002,None,664.8014175000001,None,664.8014175000001,None,right,0.6371076000000357,664.8014175000001,None,665.5347006,None,right,0.6796721000000616,665.5347006,None,665.5347006,None,-23.948373956425762,138.80157788466346,,4,001,2021_Apr_08_1301,AB_pic_singleT2,2021.1.2,60.00772899551331,
AB,lag1,1,3,4,0.06000000005000003,0.02,0.3,main,,,,,0,63,63,63,,,,,,,safe.jpg,tree.jpg,foldingchair.jpg,ladybug03.jpg,spicerack.jpg,toyanimal05.jpg,sausage.jpg,crosscountryski.jpg,spiderweb.jpg,bull.jpg,eiffeltower.jpg,mrpotatohead.jpg,rubikcube.jpg,eye.jpg,swordfish.jpg,tortoise01.jpg,escalator.jpg,,,,,0,0,6,,,,,.\resources\ladybug03.jpg,,,1,,,,,,,,,1,,,,,,,,,None,671.9506021400001,None,671.9506021400001,None,,,,,,,666.2517381,669.0011144000002,668.7344634000003,None,0.18252435385567,669.2344298,None,669.2344298,None,670.6843286000001,None,670.6843286000001,None,right,0.6660811000001559,670.6843286000001,None,671.4342702000001,None,right,0.4761917999999241,671.4342702000001,None,671.4342702000001,None,-23.921519613646506,138.75491146737988,,4,001,2021_Apr_08_1301,AB_pic_singleT2,2021.1.2,60.00772899551331,
AB,lag5,5,4,9,0.06000000005000003,0.02,0.3,main,,,,,0,64,64,64,,,,,,,hotdogweiner.jpg,ladybug03.jpg,mattress.jpg,seal.jpg,fishingrod.jpg,cactus.jpg,stool01.jpg,locker.jpg,holdfast.jpg,ipad02.jpg,pumpkin.jpg,doghouse.jpg,pooltable.jpg,witchhat.jpg,candycane01a.jpg,butterfly.jpg,armadillo.jpg,,,,,0,1,11,,,,,.\resources\holdfast.jpg,,,1,,,,,,,,,1,,,,,,,,,None,679.0004752399999,None,679.0004752399999,None,,,,,,,671.9679889000001,674.7173681000002,674.4507143000003,None,0.18239220296512568,674.9506765000003,None,674.9506765000003,None,677.4005027000001,None,677.4005027000001,None,right,0.9579283999996733,677.4005027000001,None,678.4504002000001,None,left,0.5159872000003816,678.4504002000001,None,678.4504002000001,None,-23.895017284207253,138.70933022418066,,4,001,2021_Apr_08_1301,AB_pic_singleT2,2021.1.2,60.00772899551331,
AB,lag4,4,3,7,0.06000000005000003,0.02,0.3,main,,,,,0,65,65,65,,,,,,,scorpion.jpg,raccoon.jpg,triangle.jpg,butterfly.jpg,apron.jpg,spicerack.jpg,icecube02.jpg,cocktailshrimp02.jpg,acorn.jpg,tricycle.jpg,bullet.jpg,ant.jpg,mummy.jpg,bacon.jpg,parkingmeter.jpg,tree.jpg,nosmokingsign.jpg,,,,,1,1,9,,,,,.\resources\icecube02.jpg,,,0,,,,,,,,,1,,,,,,,,,None,685.4000278400002,None,685.4000278400002,None,,,,,,,679.0174328,681.7668455,681.5002070000003,None,0.1822610750442507,682.0001693000002,None,682.0001693000002,None,684.0500191000003,None,684.0500191000003,None,right,0.8284429999998792,684.0500191000003,None,684.9499226999999,None,left,0.4165733999998338,684.9499226999999,None,684.9499226999999,None,-23.94677709654842,138.65004832644914,,4,001,2021_Apr_08_1301,AB_pic_singleT2,2021.1.2,60.00772899551331,
AB,lag7,7,3,10,0.06000000005000003,0.02,0.3,main,,,,,0,66,66,66,,,,,,,cat.jpg,frisbee.jpg,electrictoothbrush01c.jpg,recyclingbin.jpg,slug.jpg,tie02.jpg,cruiseship.jpg,redfox.jpg,swordfish.jpg,leafrake.jpg,swing.jpg,dandelion.jpg,makiroll.jpg,tent.jpg,arrow02.jpg,bowtie.jpg,fingerprint.jpg,,,,,0,0,12,,,,,.\resources\leafrake.jpg,,,1,,,,,,,,,1,,,,,,,,,None,692.31576304,None,692.31576304,None,,,,,,,685.4169613000001,688.1667617,687.900128,None,0.1827123161040812,688.4167439,None,688.4167439,None,691.0661416,None,691.0661416,None,right,0.6602836000001844,691.0661416,None,691.7994328000002,None,right,0.4790077000002384,691.7994328000002,None,691.7994328000002,None,-23.921523827039,138.60580660477524,,4,001,2021_Apr_08_1301,AB_pic_singleT2,2021.1.2,60.00772899551331,
AB,lag2,2,3,5,0.06000000005000003,0.02,0.3,main,,,,,0,67,67,67,,,,,,,bacon.jpg,parachute.jpg,smokingpipe.jpg,table01.jpg,tennisracket.jpg,snowshovel.jpg,arrow02.jpg,apron.jpg,parrot01.jpg,windshieldwiper02.jpg,foot.jpg,jeans01.jpg,ironingboard01.jpg,armadillo.jpg,toolbox02.jpg,well.jpg,boxingglove01.jpg,,,,,0,1,7,,,,,.\resources\tennisracket.jpg,,,1,,,,,,,,,1,,,,,,,,,None,698.3486599400002,None,698.3486599400002,None,,,,,,,692.3327233000002,695.0825210999999,694.8162772000003,None,0.18258844133653335,695.3158461,None,695.3158461,None,696.9657187,None,696.9657187,None,right,0.8728001999998014,696.9657187,None,697.9156457000001,None,left,0.40293560000009165,697.9156457000001,None,697.9156457000001,None,-23.896385933110437,138.56260335933368,,4,001,2021_Apr_08_1301,AB_pic_singleT2,2021.1.2,60.00772899551331,
AB,lag6,6,4,10,0.06000000005000003,0.02,0.3,main,,,,,0,68,68,68,,,,,,,wallclock.jpg,chefshat.jpg,tent.jpg,jackrabbit.jpg,dalmatian.jpg,tire.jpg,turnstile.jpg,bluecheese.jpg,arrow02.jpg,slug.jpg,ducttape.jpg,crab01.jpg,mrpotatohead.jpg,crown.jpg,birdhouse.jpg,polarbear.jpg,sword01.jpg,,,,,1,0,12,,,,,.\resources\slug.jpg,,,1,,,,,,,,,1,,,,,,,,,None,715.0144816400001,None,715.0144816400001,None,,,,,,,698.3656198000001,701.1154180000001,700.8325090000001,None,0.18246395261977638,701.3320689,None,701.3320689,None,703.9985449000003,None,703.9985449000003,None,left,9.271861499999886,703.9985449000003,None,713.3478438,None,right,1.6345978999997897,713.3478438,None,713.3478438,None,-23.87155695219697,138.52035720516145,,4,001,2021_Apr_08_1301,AB_pic_singleT2,2021.1.2,60.00772899551331,
AB,lag1,1,4,5,0.06000000005000003,0.02,0.3,main,,,,,0,69,69,69,,,,,,,statue.jpg,coffeemaker.jpg,football.jpg,swing.jpg,paperairplane.jpg,whiteout.jpg,hockeypuck.jpg,bumpercar.jpg,wheelchair.jpg,platypus.jpg,daddylonglegs.jpg,kiwi03.jpg,accordion01.jpg,knee.jpg,lollipop04.jpg,redfox.jpg,penguin.jpg,,,,,0,0,7,,,,,.\resources\paperairplane.jpg,,,1,,,,,,,,,0,,,,,,,,,None,721.3640274400003,None,721.3640274400003,None,,,,,,,715.0314344000001,717.7812357,717.5145912999999,None,0.1823403564857088,718.0141488000002,None,718.0141488000002,None,719.6640497000001,None,719.6640497000001,None,right,0.7102905000001556,719.6640497000001,None,720.4639884999999,None,left,0.878370200000063,720.4639884999999,None,720.4639884999999,None,-23.847025213810447,138.47902622514385,,4,001,2021_Apr_08_1301,AB_pic_singleT2,2021.1.2,60.00772899551331,
AB,lag3,3,5,8,0.06000000005000003,0.02,0.3,main,,,,,0,70,70,70,,,,,,,pokerchips.jpg,tiger02.jpg,apron.jpg,athleticsock.jpg,birthdaycandle.jpg,key07.jpg,trophy01.jpg,nunchuk.jpg,musicsheet.jpg,fishskeleton.jpg,rubikcube.jpg,toucan.jpg,kneepad01c.jpg,frenchfries.jpg,sandcastle.jpg,footballhelmet.jpg,shower.jpg,,,,,0,0,10,,,,,.\resources\nunchuk.jpg,,,1,,,,,,,,,1,,,,,,,,,None,727.6298666400002,None,727.6298666400002,None,,,,,,,721.3809804,724.1307750000003,723.8641548000003,None,0.1822176271943533,724.3807622000002,None,724.3807622000002,None,726.6135532000001,None,726.6135532000001,None,right,0.5687978999999359,726.6135532000001,None,727.2801602000002,None,right,0.3343003999998473,727.2801602000002,None,727.2801602000002,None,-23.82277908334499,138.4385706838571,,4,001,2021_Apr_08_1301,AB_pic_singleT2,2021.1.2,60.00772899551331,
AB,lag4,4,3,7,0.06000000005000003,0.02,0.3,main,,,,,0,71,71,71,,,,,,,windshieldwiper02.jpg,waterfountain02.jpg,vulture.jpg,horse.jpg,surfboard.jpg,rubikcube.jpg,cobra.jpg,jeans01.jpg,nunchuk.jpg,cymbal.jpg,motorcycle.jpg,raccoon.jpg,toolbox02.jpg,pigeon.jpg,nosmokingsign.jpg,handcuffs.jpg,tulip02.jpg,,,,,0,1,9,,,,,.\resources\cobra.jpg,,,1,,,,,,,,,1,,,,,,,,,None,734.04647874,None,734.04647874,None,,,,,,,727.6468026,730.3970344000002,730.1303941000003,None,0.18209573618058478,730.6299471,None,730.6299471,None,732.6798259,None,732.6798259,None,right,0.8385098999997354,732.6798259,None,733.6130586000002,None,left,0.4172103999999308,733.6130586000002,None,733.6130586000002,None,-23.79880749126073,138.39895279845425,,4,001,2021_Apr_08_1301,AB_pic_singleT2,2021.1.2,60.00772899551331,
AB,lag1,1,3,4,0.06000000005000003,0.02,0.3,main,,,,,0,72,72,72,,,,,,,treadmill.jpg,raccoon.jpg,pooltable.jpg,dragonfly01.jpg,funnel.jpg,horse.jpg,shovel01.jpg,makiroll.jpg,foosballtable.jpg,basketball01.jpg,crosscountryski.jpg,golfball.jpg,firehydrant.jpg,sheep.jpg,toad.jpg,moose.jpg,dandelion.jpg,,,,,0,1,6,,,,,.\resources\dragonfly01.jpg,,,1,,,,,,,,,1,,,,,,,,,None,739.9289839400002,None,739.9289839400002,None,,,,,,,734.0634484,736.812835,736.5461879000002,None,0.18197465618874184,737.0461462000001,None,737.0461462000001,None,738.4793814000002,None,738.4793814000002,None,right,0.958982599999672,738.4793814000002,None,739.5293045999999,None,left,0.3730910999997832,739.5293045999999,None,739.5293045999999,None,-23.775099900029495,138.36013662108604,,4,001,2021_Apr_08_1301,AB_pic_singleT2,2021.1.2,60.00772899551331,
AB,lag2,2,3,5,0.06000000005000003,0.02,0.3,main,,,,,0,73,73,73,,,,,,,rollerblade.jpg,soccerball.jpg,mattress.jpg,dalmatian.jpg,peacock.jpg,armadillo.jpg,tire.jpg,wheelbarrow01.jpg,anchor.jpg,cruiseship.jpg,noparkingsign.jpg,badmintonracket.jpg,pingpongtable.jpg,trophy01.jpg,apron.jpg,scorpion.jpg,golfball.jpg,,,,,1,1,7,,,,,.\resources\peacock.jpg,,,0,,,,,,,,,1,,,,,,,,,None,745.8118840400001,None,745.8118840400001,None,,,,,,,739.9459473,742.6957408999999,742.4290919000002,None,0.1818543612027252,742.9457257000001,None,742.9457257000001,None,744.5789366000001,None,744.5789366000001,None,right,0.755380999999943,744.5789366000001,None,745.4288787000003,None,left,0.3534834000001865,745.4288787000003,None,745.4288787000003,None,-23.82325396136603,138.3088168238026,,4,001,2021_Apr_08_1301,AB_pic_singleT2,2021.1.2,60.00772899551331,
AB,lag5,5,5,10,0.06000000005000003,0.02,0.3,main,,,,,0,74,74,74,,,,,,,birdhouse.jpg,ceilingfan01.jpg,mailbox02.jpg,barrel01.jpg,volleyball.jpg,sausage.jpg,fridge.jpg,rooster.jpg,chair.jpg,cupcake.jpg,key07.jpg,lollipop04.jpg,mouse.jpg,skunk.jpg,cannon.jpg,honeybee.jpg,foot.jpg,,,,,0,1,12,,,,,.\resources\cupcake.jpg,,,1,,,,,,,,,1,,,,,,,,,None,753.04512104,None,753.04512104,None,,,,,,,745.8288514000003,748.5790479,748.3124088000002,None,0.18227000202453775,748.8119687000001,None,748.8119687000001,None,751.4617720000003,None,751.4617720000003,None,right,0.6886872000000039,751.4617720000003,None,752.2450670000001,None,left,0.7533502000001135,752.2450670000001,None,752.2450670000001,None,-23.80067973142576,138.27113524350193,,4,001,2021_Apr_08_1301,AB_pic_singleT2,2021.1.2,60.00772899551331,
AB,lag6,6,4,10,0.06000000005000003,0.02,0.3,main,,,,,0,75,75,75,,,,,,,candycane01a.jpg,urinal.jpg,bowtie.jpg,birdfeeder.jpg,christmaslights.jpg,tent.jpg,sink.jpg,englishcucumber.jpg,handcuffs.jpg,fingerprint.jpg,cashregister01.jpg,apron.jpg,ceilingfan01.jpg,steeringwheel.jpg,cloud.jpg,icecube02.jpg,eye.jpg,,,,,1,0,12,,,,,.\resources\fingerprint.jpg,,,0,,,,,,,,,1,,,,,,,,,None,760.0941914399999,None,760.0941914399999,None,,,,,,,753.0620577000002,755.8114550000003,755.5448057000001,None,0.18215641354350792,756.0447746000002,None,756.0447746000002,None,758.6945767,None,758.6945767,None,right,0.8957476999999017,758.6945767,None,759.6778418000001,None,right,0.40041359999986526,759.6778418000001,None,759.6778418000001,None,-23.846532160185927,138.22149042987976,,4,001,2021_Apr_08_1301,AB_pic_singleT2,2021.1.2,60.00772899551331,
AB,lag7,7,3,10,0.06000000005000003,0.02,0.3,main,,,,,0,76,76,76,,,,,,,firehydrant.jpg,elbow.jpg,slug.jpg,callbell.jpg,church.jpg,brownsugar.jpg,bowlingball.jpg,drumstick.jpg,uprightpiano01.jpg,curtain.jpg,stubbywrench01a.jpg,pingpongtable.jpg,showerhead01.jpg,horse.jpg,magneticcompass.jpg,golfball.jpg,mrpotatohead.jpg,,,,,0,0,12,,,,,.\resources\curtain.jpg,,,1,,,,,,,,,1,,,,,,,,,None,766.7936949399999,None,766.7936949399999,None,,,,,,,760.1111635,762.8613415000002,762.5947011000001,None,0.1825535699465382,763.1109274000003,None,763.1109274000003,None,765.7607317,None,765.7607317,None,right,0.6218840000001364,765.7607317,None,766.4606867,None,right,0.31361040000001594,766.4606867,None,766.4606867,None,-23.824754457252652,138.18491024900965,,4,001,2021_Apr_08_1301,AB_pic_singleT2,2021.1.2,60.00772899551331,
AB,lag3,3,4,7,0.06000000005000003,0.02,0.3,main,,,,,0,77,77,77,,,,,,,acousticguitar02.jpg,lizard.jpg,bed.jpg,surfboard.jpg,calendar.jpg,christmaslights.jpg,dartboard.jpg,corn02.jpg,butterfly.jpg,raccoon.jpg,granolabar01.jpg,scorpion.jpg,moon.jpg,dromedary.jpg,parkfountain.jpg,footballhelmet.jpg,africanelephant.jpg,,,,,1,0,9,,,,,.\resources\dartboard.jpg,,,0,,,,,,,,,1,,,,,,,,,None,773.1765702400002,None,773.1765702400002,None,,,,,,,766.8106564000002,769.5604628000003,769.2938322000002,None,0.18244429708672352,769.8104408000002,None,769.8104408000002,None,771.8436278000001,None,771.8436278000001,None,right,0.8986972000002424,771.8436278000001,None,772.8102340000003,None,right,0.3480029000002105,772.8102340000003,None,772.8102340000003,None,-23.868511687412223,138.13681824514927,,4,001,2021_Apr_08_1301,AB_pic_singleT2,2021.1.2,60.00772899551331,
AB,lag4,4,4,8,0.06000000005000003,0.02,0.3,main,,,,,0,78,78,78,,,,,,,footballhelmet.jpg,seagull.jpg,nose.jpg,safe.jpg,ironingboard01.jpg,peacock.jpg,hotdogweiner.jpg,platypus.jpg,crosscountryski.jpg,cigar.jpg,bow.jpg,greathornowl.jpg,lollipop04.jpg,tent.jpg,pooltable.jpg,horse.jpg,elbow.jpg,,,,,0,1,10,,,,,.\resources\platypus.jpg,,,1,,,,,,,,,1,,,,,,,,,None,779.6094933400003,None,779.6094933400003,None,,,,,,,773.1935292999999,775.9434269000001,775.6771785000003,None,0.18282458195694648,776.1767000000002,None,776.1767000000002,None,778.4265341000003,None,778.4265341000003,None,right,0.6757950999999593,778.4265341000003,None,779.2098266999999,None,left,0.3565859000000273,779.2098266999999,None,779.2098266999999,None,-23.847468534684175,138.1012662207795,,4,001,2021_Apr_08_1301,AB_pic_singleT2,2021.1.2,60.00772899551331,
AB,lag5,5,3,8,0.06000000005000003,0.02,0.3,main,,,,,0,79,79,79,,,,,,,sausage.jpg,foot.jpg,lip.jpg,nose.jpg,totempole.jpg,horseshoe.jpg,telescope.jpg,tie02.jpg,lightswitch01.jpg,mouse.jpg,badmintonracket.jpg,honeybee.jpg,squirrel.jpg,skippingrope.jpg,scorpion.jpg,vacuumcleaner01.jpg,ceilingfan01.jpg,,,,,0,0,10,,,,,.\resources\tie02.jpg,,,1,,,,,,,,,1,,,,,,,,,None,785.9256975400002,None,785.9256975400002,None,,,,,,,779.6264457,782.3762503,782.1095952000003,None,0.18271927250444897,782.6095748,None,782.6095748,None,784.8594064000001,None,784.8594064000001,None,right,0.5708574000000226,784.8594064000001,None,785.5093584000003,None,right,0.36901280000029146,785.5093584000003,None,785.5093584000003,None,-23.826481760677932,138.06645337264638,,4,001,2021_Apr_08_1301,AB_pic_singleT2,2021.1.2,60.00772899551331,
AB,lag6,6,3,9,0.06000000005000003,0.02,0.3,main,,,,,0,80,80,80,,,,,,,mailbox02.jpg,cork02.jpg,boat.jpg,handcuffs.jpg,bridge.jpg,frisbee.jpg,telescope.jpg,scorpion.jpg,smokingpipe.jpg,electricguitar01.jpg,floorlamp.jpg,mrpotatohead.jpg,fortunecookie.jpg,motorcycle.jpg,car.jpg,waterfountain02.jpg,harmonica.jpg,,,,,0,0,11,,,,,.\resources\smokingpipe.jpg,,,1,,,,,,,,,1,,,,,,,,,None,792.4418573400002,None,792.4418573400002,None,,,,,,,785.9426657000001,788.6924615999999,788.4258058000003,None,0.18261333948911995,788.9424430000001,None,788.9424430000001,None,791.3922307,None,791.3922307,None,right,0.5820340000000215,791.3922307,None,792.0588706000001,None,right,0.3555311999998594,792.0588706000001,None,792.0588706000001,None,-23.805712001063508,138.03232095170642,,4,001,2021_Apr_08_1301,AB_pic_singleT2,2021.1.2,60.00772899551331,
AB,lag3,3,5,8,0.06000000005000003,0.02,0.3,main,,,,,0,81,81,81,,,,,,,leafrake.jpg,discoball.jpg,granolabar01.jpg,seal.jpg,cheetah.jpg,tulip02.jpg,dormer.jpg,stool01.jpg,banjo.jpg,chair.jpg,toucan.jpg,flag.jpg,knee.jpg,sheep.jpg,guitarcase.jpg,kiwi03.jpg,vulture.jpg,,,,,0,0,10,,,,,.\resources\stool01.jpg,,,1,,,,,,,,,1,,,,,,,,,None,798.6747600400003,None,798.6747600400003,None,,,,,,,792.4588316000002,795.2086286000001,794.9419820999999,None,0.18250802557320878,795.4419462000003,None,795.4419462000003,None,797.6917725000001,None,797.6917725000001,None,right,0.6026389999997264,797.6917725000001,None,798.4084267000001,None,right,0.24580209999976432,798.4084267000001,None,798.4084267000001,None,-23.78515211549193,137.9988419520704,,4,001,2021_Apr_08_1301,AB_pic_singleT2,2021.1.2,60.00772899551331,
AB,lag7,7,5,12,0.06000000005000003,0.02,0.3,main,,,,,0,82,82,82,,,,,,,cupcake.jpg,cat.jpg,cheetah.jpg,sheep.jpg,toolbox02.jpg,scorpion.jpg,nose.jpg,church.jpg,tennisracket.jpg,trophy01.jpg,nunchuk.jpg,birdnest.jpg,drumstick.jpg,butterfly.jpg,lip.jpg,elbow.jpg,bumpercar.jpg,,,,,1,0,14,,,,,.\resources\birdnest.jpg,,,0,,,,,,,,,1,,,,,,,,,None,805.9408790400001,None,805.9408790400001,None,,,,,,,798.6917063000003,801.4415128000003,801.1748614999999,None,0.1824033167275008,801.6914951000001,None,801.6914951000001,None,804.7412645000002,None,804.7412645000002,None,right,0.8010458999997354,804.7412645000002,None,805.6245528000002,None,right,0.2936737999998513,805.6245528000002,None,805.6245528000002,None,-23.826682136361462,137.9544639963122,,4,001,2021_Apr_08_1301,AB_pic_singleT2,2021.1.2,60.00772899551331,
AB,lag1,1,3,4,0.06000000005000003,0.02,0.3,main,,,,,0,83,83,83,,,,,,,greywolf.jpg,rooster.jpg,beerbottle.jpg,mailbox02.jpg,sandcastle.jpg,giraffe.jpg,shovel01.jpg,sword01.jpg,chainsaw.jpg,greatwhiteshark.jpg,jeep.jpg,magneticcompass.jpg,bacon.jpg,pokerchips.jpg,cupcake.jpg,ceilingfan01.jpg,horseshoe.jpg,,,,,0,0,6,,,,,.\resources\mailbox02.jpg,,,1,,,,,,,,,1,,,,,,,,,None,811.29049754,None,811.29049754,None,,,,,,,805.9578517000002,808.7076454,808.4410012999999,None,0.18276303475149125,808.9410068,None,808.9410068,None,810.3908526000002,None,810.3908526000002,None,right,0.519528999999693,810.3908526000002,None,811.0241693999999,None,right,0.2301697000002605,811.0241693999999,None,811.0241693999999,None,-23.806976518331222,137.92188457132278,,4,001,2021_Apr_08_1301,AB_pic_singleT2,2021.1.2,60.00772899551331,
AB,lag2,2,3,5,0.06000000005000003,0.02,0.3,main,,,,,0,84,84,84,,,,,,,xylophone.jpg,trophy01.jpg,fingerprint.jpg,swing.jpg,zebra.jpg,rooster.jpg,punchingbag.jpg,treadmill.jpg,footballhelmet.jpg,funnel.jpg,badmintonracket.jpg,alligator.jpg,cheetah.jpg,well.jpg,bullet.jpg,jeep.jpg,witchhat.jpg,,,,,0,0,7,,,,,.\resources\zebra.jpg,,,1,,,,,,,,,1,,,,,,,,,None,816.7567732400001,None,816.7567732400001,None,,,,,,,811.3074646000002,814.0572537999999,813.7906126,None,0.1826633311874669,814.2905694000003,None,814.2905694000003,None,815.9404508,None,815.9404508,None,right,0.4658039999999346,815.9404508,None,816.4904143000001,None,right,0.24385510000001887,816.4904143000001,None,816.4904143000001,None,-23.78730117665099,137.88994866638478,,4,001,2021_Apr_08_1301,AB_pic_singleT2,2021.1.2,60.00772899551331,
AB,lag1,1,4,5,0.06000000005000003,0.02,0.3,main,,,,,0,85,85,85,,,,,,,doghouse.jpg,sink.jpg,dreamcatcher.jpg,christmastree.jpg,banjo.jpg,lily.jpg,stubbywrench01a.jpg,barrel01.jpg,football.jpg,tortoise01.jpg,trumpet.jpg,nose.jpg,windmill.jpg,airhockeytable.jpg,wheelbarrow01.jpg,statue.jpg,cobra.jpg,,,,,0,1,7,,,,,.\resources\banjo.jpg,,,1,,,,,,,,,1,,,,,,,,,None,822.58970244,None,822.58970244,None,,,,,,,816.7737312000002,819.5235562,819.2402162999999,None,0.18256294807010667,819.7568481999999,None,819.7568481999999,None,821.3900607000003,None,821.3900607000003,None,right,0.6242242000002989,821.3900607000003,None,822.1233742000002,None,left,0.4349339999998847,822.1233742000002,None,822.1233742000002,None,-23.76781442589298,137.8586027119204,,4,001,2021_Apr_08_1301,AB_pic_singleT2,2021.1.2,60.00772899551331,
AB,lag5,5,4,9,0.06000000005000003,0.02,0.3,main,,,,,0,86,86,86,,,,,,,fortunecookie.jpg,fishskeleton.jpg,eyepatch.jpg,bowlingpin.jpg,drumset.jpg,pigeon.jpg,shower.jpg,pirateflag.jpg,dromedary.jpg,leafrake.jpg,bumpercar.jpg,tarantula.jpg,ant.jpg,porcupine.jpg,horseshoe.jpg,lily.jpg,treadmill.jpg,,,,,0,1,11,,,,,.\resources\dromedary.jpg,,,1,,,,,,,,,1,,,,,,,,,None,829.3058708400002,None,829.3058708400002,None,,,,,,,822.6066426,825.3564687999999,825.0898153,None,0.18246310561827445,825.6064481000001,None,825.6064481000001,None,828.0395737000001,None,828.0395737000001,None,right,0.6627841999998054,828.0395737000001,None,828.7895372999999,None,left,0.4887321000001066,828.7895372999999,None,828.7895372999999,None,-23.74851039951678,137.82782399363532,,4,001,2021_Apr_08_1301,AB_pic_singleT2,2021.1.2,60.00772899551331,
AB,lag7,7,4,11,0.06000000005000003,0.02,0.3,main,,,,,0,87,87,87,,,,,,,barrel01.jpg,tire.jpg,bathtub.jpg,duck01.jpg,schoolbus.jpg,parkingmeter.jpg,golfball.jpg,windshieldwiper02.jpg,drumset.jpg,trampoline.jpg,frisbee.jpg,christmastree.jpg,birthdaycandle.jpg,tiger02.jpg,saxophone.jpg,sandcastle.jpg,electrictoothbrush01c.jpg,,,,,1,1,13,,,,,.\resources\frisbee.jpg,,,0,,,,,,,,,1,,,,,,,,,None,837.75522094,None,837.75522094,None,,,,,,,829.3228267000002,832.0726169000002,831.8059688999999,None,0.18236379297258118,832.3059324000003,None,832.3059324000003,None,835.1723954000001,None,835.1723954000001,None,right,1.6819067000001269,835.1723954000001,None,836.9222409000001,None,left,0.8119426999996904,836.9222409000001,None,836.9222409000001,None,-23.7880442417195,137.78672498553158,,4,001,2021_Apr_08_1301,AB_pic_singleT2,2021.1.2,60.00772899551331,
AB,lag4,4,3,7,0.06000000005000003,0.02,0.3,main,,,,,0,88,88,88,,,,,,,firehydrant.jpg,beerbottle.jpg,bat.jpg,toolbox02.jpg,noparkingsign.jpg,sheep.jpg,sink.jpg,drumstick.jpg,uprightpiano01.jpg,corn02.jpg,dolphin01.jpg,rose.jpg,bacon.jpg,eyepatch.jpg,nosmokingsign.jpg,cactus.jpg,rubikcube.jpg,,,,,0,0,9,,,,,.\resources\sink.jpg,,,1,,,,,,,,,1,,,,,,,,,None,845.2879994399999,None,845.2879994399999,None,,,,,,,837.7721813,840.5223889000001,840.2557364000002,None,0.18270510896810158,840.7552985,None,840.7552985,None,842.8051582999999,None,842.8051582999999,None,right,1.3691005000000587,842.8051582999999,None,844.2550443000002,None,right,1.015226999999868,844.2550443000002,None,844.2550443000002,None,-23.7695290753611,137.75676746758094,,4,001,2021_Apr_08_1301,AB_pic_singleT2,2021.1.2,60.00772899551331,
AB,lag6,6,4,10,0.06000000005000003,0.02,0.3,main,,,,,0,89,89,89,,,,,,,greatwhiteshark.jpg,firehydrant.jpg,treadmill.jpg,acorn.jpg,redfox.jpg,uprightpiano01.jpg,banjo.jpg,parkfountain.jpg,fridge.jpg,tarantula.jpg,volleyball.jpg,horseshoe.jpg,wheelchair.jpg,recyclingbin.jpg,harmonica.jpg,tent.jpg,cat.jpg,,,,,0,0,12,,,,,.\resources\tarantula.jpg,,,1,,,,,,,,,1,,,,,,,,,None,852.0379254399999,None,852.0379254399999,None,,,,,,,845.3049702999999,848.0547736000001,847.7885655000002,None,0.1826104364883638,848.2880830000001,None,848.2880830000001,None,850.9545562999999,None,850.9545562999999,None,right,0.5557563000002119,850.9545562999999,None,851.6045079000003,None,right,0.40972210000018094,851.6045079000003,None,851.6045079000003,None,-23.7510231676489,137.7273740282939,,4,001,2021_Apr_08_1301,AB_pic_singleT2,2021.1.2,60.00772899551331,
AB,lag3,3,3,6,0.06000000005000003,0.02,0.3,main,,,,,0,90,90,90,,,,,,,tarantula.jpg,golfball.jpg,pirateflag.jpg,popcorn.jpg,fingerprint.jpg,acorn.jpg,bumpercar.jpg,magneticcompass.jpg,beaver.jpg,raccoon.jpg,frisbee.jpg,frenchfries.jpg,wheelbarrow01.jpg,mouse.jpg,pig.jpg,bacon.jpg,chair.jpg,,,,,0,0,8,,,,,.\resources\acorn.jpg,,,1,,,,,,,,,1,,,,,,,,,None,857.9370961399999,None,857.9370961399999,None,,,,,,,852.0548821,854.8042791,854.5209683,None,0.18251504253326378,855.0209278,None,855.0209278,None,856.8707936000003,None,856.8707936000003,None,right,0.6154289999999492,856.8707936000003,None,857.5707411000001,None,right,0.34742580000011003,857.5707411000001,None,857.5707411000001,None,-23.73268230236558,137.69849532792048,,4,001,2021_Apr_08_1301,AB_pic_singleT2,2021.1.2,60.00772899551331,
AB,lag2,2,3,5,0.06000000005000003,0.02,0.3,main,,,,,0,91,91,91,,,,,,,recyclingbin.jpg,granolabar01.jpg,treadmill.jpg,electricguitar01.jpg,ladybug03.jpg,bed.jpg,electrictoothbrush01c.jpg,elbow.jpg,apron.jpg,hockeypuck.jpg,cobra.jpg,englishcucumber.jpg,pokerchips.jpg,dreamcatcher.jpg,lily.jpg,turnstile.jpg,hotdogweiner.jpg,,,,,0,0,7,,,,,.\resources\ladybug03.jpg,,,1,,,,,,,,,1,,,,,,,,,None,863.5533853400001,None,863.5533853400001,None,,,,,,,857.9540782000001,860.7038745000002,860.4372052000001,None,0.18242012451672893,860.9371696999999,None,860.9371696999999,None,862.5870439000003,None,862.5870439000003,None,right,0.5391315000001669,862.5870439000003,None,863.2203500000003,None,right,0.31384109999999055,863.2203500000003,None,863.2203500000003,None,-23.714501615519943,137.67011206595592,,4,001,2021_Apr_08_1301,AB_pic_singleT2,2021.1.2,60.00772899551331,
AB,lag4,4,4,8,0.06000000005000003,0.02,0.3,main,,,,,0,92,92,92,,,,,,,helicopter.jpg,fishingrod.jpg,wheelbarrow01.jpg,swing.jpg,arrow02.jpg,hockeystick.jpg,snowman.jpg,grizzly.jpg,popcorn.jpg,firehydrant.jpg,bowlingpin.jpg,foot.jpg,cocktailshrimp02.jpg,daddylonglegs.jpg,tie02.jpg,lion.jpg,birdhouse.jpg,,,,,0,1,10,,,,,.\resources\grizzly.jpg,,,1,,,,,,,,,1,,,,,,,,,None,870.28622304,None,870.28622304,None,,,,,,,863.5703102,866.3201074000001,866.0534627,None,0.1823256740331146,866.5700961,None,866.5700961,None,868.8033058000003,None,868.8033058000003,None,right,0.8829006999999365,868.8033058000003,None,869.7698831,None,left,0.4763735999999881,869.7698831,None,869.7698831,None,-23.69647598653349,137.6422057753363,,4,001,2021_Apr_08_1301,AB_pic_singleT2,2021.1.2,60.00772899551331,
AB,lag7,7,4,11,0.06000000005000003,0.02,0.3,main,,,,,0,93,93,93,,,,,,,mouse.jpg,bowlingpin.jpg,lighthouse.jpg,frenchfries.jpg,cigar.jpg,leafrake.jpg,arrow02.jpg,squid.jpg,tricycle.jpg,church.jpg,bull.jpg,jackrabbit.jpg,cow.jpg,bluecheese.jpg,skippingrope.jpg,hockeystick.jpg,squirrel.jpg,,,,,0,0,13,,,,,.\resources\bull.jpg,,,1,,,,,,,,,1,,,,,,,,,None,877.2190871400002,None,877.2190871400002,None,,,,,,,870.3031897000003,873.0530099,872.7863666999999,None,0.18223167963897807,873.2863269000002,None,873.2863269000002,None,876.1361181,None,876.1361181,None,right,0.5581225999999333,876.1361181,None,876.7694306000001,None,right,0.41278049999982613,876.7694306000001,None,876.7694306000001,None,-23.678600485799073,137.61475870399303,,4,001,2021_Apr_08_1301,AB_pic_singleT2,2021.1.2,60.00772899551331,
AB,lag1,1,5,6,0.06000000005000003,0.02,0.3,main,,,,,0,94,94,94,,,,,,,dartboard.jpg,nunchuk.jpg,handcuffs.jpg,lightswitch01.jpg,corn02.jpg,bat.jpg,fireplace.jpg,whiteout.jpg,christmastree.jpg,spiderweb.jpg,ceilingfan01.jpg,trophy01.jpg,arrow02.jpg,table01.jpg,cupcake.jpg,shovel01.jpg,candycane01a.jpg,,,,,0,0,8,,,,,.\resources\bat.jpg,,,1,,,,,,,,,1,,,,,,,,,None,883.1186541400001,None,883.1186541400001,None,,,,,,,877.2360455999999,879.9858414000003,879.7191906,None,0.18213813026285297,880.2358284,None,880.2358284,None,882.0690274000001,None,882.0690274000001,None,right,0.585141499999736,882.0690274000001,None,882.7522987,None,right,0.34984850000000733,882.7522987,None,882.7522987,None,-23.660870367086346,137.58775378126714,,4,001,2021_Apr_08_1301,AB_pic_singleT2,2021.1.2,60.00772899551331,
AB,lag5,5,4,9,0.06000000005000003,0.02,0.3,main,,,,,0,95,95,95,,,,,,,shower.jpg,sandcastle.jpg,statue.jpg,trumpet.jpg,christmastree.jpg,mummy.jpg,hockeypuck.jpg,lollipop04.jpg,cymbal.jpg,punchingbag.jpg,foosballtable.jpg,bathtub.jpg,bluecheese.jpg,shovel01.jpg,spiderweb.jpg,mouse.jpg,doghouse.jpg,,,,,1,0,11,,,,,.\resources\cymbal.jpg,,,0,,,,,,,,,1,,,,,,,,,None,890.25185494,None,890.25185494,None,,,,,,,883.1356226,885.8854084000002,885.6187666000003,None,0.18204501519826732,886.1353959,None,886.1353959,None,888.5685273000001,None,888.5685273000001,None,right,0.9897496999997202,888.5685273000001,None,889.6517833,None,right,0.5704079000001911,889.6517833,None,889.6517833,None,-23.69837695309706,137.55111118998718,,4,001,2021_Apr_08_1301,AB_pic_singleT2,2021.1.2,60.00772899551331,
AB,lag2,2,5,7,0.06000000005000003,0.02,0.3,main,,,,,0,96,96,96,,,,,,,hand01b.jpg,arrow02.jpg,basketball01.jpg,bow.jpg,schoolbus.jpg,fortunecookie.jpg,eye.jpg,rose.jpg,electrictoothbrush01c.jpg,jellybean.jpg,ladybug03.jpg,skippingrope.jpg,locker.jpg,lollipop04.jpg,fishskeleton.jpg,eiffeltower.jpg,rooster.jpg,,,,,1,0,9,,,,,.\resources\eye.jpg,,,0,,,,,,,,,1,,,,,,,,,None,896.93428274,None,896.93428274,None,,,,,,,890.2688281000003,893.0182423000003,892.7515571000001,None,0.18236618444739217,893.2515244000003,None,893.2515244000003,None,895.3013727,None,895.3013727,None,right,0.8008359999998902,895.3013727,None,896.1846171,None,right,0.7255842999998094,896.1846171,None,896.1846171,None,-23.734721236702374,137.5150295380632,,4,001,2021_Apr_08_1301,AB_pic_singleT2,2021.1.2,60.00772899551331,
AB,lag6,6,3,9,0.06000000005000003,0.02,0.3,main,,,,,0,97,97,97,,,,,,,flag.jpg,bathtub.jpg,squid.jpg,cupcake.jpg,sandcastle.jpg,tricycle.jpg,panda.jpg,pokerchips.jpg,crosscountryski.jpg,elbow.jpg,dandelion.jpg,squirrel.jpg,calendar.jpg,parkingmeter.jpg,snowboard.jpg,toucan.jpg,pingpongtable.jpg,,,,,0,0,11,,,,,.\resources\crosscountryski.jpg,,,1,,,,,,,,,1,,,,,,,,,None,903.48379134,None,903.48379134,None,,,,,,,896.9512320000001,899.7010235,899.4343812,None,0.1826783274687,899.9343876,None,899.9343876,None,902.4008274,None,902.4008274,None,right,0.6532959999999548,902.4008274,None,903.1341196000001,None,right,0.3200187000002188,903.1341196000001,None,903.1341196000001,None,-23.718094772675936,137.48906124015767,,4,001,2021_Apr_08_1301,AB_pic_singleT2,2021.1.2,60.00772899551331,
AB,lag3,3,3,6,0.06000000005000003,0.02,0.3,main,,,,,0,98,98,98,,,,,,,giraffe.jpg,foldingchair.jpg,nosmokingsign.jpg,birdhouse.jpg,christmastree.jpg,squirrel.jpg,chair.jpg,treadmill.jpg,zebra.jpg,candycane01a.jpg,spiderweb.jpg,sword01.jpg,pooltable.jpg,knee.jpg,moose.jpg,chefshat.jpg,porcupine.jpg,,,,,0,0,8,,,,,.\resources\squirrel.jpg,,,1,,,,,,,,,0,,,,,,,,,None,913.8163482399999,None,913.8163482399999,None,,,,,,,903.5007633000002,906.2509532000001,905.9672843999999,None,0.18259190154731642,906.4842863000001,None,906.4842863000001,None,908.3170628,None,908.3170628,None,right,3.529072399999677,908.3170628,None,911.9334465,None,left,1.864620500000001,911.9334465,None,911.9334465,None,-23.701455404770474,137.46354844194076,,4,001,2021_Apr_08_1301,AB_pic_singleT2,2021.1.2,60.00772899551331,
AB,lag1,1,3,4,0.06000000005000003,0.02,0.3,main,,,,,0,99,99,99,,,,,,,candycane01a.jpg,brownsugar.jpg,giraffe.jpg,badmintonracket.jpg,kiwi03.jpg,dromedary.jpg,beerbottle.jpg,harmonica.jpg,africanelephant.jpg,horse.jpg,tiger02.jpg,motorcycle.jpg,cupcake.jpg,sausage.jpg,rooster.jpg,lion.jpg,vulture.jpg,,,,,1,0,6,,,,,.\resources\badmintonracket.jpg,,,0,,,,,,,,,1,,,,,,,,,None,919.3659700400002,None,919.3659700400002,None,,,,,,,913.8333106000002,916.5835393,916.3168397000002,None,0.18250474435036465,916.8164259000002,None,916.8164259000002,None,918.2663720000003,None,918.2663720000003,None,right,0.6438051999998606,918.2663720000003,None,918.9829597999999,None,right,0.3671599999997852,918.9829597999999,None,918.9829597999999,None,-23.736252123851195,137.4289921462272,,4,001,2021_Apr_08_1301,AB_pic_singleT2,2021.1.2,60.00772899551331,
AB,lag2,2,4,6,0.06000000005000003,0.02,0.3,main,,,,,0,100,100,100,,,,,,,tiger02.jpg,funnel.jpg,well.jpg,masquerademask01.jpg,ostrich.jpg,redfox.jpg,frisbee.jpg,trampoline.jpg,boat.jpg,rubikcube.jpg,vulture.jpg,curtain.jpg,cannon.jpg,floorlamp.jpg,soccerball.jpg,icecube02.jpg,stool01.jpg,,,,,0,0,8,,,,,.\resources\redfox.jpg,,,1,,,,,,,,,1,,,,,,,,,None,925.1488958399999,None,925.1488958399999,None,,,,,,,919.3829407999999,922.1327665000001,921.8660781000001,None,0.18280383267484196,922.3660446000001,None,922.3660446000001,None,924.2159245,None,924.2159245,None,right,0.5342350000000806,924.2159245,None,924.8325299,None,right,0.2776568999997835,924.8325299,None,924.8325299,None,-23.72024091248331,137.40413708589077,,4,001,2021_Apr_08_1301,AB_pic_singleT2,2021.1.2,60.00772899551331,
AB,lag3,3,5,8,0.06000000005000003,0.02,0.3,main,,,,,0,101,101,101,,,,,,,jeans01.jpg,xylophone.jpg,tulip02.jpg,cannon.jpg,stubbywrench01a.jpg,volleyball.jpg,tiger02.jpg,spear02.jpg,locker.jpg,snowman.jpg,chimney.jpg,candycane01a.jpg,toilet.jpg,accordion01.jpg,firehydrant.jpg,urinal.jpg,smokingpipe.jpg,,,,,0,0,10,,,,,.\resources\spear02.jpg,,,1,,,,,,,,,1,,,,,,,,,None,931.36510274,None,931.36510274,None,,,,,,,925.1658742000002,927.9160522,927.6494150999999,None,0.1827203736806644,928.1656333000003,None,928.1656333000003,None,930.3988061000002,None,930.3988061000002,None,right,0.5273527999997896,930.3988061000002,None,931.0320929000002,None,right,0.2941092999999455,931.0320929000002,None,931.0320929000002,None,-23.70422183815907,137.3797137964273,,4,001,2021_Apr_08_1301,AB_pic_singleT2,2021.1.2,60.00772899551331,
AB,lag5,5,3,8,0.06000000005000003,0.02,0.3,main,,,,,0,102,102,102,,,,,,,holdfast.jpg,scooter.jpg,badmintonracket.jpg,mummy.jpg,fishingrod.jpg,mrpotatohead.jpg,baseballbat.jpg,pigeon.jpg,corn02.jpg,bluecheese.jpg,tire.jpg,church.jpg,showerhead01.jpg,ceilingfan01.jpg,armadillo.jpg,ostrich.jpg,zebra.jpg,,,,,0,0,10,,,,,.\resources\pigeon.jpg,,,1,,,,,,,,,1,,,,,,,,,None,937.6313118400002,None,937.6313118400002,None,,,,,,,931.3820685000003,934.1322640999999,933.8656149000001,None,0.1826362532422998,934.3651806,None,934.3651806,None,936.6150141999999,None,936.6150141999999,None,right,0.5991365999998379,936.6150141999999,None,937.3149696000003,None,right,0.299178799999936,937.3149696000003,None,937.3149696000003,None,-23.688328183529627,137.35568302462528,,4,001,2021_Apr_08_1301,AB_pic_singleT2,2021.1.2,60.00772899551331,
AB,lag6,6,5,11,0.06000000005000003,0.02,0.3,main,,,,,0,103,103,103,,,,,,,penguin.jpg,granolabar01.jpg,athleticsock.jpg,lion.jpg,foot.jpg,bluecheese.jpg,paperairplane.jpg,ostrich.jpg,parkfountain.jpg,footballhelmet.jpg,lighthouse.jpg,locker.jpg,polarbear.jpg,skunk.jpg,electricguitar01.jpg,church.jpg,bathtub.jpg,,,,,0,1,13,,,,,.\resources\lighthouse.jpg,,,1,,,,,,,,,1,,,,,,,,,None,945.5140735399999,None,945.5140735399999,None,,,,,,,937.6482790000002,940.3984741000002,940.1318312000001,None,0.18255249431619158,940.6313996000001,None,940.6313996000001,None,943.4978607,None,943.4978607,None,right,0.8762362000002213,943.4978607,None,944.4477817,None,left,1.0382861000002777,944.4477817,None,944.4477817,None,-23.67255660893863,137.33203093640537,,4,001,2021_Apr_08_1301,AB_pic_singleT2,2021.1.2,60.00772899551331,
AB,lag7,7,3,10,0.06000000005000003,0.02,0.3,main,,,,,0,104,104,104,,,,,,,makiroll.jpg,harmonica.jpg,eiffeltower.jpg,parrot01.jpg,sink.jpg,lily.jpg,foosballtable.jpg,lollipop04.jpg,trampoline.jpg,moose.jpg,snowshovel.jpg,candycane01a.jpg,donut.jpg,stubbywrench01a.jpg,table01.jpg,leafblower01.jpg,swordfish.jpg,,,,,0,0,12,,,,,.\resources\moose.jpg,,,1,,,,,,,,,1,,,,,,,,,None,952.1969289400002,None,952.1969289400002,None,,,,,,,945.5310512000003,948.2808439000003,948.0141940999999,None,0.1824690918731303,948.5141587,None,948.5141587,None,951.1806257000001,None,951.1806257000001,None,right,0.5695937999998932,951.1806257000001,None,951.8472438000001,None,right,0.3188825000001998,951.8472438000001,None,951.8472438000001,None,-23.656903522526978,137.30874424870544,,4,001,2021_Apr_08_1301,AB_pic_singleT2,2021.1.2,60.00772899551331,
