trialType,cndTyp,lag,T1_loc,T2_loc,stimLen,isi,skipProb,phase,trials.thisRepN,trials.thisTrialN,trials.thisN,trials.thisIndex,trials2.thisRepN,trials2.thisTrialN,trials2.thisN,trials2.thisIndex,key_resp_4.keys,key_resp_4.rt,key_resp_4.started,key_resp_4.stopped,textbox.started,textbox.stopped,img0,img1,img2,img3,img4,img5,img6,img7,img8,img9,img10,img11,img12,img13,img14,img15,img16,option1.started,option1.stopped,text_2.started,text_2.stopped,skip1,skip2,lastPresent,displayPicture.started,displayPicture.stopped,polygon_2.started,polygon_2.stopped,opt1_t1,polygon_4.started,polygon_4.stopped,cor1,option1_t1.started,option1_t1.stopped,key_resp.keys,key_resp.rt,key_resp.started,key_resp.stopped,polygon_5.started,polygon_5.stopped,cor2,key_resp_2.keys,key_resp_2.rt,key_resp_2.started,key_resp_2.stopped,textbox_2.started,textbox_2.stopped,textbox_3.started,textbox_3.stopped,key_resp_3.keys,key_resp_3.started,key_resp_3.stopped,textbox_6.started,textbox_6.stopped,key_resp_7.keys,key_resp_7.rt,key_resp_7.started,key_resp_7.stopped,textbox_4.started,textbox_4.stopped,option1_3.started,option1_3.stopped,text_7.started,text_7.stopped,curStimTim,displayPicture_4.started,displayPicture_4.stopped,polygon_16.started,polygon_16.stopped,polygon_7.started,polygon_7.stopped,option1_t1_2.started,option1_t1_2.stopped,key_resp_6.keys,key_resp_6.rt,key_resp_6.started,key_resp_6.stopped,polygon_17.started,polygon_17.stopped,key_resp_8.keys,key_resp_8.rt,key_resp_8.started,key_resp_8.stopped,textbox_5.started,textbox_5.stopped,B0,B1,key_resp_3.rt,participant,session,date,expName,psychopyVersion,frameRate,
,,,,,,,,,,,,,,,,,space,35.20468719999985,52.15196409999999,None,,,,,,,,,,,,,,,,,,,,,,,,,,,,,,,,,,,,,,,,,,,,,,,,,,,,,,,,,,,,,,,,,,,,,,,,,,,,,,,,,,,,,,,,,,,5,001,2021_Apr_08_1300,AB_pic_singleT2,2021.1.2,60.01500375091349,
AB,lag6,6,5,11,0.2,0.05,0.5,,0,0,0,0,,,,,,,,,52.15196409999999,None,daddylonglegs.jpg,sheep.jpg,pooltable.jpg,table01.jpg,banjo.jpg,bumpercar.jpg,stool01.jpg,mrpotatohead.jpg,leafrake.jpg,dromedary.jpg,mouse.jpg,cruiseship.jpg,soccerball.jpg,mummy.jpg,squirrel.jpg,noparkingsign.jpg,chainsaw.jpg,87.41976169999998,90.16912610000008,89.90245750000008,None,1,0,13,90.4190900000001,None,90.4190900000001,None,.\resources\mouse.jpg,93.91886410000006,None,1,93.91886410000006,None,left,2.461895200000072,93.91886410000006,None,96.419173,None,0,left,1.7935072000000218,96.419173,None,96.419173,None,98.25236670000004,None,None,99.25201532000017,None,99.25201532000017,None,,,,,,,,,,,,,,,,,,,,,,,,,,,,,,,,,,,5,001,2021_Apr_08_1300,AB_pic_singleT2,2021.1.2,60.01500375091349,
AB,lag3,3,5,8,0.2,0.05,0.5,,0,1,1,10,,,,,,,,,,,candycane01a.jpg,urinal.jpg,trampoline.jpg,crown.jpg,stubbywrench01a.jpg,redfox.jpg,fortunecookie.jpg,bacon.jpg,cow.jpg,boat.jpg,lollipop04.jpg,magneticcompass.jpg,slug.jpg,skippingrope.jpg,spear02.jpg,parachute.jpg,daddylonglegs.jpg,99.26897250000002,102.01843389999999,101.73508160000006,None,0,0,10,102.25172280000015,None,102.25172280000015,None,.\resources\bacon.jpg,105.00155970000014,None,1,105.00155970000014,None,right,1.0111947000000328,105.00155970000014,None,106.05188040000007,None,1,right,0.44101899999986927,106.05188040000007,None,106.05188040000007,None,106.53479089999996,None,None,107.53483142000016,None,107.53483142000016,None,,,,,,,,,,,,,,,,,,,,,,,,,,,,,,,,,,,5,001,2021_Apr_08_1300,AB_pic_singleT2,2021.1.2,60.01500375091349,
AB,lag3,3,3,6,0.2,0.05,0.5,,0,2,2,5,,,,,,,,,,,greathornowl.jpg,magneticcompass.jpg,statue.jpg,spiderweb.jpg,leafblower01.jpg,seal.jpg,motorcycle.jpg,turnstile.jpg,soccerball.jpg,floorlamp.jpg,showerhead01.jpg,makiroll.jpg,callbell.jpg,pooltable.jpg,dormer.jpg,guitarcase.jpg,hockeypuck.jpg,107.55178750000005,110.30163430000016,110.01835260000007,None,1,0,8,110.53497749999997,None,110.53497749999997,None,.\resources\seal.jpg,112.78445220000003,None,1,112.78445220000003,None,left,1.908203100000037,112.78445220000003,None,114.71765330000017,None,1,right,0.34317460000011124,114.71765330000017,None,114.71765330000017,None,115.08431580000001,None,None,116.08395432000009,None,116.08395432000009,None,,,,,,,,,,,,,,,,,,,,,,,,,,,,,,,,,,,5,001,2021_Apr_08_1300,AB_pic_singleT2,2021.1.2,60.01500375091349,
AB,lag5,5,4,9,0.2,0.05,0.5,,0,3,3,11,,,,,,,,,,,locker.jpg,boxingglove01.jpg,ironingboard01.jpg,shower.jpg,nose.jpg,cloud.jpg,vacuumcleaner01.jpg,saxophone.jpg,rooster.jpg,nunchuk.jpg,squirrel.jpg,frisbee.jpg,apron.jpg,wheelbarrow01.jpg,motorcycle.jpg,harmonica.jpg,exitsign.jpg,116.10090850000006,118.85114150000004,118.5674348,None,1,1,11,119.08446570000001,None,119.08446570000001,None,.\resources\rooster.jpg,122.0838976,None,1,122.0838976,None,left,4.192944099999977,122.0838976,None,126.31695370000011,None,0,right,2.871711600000026,126.31695370000011,None,126.31695370000011,None,129.23384220000003,None,None,130.23349642000005,None,130.23349642000005,None,,,,,,,,,,,,,,,,,,,,,,,,,,,,,,,,,,,5,001,2021_Apr_08_1300,AB_pic_singleT2,2021.1.2,60.01500375091349,
AB,lag7,7,4,11,0.2,0.05,0.5,,0,4,4,2,,,,,,,,,,,bacon.jpg,accordion01.jpg,cashregister01.jpg,locker.jpg,toyanimal05.jpg,duck01.jpg,uprightpiano01.jpg,floorlamp.jpg,witchhat.jpg,pig.jpg,cobra.jpg,arrow02.jpg,beerbottle.jpg,porcupine.jpg,jeans01.jpg,callbell.jpg,grizzly.jpg,130.2504590000001,133.00028399999997,132.7336461,None,0,0,13,133.23322640000015,None,133.23322640000015,None,.\resources\cobra.jpg,136.74969420000002,None,1,136.74969420000002,None,right,1.5669520999999804,136.74969420000002,None,138.33297300000004,None,1,right,0.3036756999999852,138.33297300000004,None,138.33297300000004,None,138.6829212,None,None,139.68257962000018,None,139.68257962000018,None,,,,,,,,,,,,,,,,,,,,,,,,,,,,,,,,,,,5,001,2021_Apr_08_1300,AB_pic_singleT2,2021.1.2,60.01500375091349,
AB,lag4,4,3,7,0.2,0.05,0.5,,0,5,5,1,,,,,,,,,,,saxophone.jpg,butterfly.jpg,jellyfish.jpg,stool01.jpg,kiwi03.jpg,bowtie.jpg,arrow02.jpg,jackrabbit.jpg,daddylonglegs.jpg,parkingmeter.jpg,flamingo.jpg,spicerack.jpg,skippingrope.jpg,ostrich.jpg,christmastree.jpg,snowboard.jpg,hulahoop.jpg,139.69953600000008,142.44973930000015,142.18314040000018,None,0,0,9,142.68268920000014,None,142.68268920000014,None,.\resources\arrow02.jpg,145.19922040000006,None,1,145.19922040000006,None,right,0.5256550999999945,145.19922040000006,None,145.7658371,None,1,right,0.23086320000015803,145.7658371,None,145.7658371,None,146.0158547000001,None,None,147.01548732000003,None,147.01548732000003,None,,,,,,,,,,,,,,,,,,,,,,,,,,,,,,,,,,,5,001,2021_Apr_08_1300,AB_pic_singleT2,2021.1.2,60.01500375091349,
AB,lag6,6,5,11,0.2,0.05,0.5,,0,6,6,8,,,,,,,,,,,key07.jpg,leafblower01.jpg,granolabar01.jpg,hockeystick.jpg,duck01.jpg,cashregister01.jpg,spicerack.jpg,cow.jpg,acousticguitar02.jpg,sheep.jpg,uprightpiano01.jpg,accordion01.jpg,footballhelmet.jpg,turnstile.jpg,swordfish.jpg,discoball.jpg,ladder.jpg,147.01576940000018,149.76599220000003,149.49937590000013,None,0,1,13,150.01598050000007,None,150.01598050000007,None,.\resources\uprightpiano01.jpg,153.51540569999997,None,1,153.51540569999997,None,right,1.5452726000000894,153.51540569999997,None,155.09865350000018,None,1,left,0.426116600000114,155.09865350000018,None,155.09865350000018,None,155.5486191,None,None,156.54827322000017,None,156.54827322000017,None,,,,,,,,,,,,,,,,,,,,,,,,,,,,,,,,,,,5,001,2021_Apr_08_1300,AB_pic_singleT2,2021.1.2,60.01500375091349,
AB,lag2,2,5,7,0.2,0.05,0.5,,0,7,7,9,,,,,,,,,,,dartboard.jpg,snowshoe.jpg,totempole.jpg,christmastree.jpg,foosballtable.jpg,beerbottle.jpg,firehydrant.jpg,masquerademask01.jpg,cruiseship.jpg,cigar.jpg,telescope.jpg,ladybug03.jpg,slug.jpg,turnstile.jpg,key07.jpg,spicerack.jpg,cupcake.jpg,156.5652324,159.31551100000001,159.04888670000014,None,1,0,9,159.56551420000005,None,159.56551420000005,None,.\resources\firehydrant.jpg,162.06500100000017,None,1,162.06500100000017,None,left,1.715808600000173,162.06500100000017,None,163.8320145,None,1,right,0.324715999999853,163.8320145,None,163.8320145,None,164.19865330000016,None,None,165.19831792000002,None,165.19831792000002,None,,,,,,,,,,,,,,,,,,,,,,,,,,,,,,,,,,,5,001,2021_Apr_08_1300,AB_pic_singleT2,2021.1.2,60.01500375091349,
AB,lag1,1,3,4,0.2,0.05,0.5,,0,8,8,3,,,,,,,,,,,parrot01.jpg,cork02.jpg,horse.jpg,frenchfries.jpg,peacock.jpg,tricycle.jpg,saxophone.jpg,lizard.jpg,dreamcatcher.jpg,pokerchips.jpg,barrel01.jpg,badmintonracket.jpg,rooster.jpg,helicopter.jpg,telescope.jpg,parkingmeter.jpg,calendar.jpg,165.21527490000017,167.96466320000013,167.69801140000004,None,0,1,6,168.19798450000008,None,168.19798450000008,None,.\resources\frenchfries.jpg,169.96452250000016,None,1,169.96452250000016,None,right,1.912214499999891,169.96452250000016,None,171.91474800000015,None,1,left,0.6740286000001561,171.91474800000015,None,171.91474800000015,None,172.64803070000016,None,None,173.64729822000015,None,173.64729822000015,None,,,,,,,,,,,,,,,,,,,,,,,,,,,,,,,,,,,5,001,2021_Apr_08_1300,AB_pic_singleT2,2021.1.2,60.01500375091349,
AB,lag4,4,4,8,0.2,0.05,0.5,,0,9,9,13,,,,,,,,,,,football.jpg,cactus.jpg,cannon.jpg,elbow.jpg,bow.jpg,hulahoop.jpg,jellyfish.jpg,dragonfly01.jpg,donut.jpg,electrictoothbrush01c.jpg,humanskeleton.jpg,discoball.jpg,tie02.jpg,anchor.jpg,crosscountryski.jpg,candycane01a.jpg,frisbee.jpg,173.66425440000012,176.41446700000006,176.13116560000003,None,0,1,10,176.64780630000018,None,176.64780630000018,None,.\resources\dragonfly01.jpg,179.3972592,None,1,179.3972592,None,right,2.151534800000036,179.3972592,None,181.58046790000003,None,1,left,1.1362798000000112,181.58046790000003,None,181.58046790000003,None,182.76373480000007,None,None,183.76339262,None,183.76339262,None,,,,,,,,,,,,,,,,,,,,,,,,,,,,,,,,,,,5,001,2021_Apr_08_1300,AB_pic_singleT2,2021.1.2,60.01500375091349,
AB,lag1,1,4,5,0.2,0.05,0.5,,0,10,10,12,,,,,,,,,,,bridge.jpg,noparkingsign.jpg,parkfountain.jpg,magneticcompass.jpg,jellybean.jpg,hand01b.jpg,electricguitar01.jpg,volleyball.jpg,pooltable.jpg,slug.jpg,cobra.jpg,sausage.jpg,toolbox02.jpg,pingpongtable.jpg,tent.jpg,africanelephant.jpg,worldmap.jpg,183.78034920000005,186.53056660000016,186.26396510000018,None,0,0,7,186.78056430000015,None,186.78056430000015,None,.\resources\jellybean.jpg,188.78005980000012,None,1,188.78005980000012,None,right,0.5926231999999345,188.78005980000012,None,189.41335500000014,None,1,right,0.3353975999998511,189.41335500000014,None,189.41335500000014,None,189.78000399999996,None,None,190.77968822000014,None,190.77968822000014,None,,,,,,,,,,,,,,,,,,,,,,,,,,,,,,,,,,,5,001,2021_Apr_08_1300,AB_pic_singleT2,2021.1.2,60.01500375091349,
AB,lag7,7,5,12,0.2,0.05,0.5,,0,11,11,7,,,,,,,,,,,trampoline.jpg,bow.jpg,seal.jpg,cannon.jpg,brownsugar.jpg,bullet.jpg,fingerprint.jpg,paperairplane.jpg,flamingo.jpg,jackrabbit.jpg,christmaslights.jpg,pingpongtable.jpg,treadmill.jpg,church.jpg,anchor.jpg,daddylonglegs.jpg,dormer.jpg,190.79661269999997,193.54683969999996,193.26355039999999,None,0,0,14,193.78016880000018,None,193.78016880000018,None,.\resources\pingpongtable.jpg,197.52955629999997,None,1,197.52955629999997,None,right,0.5391277999999602,197.52955629999997,None,198.1128599000001,None,1,right,0.2438238999998248,198.1128599000001,None,198.1128599000001,None,198.3961746,None,None,199.39584472000013,None,199.39584472000013,None,,,,,,,,,,,,,,,,,,,,,,,,,,,,,,,,,,,5,001,2021_Apr_08_1300,AB_pic_singleT2,2021.1.2,60.01500375091349,
AB,lag5,5,4,9,0.2,0.05,0.5,,0,12,12,6,,,,,,,,,,,bowlingball.jpg,snowman.jpg,toyanimal05.jpg,rose.jpg,pokerchips.jpg,car.jpg,knee.jpg,hotdogweiner.jpg,bowtie.jpg,arrow02.jpg,motorcycle.jpg,frisbee.jpg,uprightpiano01.jpg,elbow.jpg,giraffe.jpg,drumset.jpg,tiger02.jpg,199.41279400000008,202.16300790000014,201.87966990000018,None,0,0,11,202.37927820000004,None,202.37927820000004,None,.\resources\bowtie.jpg,205.39577410000015,None,1,205.39577410000015,None,right,0.4011599999998907,205.39577410000015,None,205.8457512,None,1,right,0.25499469999999747,205.8457512,None,205.8457512,None,206.1290838,None,None,207.1287252200001,None,207.1287252200001,None,,,,,,,,,,,,,,,,,,,,,,,,,,,,,,,,,,,5,001,2021_Apr_08_1300,AB_pic_singleT2,2021.1.2,60.01500375091349,
AB,lag2,2,3,5,0.2,0.05,0.5,,0,13,13,4,,,,,,,,,,,dolphin01.jpg,eiffeltower.jpg,licenseplate.jpg,safe.jpg,golfball.jpg,ostrich.jpg,uprightpiano01.jpg,pumpkin.jpg,kangaroo.jpg,kite.jpg,showerhead01.jpg,hockeypuck.jpg,hulahoop.jpg,doghouse.jpg,flag.jpg,windmill.jpg,treadmill.jpg,207.14568320000012,209.89594380000017,209.6126627000001,None,1,0,7,210.11220650000018,None,210.11220650000018,None,.\resources\golfball.jpg,212.12878360000013,None,1,212.12878360000013,None,left,1.4040815999999268,212.12878360000013,None,213.578716,None,1,right,0.30621320000000196,213.578716,None,213.578716,None,213.92909750000013,None,None,214.92833882000002,None,214.92833882000002,None,,,,,,,,,,,,,,,,,,,,,,,,,,,,,,,,,,,5,001,2021_Apr_08_1300,AB_pic_singleT2,2021.1.2,60.01500375091349,
,,,,,,,,,,,,,,,,,,,,,,,,,,,,,,,,,,,,,,,,,,,,,,,,,,,,,,,,,,,,,,,,,,,,,,,,,,,,,space,9.410936600000014,214.9286214000001,None,,,,,,,,,,,,,,,,,,,,,,,,,,,,,,,5,001,2021_Apr_08_1300,AB_pic_singleT2,2021.1.2,60.01500375091349,
AB,lag6,6,5,11,0.2,0.05,0.5,ramp,,,,,0,0,0,0,,,,,,,badmintonracket.jpg,christmaslights.jpg,parkfountain.jpg,totempole.jpg,hammerheadshark.jpg,peacock.jpg,callbell.jpg,jellybean.jpg,toad.jpg,tennisracket.jpg,key07.jpg,bowtie.jpg,electrictoothbrush01c.jpg,paperairplane.jpg,cannon.jpg,spiderweb.jpg,jeans01.jpg,,,,,0,0,13,,,,,.\resources\key07.jpg,,,1,,,,,,,,,1,,,,,,,,,None,233.39442972000018,None,233.39442972000018,None,,,,,214.9286214000001,None,224.49520660000007,227.24461640000004,226.96129300000007,None,0.2,227.39460180000015,None,227.39460180000015,None,230.91106910000008,None,230.91106910000008,None,right,1.4136373000001186,230.91106910000008,None,232.37765200000013,None,right,0.9950607000000673,232.37765200000013,None,232.37765200000013,None,,,,5,001,2021_Apr_08_1300,AB_pic_singleT2,2021.1.2,60.01500375091349,
AB,lag4,4,4,8,0.19066666667,0.048,0.48,ramp,,,,,0,1,1,1,,,,,,,jellybean.jpg,birdhouse.jpg,penguin.jpg,cashregister01.jpg,nunchuk.jpg,tie02.jpg,waterfall.jpg,coffeemaker.jpg,leafblower01.jpg,shovel01.jpg,helicopter.jpg,snowman.jpg,masquerademask01.jpg,whiteout.jpg,panda.jpg,eiffeltower.jpg,lawnmower.jpg,,,,,1,0,10,,,,,.\resources\coffeemaker.jpg,,,1,,,,,,,,,1,,,,,,,,,None,242.0605982200001,None,242.0605982200001,None,,,,,,,233.41138480000018,236.16076640000006,235.89413609999997,None,0.19066666667,236.39408890000004,None,236.39408890000004,None,239.04394000000002,None,239.04394000000002,None,left,2.6648114000001897,239.04394000000002,None,241.81090100000006,None,right,0.20996019999984128,241.81090100000006,None,241.81090100000006,None,-10.001360791690049,150.0000000424746,,5,001,2021_Apr_08_1300,AB_pic_singleT2,2021.1.2,60.01500375091349,
AB,lag7,7,4,11,0.18133333334,0.046,0.45999999999999996,ramp,,,,,0,2,2,2,,,,,,,cloud.jpg,greathornowl.jpg,steeringwheel.jpg,corn02.jpg,tennisracket.jpg,arrow02.jpg,magneticcompass.jpg,xylophone.jpg,hotdogweiner.jpg,toad.jpg,telescope.jpg,fingerprint.jpg,noparkingsign.jpg,cork02.jpg,toyanimal05.jpg,trophy01.jpg,fireplace.jpg,,,,,1,1,13,,,,,.\resources\telescope.jpg,,,1,,,,,,,,,1,,,,,,,,,None,251.35955932000013,None,251.35955932000013,None,,,,,,,242.07753580000008,244.8269408000001,244.56029160000003,None,0.18133333334,245.0602596000001,None,245.0602596000001,None,248.2767275000001,None,248.2767275000001,None,left,1.728160900000148,248.2767275000001,None,250.07659290000015,None,left,1.2641459000001305,250.07659290000015,None,250.07659290000015,None,-10.002719446389834,150.00000013655824,,5,001,2021_Apr_08_1300,AB_pic_singleT2,2021.1.2,60.01500375091349,
AB,lag5,5,5,10,0.17200000001000001,0.044,0.43999999999999995,ramp,,,,,0,3,3,3,,,,,,,cruiseship.jpg,squid.jpg,tricycle.jpg,bat.jpg,hammerheadshark.jpg,helicopter.jpg,funnel.jpg,ant.jpg,ladybug03.jpg,seagull.jpg,windshieldwiper02.jpg,bacon.jpg,electricguitar01.jpg,wheelchair.jpg,turnstile.jpg,beaver.jpg,seal.jpg,,,,,0,1,12,,,,,.\resources\seagull.jpg,,,1,,,,,,,,,1,,,,,,,,,None,260.10887602000014,None,260.10887602000014,None,,,,,,,251.3765383,254.1263610000001,253.85970930000008,None,0.17200000001000001,254.35972149999998,None,254.35972149999998,None,257.17598080000016,None,257.17598080000016,None,right,2.1409581000000344,257.17598080000016,None,259.3924965000001,None,left,0.6923765000001367,259.3924965000001,None,259.3924965000001,None,-10.004075333761547,150.00000038823157,,5,001,2021_Apr_08_1300,AB_pic_singleT2,2021.1.2,60.01500375091349,
AB,lag2,2,3,5,0.16266666668000002,0.041999999999999996,0.41999999999999993,ramp,,,,,0,4,4,4,,,,,,,lip.jpg,tulip02.jpg,bat.jpg,sledgehammer.jpg,swordfish.jpg,elbow.jpg,volleyball.jpg,ladybug03.jpg,lawnmower.jpg,grizzly.jpg,cat.jpg,cupcake.jpg,wallclock.jpg,fingerprint.jpg,englishcucumber.jpg,scooter.jpg,chair.jpg,,,,,0,1,7,,,,,.\resources\swordfish.jpg,,,1,,,,,,,,,1,,,,,,,,,None,266.80867832,None,266.80867832,None,,,,,,,260.10912210000015,262.85916740000016,262.6091818,None,0.16266666668000002,263.1260657,None,263.1260657,None,264.75895230000015,None,264.75895230000015,None,right,1.4779264999999668,264.75895230000015,None,266.2922771000001,None,left,0.4885294000000613,266.2922771000001,None,266.2922771000001,None,-10.005426297173447,150.0000011389316,,5,001,2021_Apr_08_1300,AB_pic_singleT2,2021.1.2,60.01500375091349,
AB,lag3,3,5,8,0.15333333335000002,0.039999999999999994,0.3999999999999999,ramp,,,,,0,5,5,5,,,,,,,firehydrant.jpg,car.jpg,licenseplate.jpg,cow.jpg,escalator.jpg,flamingo.jpg,kiwi03.jpg,fortunecookie.jpg,beerbottle.jpg,safe.jpg,ostrich.jpg,eyepatch.jpg,paperairplane.jpg,frenchfries.jpg,raccoon.jpg,vacuumcleaner01.jpg,waterfall.jpg,,,,,0,0,10,,,,,.\resources\fortunecookie.jpg,,,1,,,,,,,,,1,,,,,,,,,None,272.92504312000017,None,272.92504312000017,None,,,,,,,266.8255918,269.5758245000002,269.30917050000016,None,0.15333333335000002,269.8087723000001,None,269.8087723000001,None,271.9587395000001,None,271.9587395000001,None,right,0.7021011000001636,271.9587395000001,None,272.7419890000001,None,right,0.16686250000020664,272.7419890000001,None,272.7419890000001,None,-10.006764806001751,150.00000351094027,,5,001,2021_Apr_08_1300,AB_pic_singleT2,2021.1.2,60.01500375091349,
AB,lag1,1,4,5,0.14400000002000002,0.03799999999999999,0.3799999999999999,ramp,,,,,0,6,6,6,,,,,,,pirateflag.jpg,birthdaycandle.jpg,arrow02.jpg,electrictoothbrush01c.jpg,trophy01.jpg,zebra.jpg,makiroll.jpg,coffeemaker.jpg,car.jpg,eye.jpg,tennisracket.jpg,microphone01.jpg,tank.jpg,birdfeeder.jpg,electricguitar01.jpg,barrel01.jpg,hulahoop.jpg,,,,,1,0,7,,,,,.\resources\trophy01.jpg,,,1,,,,,,,,,1,,,,,,,,,None,279.47509282,None,279.47509282,None,,,,,,,272.94197810000014,275.6918483000002,275.4085311000001,None,0.14400000002000002,275.9251687000001,None,275.9251687000001,None,277.3917271,None,277.3917271,None,left,1.5009717999998884,277.3917271,None,278.97538410000016,None,right,0.46944299999995565,278.97538410000016,None,278.97538410000016,None,-10.008064094004647,150.00001124737665,,5,001,2021_Apr_08_1300,AB_pic_singleT2,2021.1.2,60.01500375091349,
AB,lag6,6,5,11,0.13466666669000002,0.03599999999999999,0.3599999999999999,ramp,,,,,0,7,7,7,,,,,,,curtain.jpg,frenchfries.jpg,saxophone.jpg,toucan.jpg,duck01.jpg,cruiseship.jpg,platypus.jpg,cat.jpg,turnstile.jpg,noparkingsign.jpg,bat.jpg,kite.jpg,parkfountain.jpg,dandelion.jpg,bumpercar.jpg,musicsheet.jpg,kangaroo.jpg,,,,,0,1,13,,,,,.\resources\bat.jpg,,,1,,,,,,,,,1,,,,,,,,,None,286.65798162,None,286.65798162,None,,,,,,,279.49203920000014,282.24144939999996,281.97479480000015,None,0.13466666669000002,282.49143790000016,None,282.49143790000016,None,284.89129890000004,None,284.89129890000004,None,right,1.393524700000171,284.89129890000004,None,286.35825580000005,None,left,0.27846249999993233,286.35825580000005,None,286.35825580000005,None,-10.009227634136485,150.00003695987715,,5,001,2021_Apr_08_1300,AB_pic_singleT2,2021.1.2,60.01500375091349,
AB,lag3,3,4,7,0.12533333336000002,0.03399999999999999,0.33999999999999986,ramp,,,,,0,8,8,8,,,,,,,totempole.jpg,soccerball.jpg,tennisracket.jpg,bench01.jpg,spicerack.jpg,birdhouse.jpg,crab01.jpg,toyanimal05.jpg,bullet.jpg,squid.jpg,tiger02.jpg,butterfly.jpg,fireplace.jpg,toad.jpg,saltshaker03a.jpg,well.jpg,chainsaw.jpg,,,,,0,0,9,,,,,.\resources\crab01.jpg,,,1,,,,,,,,,1,,,,,,,,,None,292.3239004200001,None,292.3239004200001,None,,,,,,,286.67450830000007,289.42434679999997,289.15772130000005,None,0.12533333336000002,289.65767040000014,None,289.65767040000014,None,291.2742449,None,291.2742449,None,right,0.6989470000000892,291.2742449,None,292.0408714,None,right,0.2599024000001009,292.0408714,None,292.0408714,None,-10.009903325668345,150.00012340554508,,5,001,2021_Apr_08_1300,AB_pic_singleT2,2021.1.2,60.01500375091349,
AB,lag4,4,4,8,0.11600000003000002,0.03199999999999999,0.31999999999999984,ramp,,,,,0,9,9,9,,,,,,,pig.jpg,boxingglove01.jpg,treadmill.jpg,englishcucumber.jpg,birdnest.jpg,ladybug03.jpg,tortoise01.jpg,tiger02.jpg,bench01.jpg,armadillo.jpg,nunchuk.jpg,sausage.jpg,pumpkin.jpg,fortunecookie.jpg,donut.jpg,foldingchair.jpg,pooltable.jpg,,,,,0,0,10,,,,,.\resources\tiger02.jpg,,,1,,,,,,,,,1,,,,,,,,,None,297.7069359200001,None,297.7069359200001,None,,,,,,,292.34087680000016,295.09108460000016,294.8244482,None,0.11600000003000002,295.3240111,None,295.3240111,None,296.97391660000017,None,296.97391660000017,None,right,0.4549551000000065,296.97391660000017,None,297.50723800000014,None,right,0.1696718000000601,297.50723800000014,None,297.50723800000014,None,-10.0087969897031,150.00041576432758,,5,001,2021_Apr_08_1300,AB_pic_singleT2,2021.1.2,60.01500375091349,
AB,lag5,5,4,9,0.10666666670000002,0.029999999999999985,0.2999999999999998,ramp,,,,,0,10,10,10,,,,,,,christmaslights.jpg,tricycle.jpg,makiroll.jpg,fishingrod.jpg,golfball.jpg,windmill.jpg,foosballtable.jpg,ironingboard01.jpg,cymbal.jpg,marble.jpg,sink.jpg,waterfountain02.jpg,hockeystick.jpg,beaver.jpg,kangaroo.jpg,ipad02.jpg,saxophone.jpg,,,,,0,1,11,,,,,.\resources\cymbal.jpg,,,1,,,,,,,,,1,,,,,,,,,None,304.03991362,None,304.03991362,None,,,,,,,297.7238774,300.4741154000001,300.2075057000002,None,0.10666666670000002,300.707042,None,300.707042,None,302.37361120000014,None,302.37361120000014,None,right,1.319165600000133,302.37361120000014,None,303.77353790000006,None,left,0.24732459999995626,303.77353790000006,None,303.77353790000006,None,-10.001153334151129,150.00140318068046,,5,001,2021_Apr_08_1300,AB_pic_singleT2,2021.1.2,60.01500375091349,
AB,lag2,2,3,5,0.09733333337000002,0.027999999999999983,0.3,ramp,,,,,0,11,11,11,,,,,,,parachute.jpg,fishskeleton.jpg,magneticcompass.jpg,recyclingbin.jpg,honeybee.jpg,cupcake.jpg,footballhelmet.jpg,spiderweb.jpg,locker.jpg,scooter.jpg,bed.jpg,parkingmeter.jpg,barrel01.jpg,jellybean.jpg,kite.jpg,rooster.jpg,totempole.jpg,,,,,0,1,7,,,,,.\resources\honeybee.jpg,,,1,,,,,,,,,1,,,,,,,,,None,310.28990682000006,None,310.28990682000006,None,,,,,,,304.05685830000016,306.8071289000002,306.5404526,None,0.09733333337000002,307.0400174000001,None,307.0400174000001,None,308.07331390000013,None,308.07331390000013,None,right,1.3395839999998316,308.07331390000013,None,309.4898521,None,left,0.7789003000000321,309.4898521,None,309.4898521,None,-9.969929362530102,150.00467706564078,,5,001,2021_Apr_08_1300,AB_pic_singleT2,2021.1.2,60.01500375091349,
AB,lag1,1,4,5,0.08800000004000003,0.02599999999999998,0.3,ramp,,,,,0,12,12,12,,,,,,,fishskeleton.jpg,eyepatch.jpg,nunchuk.jpg,waterfountain02.jpg,pingpongtable.jpg,skippingrope.jpg,sausage.jpg,parkfountain.jpg,rollerblade.jpg,tree.jpg,rubikcube.jpg,frenchfries.jpg,chair.jpg,chefshat.jpg,cat.jpg,turnstile.jpg,bed.jpg,,,,,0,0,7,,,,,.\resources\pingpongtable.jpg,,,1,,,,,,,,,1,,,,,,,,,None,314.93927472000007,None,314.93927472000007,None,,,,,,,310.3068552,313.05669720000014,312.79004010000017,None,0.08800000004000003,313.28963080000017,None,313.28963080000017,None,314.22292070000003,None,314.22292070000003,None,right,0.42195399999991423,314.22292070000003,None,314.7228890000001,None,right,0.19390490000000682,314.7228890000001,None,314.7228890000001,None,-9.860203419559875,150.01481140263897,,5,001,2021_Apr_08_1300,AB_pic_singleT2,2021.1.2,60.01500375091349,
AB,lag7,7,5,12,0.07866666671000003,0.02399999999999998,0.3,ramp,,,,,0,13,13,13,,,,,,,rollerblade.jpg,seal.jpg,volleyball.jpg,dandelion.jpg,dreamcatcher.jpg,ironingboard01.jpg,shovel01.jpg,motorcycle.jpg,eyepatch.jpg,kite.jpg,soccerball.jpg,duck01.jpg,curtain.jpg,ear.jpg,bluecheese.jpg,skippingrope.jpg,mrpotatohead.jpg,,,,,1,0,14,,,,,.\resources\duck01.jpg,,,1,,,,,,,,,1,,,,,,,,,None,321.18890971999997,None,321.18890971999997,None,,,,,,,314.95620770000005,317.70643659999996,317.4397956,None,0.07866666671000003,317.9393757,None,317.9393757,None,319.5059425000002,None,319.5059425000002,None,left,1.3468758000001344,319.5059425000002,None,320.9225288,None,right,0.24235499999986132,320.9225288,None,320.9225288,None,-9.545471510334263,150.0407565987997,,5,001,2021_Apr_08_1300,AB_pic_singleT2,2021.1.2,60.01500375091349,
AB,lag1,1,3,4,0.06933333338000003,0.021999999999999978,0.3,ramp,,,,,0,14,14,14,,,,,,,ducttape.jpg,cow.jpg,pingpongtable.jpg,parrot01.jpg,fridge.jpg,redfox.jpg,treadmill.jpg,christmastree.jpg,dartboard.jpg,cheetah.jpg,sword01.jpg,cocktailshrimp02.jpg,dragonfly01.jpg,hotdogweiner.jpg,hockeystick.jpg,ironingboard01.jpg,foot.jpg,,,,,0,0,6,,,,,.\resources\parrot01.jpg,,,1,,,,,,,,,1,,,,,,,,,None,325.63869682000006,None,325.63869682000006,None,,,,,,,321.20584830000007,323.95620350000013,323.68955030000006,None,0.06933333338000003,324.2062131,None,324.2062131,None,324.8557005,None,324.8557005,None,right,0.557227100000091,324.8557005,None,325.5056604000001,None,right,0.09914770000000317,325.5056604000001,None,325.5056604000001,None,-8.899309494850606,150.0881144916348,,5,001,2021_Apr_08_1300,AB_pic_singleT2,2021.1.2,60.01500375091349,
AB,lag6,6,5,11,0.06000000005000003,0.02,0.3,main,,,,,0,15,15,15,,,,,,,bullet.jpg,microphone01.jpg,bathtub.jpg,candycane01a.jpg,licenseplate.jpg,jackrabbit.jpg,car.jpg,triangle.jpg,jellyfish.jpg,crosscountryski.jpg,ear.jpg,christmastree.jpg,nose.jpg,tire.jpg,steeringwheel.jpg,nunchuk.jpg,grizzly.jpg,,,,,1,0,13,,,,,.\resources\ear.jpg,,,1,,,,,,,,,1,,,,,,,,,None,336.2551398200002,None,336.2551398200002,None,,,,,,,325.6556773,328.4054946000001,328.13886030000003,None,0.0685304355432073,328.6554834000001,None,328.6554834000001,None,329.90541010000015,None,329.90541010000015,None,left,1.8834324000001743,329.90541010000015,None,331.85566330000006,None,right,4.3812010000001465,331.85566330000006,None,331.85566330000006,None,-8.269196012479734,150.1331603653032,,5,001,2021_Apr_08_1300,AB_pic_singleT2,2021.1.2,60.01500375091349,
AB,lag1,1,5,6,0.06000000005000003,0.02,0.3,main,,,,,0,16,16,16,,,,,,,airhockeytable.jpg,jellyfish.jpg,motorcycle.jpg,parkingmeter.jpg,fishingrod.jpg,microphone01.jpg,dalmatian.jpg,ipad02.jpg,key07.jpg,spear02.jpg,parrot01.jpg,ironingboard01.jpg,ladybug03.jpg,tree.jpg,chimney.jpg,stubbywrench01a.jpg,xylophone.jpg,,,,,0,0,8,,,,,.\resources\microphone01.jpg,,,1,,,,,,,,,1,,,,,,,,,None,341.6544495200002,None,341.6544495200002,None,,,,,,,336.27209560000006,339.0215481,338.75488540000015,None,0.06431284301286895,339.27151890000005,None,339.27151890000005,None,340.0381439,None,340.0381439,None,right,1.2306091000000379,340.0381439,None,341.3380654,None,right,0.2907079999999951,341.3380654,None,341.3380654,None,-7.665963707521319,150.17485493964236,,5,001,2021_Apr_08_1300,AB_pic_singleT2,2021.1.2,60.01500375091349,
AB,lag5,5,3,8,0.06000000005000003,0.02,0.3,main,,,,,0,17,17,17,,,,,,,granolabar01.jpg,pooltable.jpg,doghouse.jpg,cloud.jpg,treadmill.jpg,scorpion.jpg,tie02.jpg,eyepatch.jpg,accordion01.jpg,chefshat.jpg,lily.jpg,musicsheet.jpg,giraffe.jpg,fishingrod.jpg,snowshovel.jpg,mummy.jpg,fingerprint.jpg,,,,,0,0,10,,,,,.\resources\eyepatch.jpg,,,1,,,,,,,,,1,,,,,,,,,None,346.70413152000003,None,346.70413152000003,None,,,,,,,341.67139629999997,344.4212265000001,344.1545729000002,None,0.06027812094294651,344.6545472,None,344.6545472,None,345.57115569999996,None,345.57115569999996,None,right,0.8096342999999706,345.57115569999996,None,346.45444280000015,None,right,0.20645969999986846,346.45444280000015,None,346.45444280000015,None,-7.088834590764558,150.21336186874188,,5,001,2021_Apr_08_1300,AB_pic_singleT2,2021.1.2,60.01500375091349,
AB,lag3,3,4,7,0.06000000005000003,0.02,0.3,main,,,,,0,18,18,18,,,,,,,cruiseship.jpg,brownsugar.jpg,accordion01.jpg,nosmokingsign.jpg,kite.jpg,skunk.jpg,moose.jpg,fridge.jpg,crab01.jpg,jackrabbit.jpg,eiffeltower.jpg,volleyball.jpg,parrot01.jpg,hockeypuck.jpg,hulahoop.jpg,bench01.jpg,lawnmower.jpg,,,,,0,0,9,,,,,.\resources\moose.jpg,,,1,,,,,,,,,1,,,,,,,,,None,353.08711282,None,353.08711282,None,,,,,,,346.7215037000001,349.4713221000002,349.2046770000002,None,0.05642060630591645,349.7042497,None,349.7042497,None,350.48754340000005,None,350.48754340000005,None,right,1.66930259999981,350.48754340000005,None,352.23744810000017,None,right,0.823480600000039,352.23744810000017,None,352.23744810000017,None,-6.538365079744742,150.24904494292093,,5,001,2021_Apr_08_1300,AB_pic_singleT2,2021.1.2,60.01500375091349,
AB,lag2,2,5,7,0.06000000005000003,0.02,0.3,main,,,,,0,19,19,19,,,,,,,frisbee.jpg,swordfish.jpg,drumstick.jpg,seal.jpg,wallclock.jpg,tennisracket.jpg,foosballtable.jpg,greathornowl.jpg,dalmatian.jpg,rollerblade.jpg,snowshoe.jpg,nunchuk.jpg,pigeon.jpg,totempole.jpg,granolabar01.jpg,sheep.jpg,waterfall.jpg,,,,,0,0,9,,,,,.\resources\foosballtable.jpg,,,1,,,,,,,,,1,,,,,,,,,None,357.8535066200001,None,357.8535066200001,None,,,,,,,353.1040373000001,355.8542666000001,355.58761830000003,None,0.05274349293784318,356.1042864000001,None,356.1042864000001,None,356.8204853,None,356.8204853,None,right,0.7525309000000107,356.8204853,None,357.6537529,None,right,0.18309700000008888,357.6537529,None,357.6537529,None,-6.018421216637545,150.28231315625072,,5,001,2021_Apr_08_1300,AB_pic_singleT2,2021.1.2,60.01500375091349,
AB,lag4,4,3,7,0.06000000005000003,0.02,0.3,main,,,,,0,20,20,20,,,,,,,ironingboard01.jpg,pig.jpg,lizard.jpg,car.jpg,bat.jpg,horse.jpg,foot.jpg,spear02.jpg,vacuumcleaner01.jpg,turnstile.jpg,vulture.jpg,rollerblade.jpg,parrot01.jpg,baseballbat.jpg,pokerchips.jpg,greywolf.jpg,beerbottle.jpg,,,,,1,0,9,,,,,.\resources\foot.jpg,,,1,,,,,,,,,1,,,,,,,,,None,363.53653432,None,363.53653432,None,,,,,,,357.87043560000006,360.62069410000004,360.3540173000001,None,0.04927203622463972,360.8535969000002,None,360.8535969000002,None,361.5706093000001,None,361.5706093000001,None,left,1.4101944999999887,361.5706093000001,None,363.0534708,None,right,0.4553060999999161,363.0534708,None,363.0534708,None,-5.536044089018904,150.31363181084777,,5,001,2021_Apr_08_1300,AB_pic_singleT2,2021.1.2,60.01500375091349,
AB,lag7,7,5,12,0.06000000005000003,0.02,0.3,main,,,,,0,21,21,21,,,,,,,snowshovel.jpg,hockeystick.jpg,peacock.jpg,exitsign.jpg,floorlamp.jpg,fridge.jpg,harmonica.jpg,waterfall.jpg,bowlingpin.jpg,tire.jpg,electricguitar01.jpg,tent.jpg,leafrake.jpg,trumpet.jpg,discoball.jpg,pigeon.jpg,coffeemaker.jpg,,,,,1,0,14,,,,,.\resources\tent.jpg,,,0,,,,,,,,,1,,,,,,,,,None,369.51949772,None,369.51949772,None,,,,,,,363.55344490000016,366.30366690000005,366.0370167000001,None,0.046052632530692576,366.53660579999996,None,366.53660579999996,None,367.55360510000014,None,367.55360510000014,None,right,1.6111387000000832,367.55360510000014,None,369.23645610000017,None,right,0.2643186999998761,369.23645610000017,None,369.23645610000017,None,-6.052211316744614,150.29876806106682,,5,001,2021_Apr_08_1300,AB_pic_singleT2,2021.1.2,60.01500375091349,
AB,lag6,6,5,11,0.06000000005000003,0.02,0.3,main,,,,,0,22,22,22,,,,,,,cobra.jpg,redfox.jpg,tricycle.jpg,lion.jpg,chair.jpg,uprightpiano01.jpg,guitarcase.jpg,lily.jpg,scorpion.jpg,curtain.jpg,skunk.jpg,cactus.jpg,well.jpg,steeringwheel.jpg,exitsign.jpg,hockeystick.jpg,tie02.jpg,,,,,0,0,13,,,,,.\resources\skunk.jpg,,,1,,,,,,,,,1,,,,,,,,,None,374.4859551200001,None,374.4859551200001,None,,,,,,,369.53643290000014,372.2867231,372.0200473,None,0.04949146139935238,372.53669149999996,None,372.53669149999996,None,373.5196192000001,None,373.5196192000001,None,right,0.7251240000000507,373.5196192000001,None,374.3195754000001,None,right,0.14129019999995762,374.3195754000001,None,374.3195754000001,None,-6.079669718968611,150.30728804461774,,5,001,2021_Apr_08_1300,AB_pic_singleT2,2021.1.2,60.01500375091349,
AB,lag7,7,5,12,0.06000000005000003,0.02,0.3,main,,,,,0,23,23,23,,,,,,,swing.jpg,soccerball.jpg,toilet.jpg,africanelephant.jpg,urinal.jpg,elbow.jpg,tie02.jpg,birthdaycandle.jpg,moon.jpg,banjo.jpg,toucan.jpg,acorn.jpg,electricguitar01.jpg,sledgehammer.jpg,rollerblade.jpg,rose.jpg,polarbear.jpg,,,,,0,0,14,,,,,.\resources\acorn.jpg,,,1,,,,,,,,,1,,,,,,,,,None,379.45235902,None,379.45235902,None,,,,,,,374.5029158,377.25274179999997,376.9860953,None,0.04967133781212445,377.5027347,None,377.5027347,None,378.55269780000003,None,378.55269780000003,None,right,0.5721664000000146,378.55269780000003,None,379.20262990000015,None,right,0.22618290000013985,379.20262990000015,None,379.20262990000015,None,-5.948438676828081,150.32354081405094,,5,001,2021_Apr_08_1300,AB_pic_singleT2,2021.1.2,60.01500375091349,
AB,lag5,5,3,8,0.06000000005000003,0.02,0.3,main,,,,,0,24,24,24,,,,,,,bullet.jpg,armadillo.jpg,bowlingball.jpg,safe.jpg,birdhouse.jpg,jeans01.jpg,marble.jpg,ant.jpg,acousticguitar02.jpg,skateboard.jpg,rooster.jpg,callbell.jpg,sheep.jpg,firehydrant.jpg,granolabar01.jpg,tennisracket.jpg,motorcycle.jpg,,,,,1,0,10,,,,,.\resources\ant.jpg,,,1,,,,,,,,,1,,,,,,,,,None,384.8024393200002,None,384.8024393200002,None,,,,,,,379.4692764000001,382.2191242000001,381.95246880000013,None,0.04879297679011553,382.45244130000015,None,382.45244130000015,None,383.23573220000003,None,383.23573220000003,None,left,1.0409814999998162,383.23573220000003,None,384.3523147000001,None,right,0.42041889999995874,384.3523147000001,None,384.3523147000001,None,-5.782233022298682,150.34146490486964,,5,001,2021_Apr_08_1300,AB_pic_singleT2,2021.1.2,60.01500375091349,
AB,lag3,3,3,6,0.06000000005000003,0.02,0.3,main,,,,,0,25,25,25,,,,,,,firehydrant.jpg,jeep.jpg,hulahoop.jpg,toilet.jpg,helicopter.jpg,greathornowl.jpg,volleyball.jpg,birthdaycandle.jpg,icecube02.jpg,swing.jpg,magneticcompass.jpg,fishskeleton.jpg,accordion01.jpg,tarantula.jpg,soccerball.jpg,spicerack.jpg,hockeystick.jpg,,,,,0,0,8,,,,,.\resources\greathornowl.jpg,,,1,,,,,,,,,1,,,,,,,,,None,389.2850672200001,None,389.2850672200001,None,,,,,,,384.8193811000001,387.56879219999996,387.3021374,None,0.04768163851505999,387.8021140000001,None,387.8021140000001,None,388.4354096000002,None,388.4354096000002,None,right,0.5696282000001247,388.4354096000002,None,389.08536060000006,None,right,0.17544310000016594,389.08536060000006,None,389.08536060000006,None,-5.613825658517033,150.35946604323178,,5,001,2021_Apr_08_1300,AB_pic_singleT2,2021.1.2,60.01500375091349,
AB,lag2,2,3,5,0.06000000005000003,0.02,0.3,main,,,,,0,26,26,26,,,,,,,tie02.jpg,candycane01a.jpg,squirrel.jpg,nose.jpg,smokingpipe.jpg,waterfountain02.jpg,rubikcube.jpg,tiger02.jpg,snowman.jpg,jellyfish.jpg,skateboard.jpg,discoball.jpg,mouse.jpg,daddylonglegs.jpg,calendar.jpg,saltshaker03a.jpg,donut.jpg,,,,,0,0,7,,,,,.\resources\smokingpipe.jpg,,,1,,,,,,,,,1,,,,,,,,,None,393.7348333200001,None,393.7348333200001,None,,,,,,,389.3020202,392.0522327000001,391.7855862000001,None,0.04655589836707873,392.28516060000015,None,392.28516060000015,None,392.8517958,None,392.8517958,None,right,0.5770208000001276,392.8517958,None,393.5017619,None,right,0.21506449999992583,393.5017619,None,393.5017619,None,-5.4507013136832825,150.37721525826876,,5,001,2021_Apr_08_1300,AB_pic_singleT2,2021.1.2,60.01500375091349,
AB,lag1,1,5,6,0.06000000005000003,0.02,0.3,main,,,,,0,27,27,27,,,,,,,ducttape.jpg,wallclock.jpg,coffeemaker.jpg,schoolbus.jpg,platypus.jpg,ironingboard01.jpg,peacock.jpg,jellybean.jpg,toad.jpg,chefshat.jpg,spicerack.jpg,christmaslights.jpg,marble.jpg,motorcycle.jpg,tiger02.jpg,horseshoe.jpg,hulahoop.jpg,,,,,0,1,8,,,,,.\resources\ironingboard01.jpg,,,1,,,,,,,,,1,,,,,,,,,None,400.10110462,None,400.10110462,None,,,,,,,393.7517765,396.50198309999996,396.23543770000015,None,0.04546563562213078,396.7515724,None,396.7515724,None,397.35153690000016,None,397.35153690000016,None,right,1.6214113999999427,397.35153690000016,None,399.05144730000006,None,left,1.0334884999999758,399.05144730000006,None,399.05144730000006,None,-5.294345912962552,150.39470172844926,,5,001,2021_Apr_08_1300,AB_pic_singleT2,2021.1.2,60.01500375091349,
AB,lag4,4,5,9,0.06000000005000003,0.02,0.3,main,,,,,0,28,28,28,,,,,,,giraffe.jpg,cashregister01.jpg,saxophone.jpg,scooter.jpg,athleticsock.jpg,cymbal.jpg,scorpion.jpg,well.jpg,noparkingsign.jpg,eyepatch.jpg,steeringwheel.jpg,vulture.jpg,fireplace.jpg,anchor.jpg,platypus.jpg,ladybug03.jpg,banjo.jpg,,,,,1,0,11,,,,,.\resources\noparkingsign.jpg,,,1,,,,,,,,,1,,,,,,,,,None,405.75118112000007,None,405.75118112000007,None,,,,,,,400.11805720000007,402.8683065,402.6016561000001,None,0.044420715605692815,403.1182791000001,None,403.1182791000001,None,403.9011422000001,None,403.9011422000001,None,left,1.4157239999999547,403.9011422000001,None,405.3844259,None,right,0.3483594000001631,405.3844259,None,405.3844259,None,-5.14497847348979,150.4119974333587,,5,001,2021_Apr_08_1300,AB_pic_singleT2,2021.1.2,60.01500375091349,
AB,lag3,3,4,7,0.06000000005000003,0.02,0.3,main,,,,,0,29,29,29,,,,,,,toilet.jpg,bed.jpg,showerhead01.jpg,butterfly.jpg,cross01.jpg,greatwhiteshark.jpg,bridge.jpg,corn02.jpg,key07.jpg,windshieldwiper02.jpg,skunk.jpg,church.jpg,nose.jpg,rollerblade.jpg,wheelbarrow01.jpg,shovel01.jpg,scorpion.jpg,,,,,0,0,9,,,,,.\resources\bridge.jpg,,,1,,,,,,,,,1,,,,,,,,,None,410.4671939200001,None,410.4671939200001,None,,,,,,,405.7681268000001,408.51798400000007,408.25133300000016,None,0.04342255236324095,408.7509223000002,None,408.7509223000002,None,409.41752770000016,None,409.41752770000016,None,right,0.6752328000000034,409.41752770000016,None,410.18414540000003,None,right,0.25278869999988274,410.18414540000003,None,410.18414540000003,None,-5.002609132219187,150.42919984708408,,5,001,2021_Apr_08_1300,AB_pic_singleT2,2021.1.2,60.01500375091349,
AB,lag1,1,4,5,0.06000000005000003,0.02,0.3,main,,,,,0,30,30,30,,,,,,,tree.jpg,chefshat.jpg,guitarcase.jpg,hand01b.jpg,lightswitch01.jpg,nosmokingsign.jpg,armadillo.jpg,birdfeeder.jpg,urinal.jpg,spear02.jpg,locker.jpg,parkingmeter.jpg,greywolf.jpg,nunchuk.jpg,arrow02.jpg,microwave.jpg,beerbottle.jpg,,,,,0,0,7,,,,,.\resources\lightswitch01.jpg,,,1,,,,,,,,,1,,,,,,,,,None,415.11689732,None,415.11689732,None,,,,,,,410.4841289000001,413.23437690000014,412.96773540000004,None,0.04247116583637748,413.46729900000014,None,413.46729900000014,None,414.00059380000016,None,414.00059380000016,None,right,0.8364306000000852,414.00059380000016,None,414.9171986000001,None,right,0.18353690000003553,414.9171986000001,None,414.9171986000001,None,-4.867235338570845,150.44641620851183,,5,001,2021_Apr_08_1300,AB_pic_singleT2,2021.1.2,60.01500375091349,
AB,lag4,4,5,9,0.06000000005000003,0.02,0.3,main,,,,,0,31,31,31,,,,,,,greathornowl.jpg,cruiseship.jpg,wheelbarrow01.jpg,mummy.jpg,cymbal.jpg,pooltable.jpg,recyclingbin.jpg,statue.jpg,slug.jpg,hulahoop.jpg,cashregister01.jpg,jeep.jpg,moon.jpg,witchhat.jpg,crown.jpg,beerbottle.jpg,mouse.jpg,,,,,0,1,11,,,,,.\resources\slug.jpg,,,1,,,,,,,,,1,,,,,,,,,None,420.29995582000004,None,420.29995582000004,None,,,,,,,415.13383650000014,417.8840974,417.61739720000014,None,0.04156649162731554,418.1169982000001,None,418.1169982000001,None,418.88361740000005,None,418.88361740000005,None,right,0.4971488999999565,418.88361740000005,None,419.45025280000004,None,left,0.8266366000000289,419.45025280000004,None,419.45025280000004,None,-4.738849621314105,150.46375729041054,,5,001,2021_Apr_08_1300,AB_pic_singleT2,2021.1.2,60.01500375091349,
AB,lag6,6,3,9,0.06000000005000003,0.02,0.3,main,,,,,0,32,32,32,,,,,,,leafblower01.jpg,triangle.jpg,arrow02.jpg,elbow.jpg,tortoise01.jpg,doghouse.jpg,icecube02.jpg,uprightpiano01.jpg,tricycle.jpg,locker.jpg,africanelephant.jpg,cross01.jpg,cloud.jpg,mailbox02.jpg,banjo.jpg,polarbear.jpg,jellyfish.jpg,,,,,0,0,11,,,,,.\resources\tricycle.jpg,,,1,,,,,,,,,1,,,,,,,,,None,424.98351152,None,424.98351152,None,,,,,,,420.31686880000007,423.0667989000001,422.800162,None,0.040708434328220564,423.31678650000003,None,423.31678650000003,None,424.05007580000006,None,424.05007580000006,None,right,0.5866966999999477,424.05007580000006,None,424.7171523000002,None,right,0.2477379000001747,424.7171523000002,None,424.7171523000002,None,-4.617415633813357,150.48133345136708,,5,001,2021_Apr_08_1300,AB_pic_singleT2,2021.1.2,60.01500375091349,
AB,lag2,2,3,5,0.06000000005000003,0.02,0.3,main,,,,,0,33,33,33,,,,,,,escalator.jpg,hockeypuck.jpg,frisbee.jpg,scorpion.jpg,waterfall.jpg,tarantula.jpg,bat.jpg,popcorn.jpg,penguin.jpg,seal.jpg,knee.jpg,daddylonglegs.jpg,beerbottle.jpg,tie02.jpg,horseshoe.jpg,airhockeytable.jpg,bow.jpg,,,,,1,0,7,,,,,.\resources\waterfall.jpg,,,1,,,,,,,,,1,,,,,,,,,None,430.73324272,None,430.73324272,None,,,,,,,425.0004669,427.74986590000003,427.48321269999997,None,0.039896709161429254,427.99985319999996,None,427.99985319999996,None,428.4831669,None,428.4831669,None,left,1.641651000000138,428.4831669,None,430.20018240000013,None,right,0.5167147999998178,430.20018240000013,None,430.20018240000013,None,-4.5028476876599255,150.4992514787297,,5,001,2021_Apr_08_1300,AB_pic_singleT2,2021.1.2,60.01500375091349,
AB,lag5,5,4,9,0.06000000005000003,0.02,0.3,main,,,,,0,34,34,34,,,,,,,jeep.jpg,bowlingball.jpg,bluejay.jpg,porcupine.jpg,electrictoothbrush01c.jpg,turnstile.jpg,nunchuk.jpg,platypus.jpg,football.jpg,bow.jpg,lightswitch01.jpg,pooltable.jpg,kite.jpg,sandcastle.jpg,jackrabbit.jpg,cheetah.jpg,boat.jpg,,,,,1,1,11,,,,,.\resources\football.jpg,,,1,,,,,,,,,0,,,,,,,,,None,436.66614952,None,436.66614952,None,,,,,,,430.75015040000017,433.4995742000001,433.2328874,None,0.03913070657106981,433.73286759999996,None,433.73286759999996,None,434.4661496000001,None,434.4661496000001,None,left,1.2666520999998738,434.4661496000001,None,435.81647610000005,None,right,0.8123829999999543,435.81647610000005,None,435.81647610000005,None,-4.39500039446711,150.51761200292694,,5,001,2021_Apr_08_1300,AB_pic_singleT2,2021.1.2,60.01500375091349,
AB,lag7,7,5,12,0.06000000005000003,0.02,0.3,main,,,,,0,35,35,35,,,,,,,squirrel.jpg,football.jpg,porcupine.jpg,fridge.jpg,cork02.jpg,bumpercar.jpg,redfox.jpg,wallclock.jpg,church.jpg,well.jpg,firehydrant.jpg,chimney.jpg,flamingo.jpg,safe.jpg,holdfast.jpg,zipper.jpg,nose.jpg,,,,,0,0,14,,,,,.\resources\chimney.jpg,,,1,,,,,,,,,1,,,,,,,,,None,441.83252032000007,None,441.83252032000007,None,,,,,,,436.6831103000002,439.4324971000001,439.16587920000006,None,0.0384094238451948,439.66584290000014,None,439.66584290000014,None,440.5657833,None,440.5657833,None,right,0.9429986000000099,440.5657833,None,441.58238589999996,None,right,0.2304384999999911,441.58238589999996,None,441.58238589999996,None,-4.293667987685744,150.53650750656448,,5,001,2021_Apr_08_1300,AB_pic_singleT2,2021.1.2,60.01500375091349,
AB,lag5,5,5,10,0.06000000005000003,0.02,0.3,main,,,,,0,36,36,36,,,,,,,cloud.jpg,tortoise01.jpg,baseballbat.jpg,recyclingbin.jpg,paperairplane.jpg,zebra.jpg,hockeypuck.jpg,bench01.jpg,basketball01.jpg,beaver.jpg,crosscountryski.jpg,trampoline.jpg,car.jpg,drumset.jpg,ladybug03.jpg,horse.jpg,parkfountain.jpg,,,,,1,0,12,,,,,.\resources\beaver.jpg,,,1,,,,,,,,,1,,,,,,,,,None,447.38180352000006,None,447.38180352000006,None,,,,,,,441.8494617000001,444.5988735000001,444.33221950000006,None,0.03773146091195152,444.83219810000014,None,444.83219810000014,None,445.61551370000007,None,445.61551370000007,None,left,1.2453197000002092,445.61551370000007,None,446.9320745,None,right,0.42469839999989745,446.9320745,None,446.9320745,None,-4.198590973515472,150.55602095616868,,5,001,2021_Apr_08_1300,AB_pic_singleT2,2021.1.2,60.01500375091349,
AB,lag7,7,3,10,0.06000000005000003,0.02,0.3,main,,,,,0,37,37,37,,,,,,,flamingo.jpg,peacock.jpg,zebra.jpg,coffeemaker.jpg,parachute.jpg,tricycle.jpg,lawnmower.jpg,fishingrod.jpg,frisbee.jpg,penguin.jpg,bowtie.jpg,steeringwheel.jpg,toad.jpg,rose.jpg,bull.jpg,rubikcube.jpg,chainsaw.jpg,,,,,0,0,12,,,,,.\resources\penguin.jpg,,,1,,,,,,,,,1,,,,,,,,,None,452.23150202,None,452.23150202,None,,,,,,,447.398723,450.1485560000001,449.88192950000007,None,0.0370950646753695,450.381881,None,450.381881,None,451.1485017,None,451.1485017,None,right,0.640350699999999,451.1485017,None,451.8651291000001,None,right,0.3396470000000136,451.8651291000001,None,451.8651291000001,None,-4.10946731196199,150.57622503816162,,5,001,2021_Apr_08_1300,AB_pic_singleT2,2021.1.2,60.01500375091349,
AB,lag4,4,3,7,0.06000000005000003,0.02,0.3,main,,,,,0,38,38,38,,,,,,,fishingrod.jpg,nunchuk.jpg,trampoline.jpg,snowboard.jpg,bumpercar.jpg,tennisracket.jpg,paperairplane.jpg,giraffe.jpg,spear02.jpg,parkingmeter.jpg,ipad02.jpg,saltshaker03a.jpg,foosballtable.jpg,icecube02.jpg,well.jpg,knee.jpg,pokerchips.jpg,,,,,1,1,9,,,,,.\resources\paperairplane.jpg,,,1,,,,,,,,,1,,,,,,,,,None,458.18151402,None,458.18151402,None,,,,,,,452.2484386000001,454.99828120000006,454.7316254,None,0.036498203296629665,455.2316035000001,None,455.2316035000001,None,455.83156670000017,None,455.83156670000017,None,left,1.5411775000000034,455.83156670000017,None,457.46479680000016,None,left,0.7000512999998136,457.46479680000016,None,457.46479680000016,None,-4.025965528046145,150.597181933534,,5,001,2021_Apr_08_1300,AB_pic_singleT2,2021.1.2,60.01500375091349,
AB,lag3,3,5,8,0.06000000005000003,0.02,0.3,main,,,,,0,39,39,39,,,,,,,floorlamp.jpg,callbell.jpg,eyepatch.jpg,key07.jpg,toucan.jpg,lollipop04.jpg,treadmill.jpg,stool01.jpg,lizard.jpg,nosmokingsign.jpg,fishingrod.jpg,curtain.jpg,bull.jpg,bowlingball.jpg,tarantula.jpg,shower.jpg,skunk.jpg,,,,,0,1,10,,,,,.\resources\stool01.jpg,,,1,,,,,,,,,0,,,,,,,,,None,464.88115252,None,464.88115252,None,,,,,,,458.19846700000016,460.9479169000001,460.6812645,None,0.035938653165201555,461.1812391000001,None,461.1812391000001,None,461.83120329999997,None,461.83120329999997,None,right,1.7896114000000125,461.83120329999997,None,463.69777339999996,None,right,1.139148700000078,463.69777339999996,None,463.69777339999996,None,-3.9477377065283052,150.61894353322975,,5,001,2021_Apr_08_1300,AB_pic_singleT2,2021.1.2,60.01500375091349,
AB,lag2,2,4,6,0.06000000005000003,0.02,0.3,main,,,,,0,40,40,40,,,,,,,skippingrope.jpg,elbow.jpg,hockeystick.jpg,sandcastle.jpg,lily.jpg,redfox.jpg,daddylonglegs.jpg,cymbal.jpg,bumpercar.jpg,steeringwheel.jpg,wheelbarrow01.jpg,eiffeltower.jpg,bathtub.jpg,hockeypuck.jpg,tree.jpg,dolphin01.jpg,cross01.jpg,,,,,0,0,8,,,,,.\resources\redfox.jpg,,,1,,,,,,,,,1,,,,,,,,,None,469.43047612,None,469.43047612,None,,,,,,,464.8981016,467.64753370000017,467.38088590000007,None,0.0354140849917155,467.8808878,None,467.8808878,None,468.41456990000006,None,468.41456990000006,None,right,0.774467100000038,468.41456990000006,None,469.2640854000001,None,right,0.14085610000006454,469.2640854000001,None,469.2640854000001,None,-3.8744310162551403,150.64155198226985,,5,001,2021_Apr_08_1300,AB_pic_singleT2,2021.1.2,60.01500375091349,
AB,lag1,1,4,5,0.06000000005000003,0.02,0.3,main,,,,,0,41,41,41,,,,,,,beaver.jpg,harmonica.jpg,kite.jpg,basketball01.jpg,skippingrope.jpg,hulahoop.jpg,penguin.jpg,microwave.jpg,jackrabbit.jpg,grizzly.jpg,frenchfries.jpg,lion.jpg,sink.jpg,hockeystick.jpg,dragonfly01.jpg,shower.jpg,makiroll.jpg,,,,,0,0,7,,,,,.\resources\skippingrope.jpg,,,1,,,,,,,,,0,,,,,,,,,None,474.6968672200002,None,474.6968672200002,None,,,,,,,469.44743110000013,472.19777369999997,471.93112040000005,None,0.0349221400612907,472.44776920000004,None,472.44776920000004,None,472.8972616000001,None,472.8972616000001,None,right,1.1075797999999395,472.8972616000001,None,474.0805062000002,None,left,0.5963102999999137,474.0805062000002,None,474.0805062000002,None,-3.805697068052675,150.66504044293822,,5,001,2021_Apr_08_1300,AB_pic_singleT2,2021.1.2,60.01500375091349,
AB,lag6,6,5,11,0.06000000005000003,0.02,0.3,main,,,,,0,42,42,42,,,,,,,guitarcase.jpg,nunchuk.jpg,jellyfish.jpg,dormer.jpg,hockeystick.jpg,bacon.jpg,showerhead01.jpg,cymbal.jpg,cow.jpg,mattress.jpg,table01.jpg,lollipop04.jpg,funnel.jpg,arrow02.jpg,discoball.jpg,tiger02.jpg,lily.jpg,,,,,1,1,13,,,,,.\resources\table01.jpg,,,1,,,,,,,,,0,,,,,,,,,None,481.79646562000005,None,481.79646562000005,None,,,,,,,474.714201,477.4636488000001,477.1970031000001,None,0.034460492055148936,477.69697730000007,None,477.69697730000007,None,478.48025989999996,None,478.48025989999996,None,left,2.1965651000000435,478.48025989999996,None,480.7468344000001,None,right,1.02594780000004,480.7468344000001,None,480.7468344000001,None,-3.741198925597424,150.68943398101055,,5,001,2021_Apr_08_1300,AB_pic_singleT2,2021.1.2,60.01500375091349,
AB,lag5,5,5,10,0.06000000005000003,0.02,0.3,main,,,,,0,43,43,43,,,,,,,zipper.jpg,curtain.jpg,tree.jpg,masquerademask01.jpg,eye.jpg,lip.jpg,skippingrope.jpg,bat.jpg,christmastree.jpg,licenseplate.jpg,urinal.jpg,tulip02.jpg,grizzly.jpg,trophy01.jpg,ipad02.jpg,telescope.jpg,church.jpg,,,,,1,0,12,,,,,.\resources\licenseplate.jpg,,,1,,,,,,,,,1,,,,,,,,,None,487.7961223200001,None,487.7961223200001,None,,,,,,,481.81340180000007,484.56364529999996,484.2969911,None,0.034026893268199986,484.81324570000015,None,484.81324570000015,None,485.5298805,None,485.5298805,None,left,1.7550034999999298,485.5298805,None,487.3797585,None,right,0.3771134000000984,487.3797585,None,487.3797585,None,-3.6806159264513956,150.7147504983702,,5,001,2021_Apr_08_1300,AB_pic_singleT2,2021.1.2,60.01500375091349,
AB,lag7,7,5,12,0.06000000005000003,0.02,0.3,main,,,,,0,44,44,44,,,,,,,ironingboard01.jpg,cactus.jpg,accordion01.jpg,surfboard.jpg,mummy.jpg,platypus.jpg,dalmatian.jpg,parrot01.jpg,seagull.jpg,toad.jpg,chefshat.jpg,chair.jpg,lightswitch01.jpg,snowshovel.jpg,corn02.jpg,fishingrod.jpg,bow.jpg,,,,,0,0,14,,,,,.\resources\chair.jpg,,,0,,,,,,,,,0,,,,,,,,,None,495.3956710199999,None,495.3956710199999,None,,,,,,,487.8131071,490.5633024000001,490.2966428000002,None,0.033619206287483314,490.7962215,None,490.7962215,None,491.6295103,None,491.6295103,None,left,2.1753061999997954,491.6295103,None,493.87937450000004,None,left,1.469537500000115,493.87937450000004,None,493.87937450000004,None,-3.9027785345844968,150.7286952730807,,5,001,2021_Apr_08_1300,AB_pic_singleT2,2021.1.2,60.01500375091349,
AB,lag3,3,4,7,0.06000000005000003,0.02,0.3,main,,,,,0,45,45,45,,,,,,,christmaslights.jpg,windshieldwiper02.jpg,witchhat.jpg,humanskeleton.jpg,tank.jpg,chimney.jpg,scooter.jpg,stool01.jpg,urinal.jpg,kite.jpg,dreamcatcher.jpg,jeans01.jpg,marble.jpg,moose.jpg,kneepad01c.jpg,waterfall.jpg,tie02.jpg,,,,,1,0,9,,,,,.\resources\scooter.jpg,,,1,,,,,,,,,1,,,,,,,,,None,501.49532472,None,501.49532472,None,,,,,,,495.4126498000003,498.16246520000027,497.8958307999999,None,0.03509001976114754,498.3957903000003,None,498.3957903000003,None,498.9790899000002,None,498.9790899000002,None,left,1.9297947999998541,498.9790899000002,None,500.97897290000014,None,right,0.48184420000006867,500.97897290000014,None,500.97897290000014,None,-3.8810459860479596,150.75020280450542,,5,001,2021_Apr_08_1300,AB_pic_singleT2,2021.1.2,60.01500375091349,
AB,lag2,2,5,7,0.06000000005000003,0.02,0.3,main,,,,,0,46,46,46,,,,,,,panda.jpg,moon.jpg,flag.jpg,giraffe.jpg,tire.jpg,trampoline.jpg,escalator.jpg,guitarcase.jpg,chefshat.jpg,footballhelmet.jpg,englishcucumber.jpg,vulture.jpg,bowlingball.jpg,cheetah.jpg,kite.jpg,swordfish.jpg,electricguitar01.jpg,,,,,1,1,9,,,,,.\resources\escalator.jpg,,,0,,,,,,,,,1,,,,,,,,,None,508.2116016200001,None,508.2116016200001,None,,,,,,,501.5122745000001,504.26251430000025,503.9958634000002,None,0.034940850819276156,504.51250240000013,None,504.51250240000013,None,505.0787404,None,505.0787404,None,right,1.366142200000013,505.0787404,None,506.51196330000016,None,left,1.6691169999999147,506.51196330000016,None,506.51196330000016,None,-4.081073791107042,150.76225821076352,,5,001,2021_Apr_08_1300,AB_pic_singleT2,2021.1.2,60.01500375091349,
AB,lag6,6,5,11,0.06000000005000003,0.02,0.3,main,,,,,0,47,47,47,,,,,,,nose.jpg,mummy.jpg,jeep.jpg,punchingbag.jpg,birthdaycandle.jpg,corn02.jpg,bullet.jpg,daddylonglegs.jpg,nosmokingsign.jpg,porcupine.jpg,christmastree.jpg,arrow02.jpg,cymbal.jpg,lighthouse.jpg,fishingrod.jpg,foot.jpg,ladybug03.jpg,,,,,0,1,13,,,,,.\resources\christmastree.jpg,,,0,,,,,,,,,1,,,,,,,,,None,514.46162322,None,514.46162322,None,,,,,,,508.22854699999993,510.9787506,510.7121205000001,None,0.036264833235541145,511.21170140000027,None,511.21170140000027,None,512.0283175000002,None,512.0283175000002,None,left,1.496498999999858,512.0283175000002,None,513.61158,None,left,0.8251642000000174,513.61158,None,513.61158,None,-4.2820730331891586,150.77161529122324,,5,001,2021_Apr_08_1300,AB_pic_singleT2,2021.1.2,60.01500375091349,
AB,lag1,1,4,5,0.06000000005000003,0.02,0.3,main,,,,,0,48,48,48,,,,,,,pigeon.jpg,spiderweb.jpg,crosscountryski.jpg,tire.jpg,eyepatch.jpg,frisbee.jpg,bridge.jpg,parachute.jpg,humanskeleton.jpg,triangle.jpg,musicsheet.jpg,panda.jpg,lightswitch01.jpg,shower.jpg,witchhat.jpg,skateboard.jpg,saltshaker03a.jpg,,,,,1,1,7,,,,,.\resources\eyepatch.jpg,,,0,,,,,,,,,1,,,,,,,,,None,520.2608962200001,None,520.2608962200001,None,,,,,,,514.4785558000001,517.2284093000001,516.9617501,None,0.037595719747117534,517.4613427000002,None,517.4613427000002,None,517.9446676999999,None,517.9446676999999,None,right,1.7161686999997983,517.9446676999999,None,519.7445515000002,None,left,0.5004023000001325,519.7445515000002,None,519.7445515000002,None,-4.463019816743958,150.77927185118088,,5,001,2021_Apr_08_1300,AB_pic_singleT2,2021.1.2,60.01500375091349,
AB,lag4,4,3,7,0.06000000005000003,0.02,0.3,main,,,,,0,49,49,49,,,,,,,fireplace.jpg,skunk.jpg,parrot01.jpg,table01.jpg,dreamcatcher.jpg,granolabar01.jpg,barrel01.jpg,nosmokingsign.jpg,redfox.jpg,acousticguitar02.jpg,triangle.jpg,musicsheet.jpg,fishskeleton.jpg,skateboard.jpg,snowboard.jpg,ipad02.jpg,raccoon.jpg,,,,,0,0,9,,,,,.\resources\barrel01.jpg,,,1,,,,,,,,,0,,,,,,,,,None,526.92775432,None,526.92775432,None,,,,,,,520.2778476000001,523.027777,522.7611213000002,None,0.03879388795322689,523.2777551000001,None,523.2777551000001,None,523.8777246000002,None,523.8777246000002,None,right,1.975093100000322,523.8777246000002,None,525.9447422999999,None,left,0.9560706000002028,525.9447422999999,None,525.9447422999999,None,-4.43682511477664,150.79444652972768,,5,001,2021_Apr_08_1300,AB_pic_singleT2,2021.1.2,60.01500375091349,
AB,lag3,3,4,7,0.06000000005000003,0.02,0.3,main,,,,,0,50,50,50,,,,,,,cat.jpg,porcupine.jpg,wheelchair.jpg,dartboard.jpg,bowtie.jpg,slug.jpg,beaver.jpg,xylophone.jpg,church.jpg,swordfish.jpg,soccerball.jpg,acousticguitar02.jpg,parkfountain.jpg,waterfall.jpg,frenchfries.jpg,banjo.jpg,brownsugar.jpg,,,,,1,0,9,,,,,.\resources\beaver.jpg,,,1,,,,,,,,,1,,,,,,,,,None,532.7273880199999,None,532.7273880199999,None,,,,,,,526.9446958000001,529.69406,529.4274066999999,None,0.03861627274681206,529.9440511999999,None,529.9440511999999,None,530.5440105999999,None,530.5440105999999,None,left,1.500955200000135,530.5440105999999,None,532.1110285000002,None,right,0.5977566999999908,532.1110285000002,None,532.1110285000002,None,-4.400272771231947,150.81047255925714,,5,001,2021_Apr_08_1300,AB_pic_singleT2,2021.1.2,60.01500375091349,
AB,lag7,7,5,12,0.06000000005000003,0.02,0.3,main,,,,,0,51,51,51,,,,,,,horseshoe.jpg,anchor.jpg,saltshaker03a.jpg,skippingrope.jpg,punchingbag.jpg,drumstick.jpg,cymbal.jpg,cross01.jpg,ladder.jpg,trampoline.jpg,snowshovel.jpg,ladybug03.jpg,acorn.jpg,mummy.jpg,cigar.jpg,bluejay.jpg,recyclingbin.jpg,,,,,0,1,14,,,,,.\resources\ladybug03.jpg,,,1,,,,,,,,,1,,,,,,,,,None,539.0269669200001,None,539.0269669200001,None,,,,,,,532.7443341999999,535.4937256999999,535.2270749000002,None,0.03836979643491372,535.7437124999999,None,535.7437124999999,None,536.6269958999999,None,536.6269958999999,None,right,1.6419469999996181,536.6269958999999,None,538.3606278,None,left,0.6362114000003203,538.3606278,None,538.3606278,None,-4.363982756937154,150.82696928996387,,5,001,2021_Apr_08_1300,AB_pic_singleT2,2021.1.2,60.01500375091349,
AB,lag1,1,5,6,0.06000000005000003,0.02,0.3,main,,,,,0,52,52,52,,,,,,,car.jpg,kiwi03.jpg,drumset.jpg,motorcycle.jpg,dromedary.jpg,ceilingfan01.jpg,doghouse.jpg,leafblower01.jpg,beaver.jpg,cigar.jpg,eyepatch.jpg,pumpkin.jpg,vacuumcleaner01.jpg,cross01.jpg,sausage.jpg,birthdaycandle.jpg,snowman.jpg,,,,,0,0,8,,,,,.\resources\ceilingfan01.jpg,,,0,,,,,,,,,1,,,,,,,,,None,544.5095621200002,None,544.5095621200002,None,,,,,,,539.0439280000003,541.7933469000002,541.5266890999999,None,0.03812499279888184,542.0433261999999,None,542.0433261999999,None,542.5766338999999,None,542.5766338999999,None,left,1.5323229000000538,542.5766338999999,None,544.1765111000002,None,right,0.30840760000000955,544.1765111000002,None,544.1765111000002,None,-4.506611246515646,150.8354746312859,,5,001,2021_Apr_08_1300,AB_pic_singleT2,2021.1.2,60.01500375091349,
AB,lag4,4,4,8,0.06000000005000003,0.02,0.3,main,,,,,0,53,53,53,,,,,,,bowtie.jpg,tank.jpg,curtain.jpg,tarantula.jpg,pooltable.jpg,cannon.jpg,candycane01a.jpg,hotdogweiner.jpg,xylophone.jpg,bluejay.jpg,bathtub.jpg,skunk.jpg,basketball01.jpg,electricguitar01.jpg,urinal.jpg,triangle.jpg,ironingboard01.jpg,,,,,1,1,10,,,,,.\resources\hotdogweiner.jpg,,,1,,,,,,,,,1,,,,,,,,,None,550.1259003200001,None,550.1259003200001,None,,,,,,,544.5264961,547.2767512000003,547.0101228000001,None,0.039068432820864044,547.5096580000002,None,547.5096580000002,None,548.1929498000002,None,548.1929498000002,None,left,1.4521137000001545,548.1929498000002,None,549.7261733000003,None,left,0.3746937999999318,549.7261733000003,None,549.7261733000003,None,-4.481367354398596,150.8502070015372,,5,001,2021_Apr_08_1300,AB_pic_singleT2,2021.1.2,60.01500375091349,
AB,lag6,6,5,11,0.06000000005000003,0.02,0.3,main,,,,,0,54,54,54,,,,,,,porcupine.jpg,rollerblade.jpg,saxophone.jpg,raccoon.jpg,snowshovel.jpg,tire.jpg,penguin.jpg,motorcycle.jpg,eyepatch.jpg,frisbee.jpg,tank.jpg,accordion01.jpg,snowboard.jpg,barrel01.jpg,jackrabbit.jpg,witchhat.jpg,ostrich.jpg,,,,,0,0,13,,,,,.\resources\tank.jpg,,,1,,,,,,,,,1,,,,,,,,,None,556.6588631200001,None,556.6588631200001,None,,,,,,,550.1428367999999,552.8930468000001,552.6263986000001,None,0.038897273209964466,553.1259837999999,None,553.1259837999999,None,553.9759366000001,None,553.9759366000001,None,right,1.9649426999999378,553.9759366000001,None,556.0091706999999,None,right,0.627787299999909,556.0091706999999,None,556.0091706999999,None,-4.449508534219198,150.86560490016112,,5,001,2021_Apr_08_1300,AB_pic_singleT2,2021.1.2,60.01500375091349,
AB,lag2,2,4,6,0.06000000005000003,0.02,0.3,main,,,,,0,55,55,55,,,,,,,hotdogweiner.jpg,tennisracket.jpg,well.jpg,floorlamp.jpg,handcuffs.jpg,redfox.jpg,escalator.jpg,foosballtable.jpg,tarantula.jpg,ipad02.jpg,bowlingball.jpg,duck01.jpg,trampoline.jpg,pirateflag.jpg,harmonica.jpg,athleticsock.jpg,noparkingsign.jpg,,,,,0,0,8,,,,,.\resources\redfox.jpg,,,0,,,,,,,,,1,,,,,,,,,None,562.2252081200003,None,562.2252081200003,None,,,,,,,556.67579,559.4260166000001,559.1593617999999,None,0.0386821296955066,559.6759958999999,None,559.6759958999999,None,560.2092997000002,None,560.2092997000002,None,left,1.5876628000000892,560.2092997000002,None,561.8921551000001,None,right,0.3128388999998606,561.8921551000001,None,561.8921551000001,None,-4.577447170529647,150.87370714797132,,5,001,2021_Apr_08_1300,AB_pic_singleT2,2021.1.2,60.01500375091349,
AB,lag5,5,4,9,0.06000000005000003,0.02,0.3,main,,,,,0,56,56,56,,,,,,,cloud.jpg,sheep.jpg,lily.jpg,snowshoe.jpg,lollipop04.jpg,kneepad01c.jpg,locker.jpg,beaver.jpg,tie02.jpg,shovel01.jpg,crosscountryski.jpg,anchor.jpg,fishskeleton.jpg,fingerprint.jpg,kiwi03.jpg,kite.jpg,recyclingbin.jpg,,,,,0,1,11,,,,,.\resources\tie02.jpg,,,0,,,,,,,,,1,,,,,,,,,None,570.7917943199999,None,570.7917943199999,None,,,,,,,562.2421368000003,564.9923593000001,564.7257120000002,None,0.039528037352462755,565.2253375000003,None,565.2253375000003,None,565.9419177000002,None,565.9419177000002,None,left,1.5191691999998511,565.9419177000002,None,567.5418350000002,None,left,3.2309775999997328,567.5418350000002,None,567.5418350000002,None,-4.702389420036744,150.88009740671302,,5,001,2021_Apr_08_1300,AB_pic_singleT2,2021.1.2,60.01500375091349,
AB,lag2,2,3,5,0.06000000005000003,0.02,0.3,main,,,,,0,57,57,57,,,,,,,schoolbus.jpg,sandcastle.jpg,tulip02.jpg,bluejay.jpg,church.jpg,electrictoothbrush01c.jpg,trophy01.jpg,vulture.jpg,surfboard.jpg,soccerball.jpg,calendar.jpg,parachute.jpg,sledgehammer.jpg,cigar.jpg,basketball01.jpg,golfball.jpg,birdfeeder.jpg,,,,,0,1,7,,,,,.\resources\church.jpg,,,1,,,,,,,,,1,,,,,,,,,None,576.0915994199999,None,576.0915994199999,None,,,,,,,570.8087443000002,573.5582314999999,573.2915826999999,None,0.040354452878857534,573.7915504,None,573.7915504,None,574.3081942000001,None,574.3081942000001,None,right,1.0407664999997905,574.3081942000001,None,575.4414638000001,None,left,0.6114202000003388,575.4414638000001,None,575.4414638000001,None,-4.6793138970138966,150.8922134695114,,5,001,2021_Apr_08_1300,AB_pic_singleT2,2021.1.2,60.01500375091349,
AB,lag6,6,5,11,0.06000000005000003,0.02,0.3,main,,,,,0,58,58,58,,,,,,,fortunecookie.jpg,dandelion.jpg,bowlingpin.jpg,surfboard.jpg,ant.jpg,horse.jpg,dormer.jpg,shower.jpg,knee.jpg,dromedary.jpg,tree.jpg,fridge.jpg,lion.jpg,panda.jpg,alligator.jpg,zipper.jpg,hulahoop.jpg,,,,,1,0,13,,,,,.\resources\tree.jpg,,,1,,,,,,,,,1,,,,,,,,,space,582.4248380000001,None,582.4248380000001,None,,,,,,,576.1085415,578.8579345999999,578.5912756999999,None,0.040198285376464284,579.1079179999999,None,579.1079179999999,None,579.9578751000001,None,579.9578751000001,None,left,1.5750616999998783,579.9578751000001,None,581.6415600000003,None,right,0.7472778999999719,581.6415600000003,None,581.6415600000003,None,-4.65234502244636,150.90489228328283,13.508084800000233,5,001,2021_Apr_08_1300,AB_pic_singleT2,2021.1.2,60.01500375091349,
AB,lag7,7,4,11,0.06000000005000003,0.02,0.3,main,,,,,0,59,59,59,,,,,,,badmintonracket.jpg,helicopter.jpg,popcorn.jpg,alligator.jpg,fingerprint.jpg,flamingo.jpg,dragonfly01.jpg,pokerchips.jpg,cruiseship.jpg,bridge.jpg,dreamcatcher.jpg,bowlingball.jpg,seagull.jpg,arrow02.jpg,jackrabbit.jpg,sausage.jpg,squirrel.jpg,,,,,0,0,13,,,,,.\resources\dreamcatcher.jpg,,,1,,,,,,,,,1,,,,,,,,,None,601.1730559199999,None,601.1730559199999,None,,,,,,,595.9740779000001,598.7234651000001,598.4568234999999,None,0.04001619359185751,598.9734587,None,598.9734587,None,599.8234098999999,None,599.8234098999999,None,right,0.9896028000002843,599.8234098999999,None,600.9066786999999,None,right,0.25028470000006564,600.9066786999999,None,600.9066786999999,None,-4.62567633247121,150.9179630634377,,5,001,2021_Apr_08_1300,AB_pic_singleT2,2021.1.2,60.01500375091349,
AB,lag5,5,3,8,0.06000000005000003,0.02,0.3,main,,,,,0,60,60,60,,,,,,,handcuffs.jpg,acorn.jpg,brownsugar.jpg,cork02.jpg,xylophone.jpg,hotdogweiner.jpg,moon.jpg,ducttape.jpg,snowman.jpg,bowtie.jpg,porcupine.jpg,lightswitch01.jpg,spicerack.jpg,crosscountryski.jpg,eiffeltower.jpg,waterfountain02.jpg,flamingo.jpg,,,,,0,0,10,,,,,.\resources\ducttape.jpg,,,0,,,,,,,,,1,,,,,,,,,None,606.6060637200002,None,606.6060637200002,None,,,,,,,601.1899964000002,603.9398754000001,603.6731903000002,None,0.03983601800313191,604.1731599000002,None,604.1731599000002,None,604.8564498000003,None,604.8564498000003,None,left,1.2365445000000364,604.8564498000003,None,606.1897061000002,None,right,0.37531029999991006,606.1897061000002,None,606.1897061000002,None,-4.733083975205797,150.92463144173993,,5,001,2021_Apr_08_1300,AB_pic_singleT2,2021.1.2,60.01500375091349,
AB,lag3,3,5,8,0.06000000005000003,0.02,0.3,main,,,,,0,61,61,61,,,,,,,lightswitch01.jpg,birdnest.jpg,lawnmower.jpg,well.jpg,chainsaw.jpg,nunchuk.jpg,callbell.jpg,mouse.jpg,tarantula.jpg,raccoon.jpg,shower.jpg,bow.jpg,trumpet.jpg,crosscountryski.jpg,ear.jpg,banjo.jpg,skateboard.jpg,,,,,0,0,10,,,,,.\resources\mouse.jpg,,,1,,,,,,,,,1,,,,,,,,,None,611.1724683199999,None,611.1724683199999,None,,,,,,,606.6230400000002,609.3728701000002,609.1062168999999,None,0.040545922013318914,609.6061845000002,None,609.6061845000002,None,610.3061198000003,None,610.3061198000003,None,right,0.5307489000001624,610.3061198000003,None,610.9394193999999,None,right,0.20155720000002475,610.9394193999999,None,610.9394193999999,None,-4.711663878917748,150.9363467523796,,5,001,2021_Apr_08_1300,AB_pic_singleT2,2021.1.2,60.01500375091349,
AB,lag4,4,5,9,0.06000000005000003,0.02,0.3,main,,,,,0,62,62,62,,,,,,,key07.jpg,pigeon.jpg,rose.jpg,badmintonracket.jpg,volleyball.jpg,chimney.jpg,toyanimal05.jpg,floorlamp.jpg,ladder.jpg,urinal.jpg,jellyfish.jpg,fingerprint.jpg,licenseplate.jpg,recyclingbin.jpg,waterfall.jpg,lion.jpg,tire.jpg,,,,,0,0,11,,,,,.\resources\ladder.jpg,,,1,,,,,,,,,1,,,,,,,,,None,615.6555461199999,None,615.6555461199999,None,,,,,,,611.1893975999999,613.9392436,613.6725829,None,0.040400860172147376,614.1725588000002,None,614.1725588000002,None,614.9225168,None,614.9225168,None,right,0.47444039999982124,614.9225168,None,615.4725060000003,None,right,0.16428959999984727,615.4725060000003,None,615.4725060000003,None,-4.687343432934626,150.94855153295055,,5,001,2021_Apr_08_1300,AB_pic_singleT2,2021.1.2,60.01500375091349,
AB,lag1,1,3,4,0.06000000005000003,0.02,0.3,main,,,,,0,63,63,63,,,,,,,motorcycle.jpg,greatwhiteshark.jpg,cashregister01.jpg,seagull.jpg,guitarcase.jpg,cork02.jpg,bluejay.jpg,ipad02.jpg,treadmill.jpg,curtain.jpg,jellyfish.jpg,cupcake.jpg,chainsaw.jpg,microwave.jpg,tricycle.jpg,tortoise01.jpg,chair.jpg,,,,,0,0,6,,,,,.\resources\seagull.jpg,,,1,,,,,,,,,1,,,,,,,,,None,620.4224448200001,None,620.4224448200001,None,,,,,,,615.6724858999999,618.4223431000003,618.1556922000002,None,0.040236476152795034,618.6723364000002,None,618.6723364000002,None,619.1056394,None,619.1056394,None,right,0.8913996999999654,619.1056394,None,620.0893581000003,None,right,0.31547839999984717,620.0893581000003,None,620.0893581000003,None,-4.663282063082133,150.9611134907698,,5,001,2021_Apr_08_1300,AB_pic_singleT2,2021.1.2,60.01500375091349,
AB,lag5,5,4,9,0.06000000005000003,0.02,0.3,main,,,,,0,64,64,64,,,,,,,birdhouse.jpg,ladybug03.jpg,eiffeltower.jpg,doghouse.jpg,trampoline.jpg,africanelephant.jpg,telescope.jpg,tank.jpg,kneepad01c.jpg,crown.jpg,cork02.jpg,porcupine.jpg,panda.jpg,footballhelmet.jpg,saxophone.jpg,granolabar01.jpg,pooltable.jpg,,,,,0,0,11,,,,,.\resources\kneepad01c.jpg,,,1,,,,,,,,,1,,,,,,,,,None,624.8554766199999,None,624.8554766199999,None,,,,,,,620.4393450999999,623.1887420999999,622.9220876000002,None,0.04007374007990417,623.4387316,None,623.4387316,None,624.1720141000003,None,624.1720141000003,None,right,0.42497969999976704,624.1720141000003,None,624.6886543000003,None,right,0.1322411999999531,624.6886543000003,None,624.6886543000003,None,-4.639547468538589,150.9740134999705,,5,001,2021_Apr_08_1300,AB_pic_singleT2,2021.1.2,60.01500375091349,
AB,lag4,4,3,7,0.06000000005000003,0.02,0.3,main,,,,,0,65,65,65,,,,,,,hotdogweiner.jpg,chefshat.jpg,beerbottle.jpg,snowshoe.jpg,greywolf.jpg,tortoise01.jpg,kiwi03.jpg,bluecheese.jpg,paperairplane.jpg,arrow02.jpg,nosmokingsign.jpg,cloud.jpg,foosballtable.jpg,eye.jpg,skateboard.jpg,ipad02.jpg,jellyfish.jpg,,,,,0,0,9,,,,,.\resources\kiwi03.jpg,,,1,,,,,,,,,1,,,,,,,,,None,629.28812172,None,629.28812172,None,,,,,,,624.8724469000001,627.6218207,627.3551903,None,0.039913106169490925,627.8718053,None,627.8718053,None,628.4884355000002,None,628.4884355000002,None,right,0.49246679999987464,628.4884355000002,None,629.0717622,None,right,0.19711210000014034,629.0717622,None,629.0717622,None,-4.616131324417734,150.98723650650206,,5,001,2021_Apr_08_1300,AB_pic_singleT2,2021.1.2,60.01500375091349,
AB,lag7,7,3,10,0.06000000005000003,0.02,0.3,main,,,,,0,66,66,66,,,,,,,lip.jpg,ostrich.jpg,zipper.jpg,fridge.jpg,dartboard.jpg,tree.jpg,xylophone.jpg,tarantula.jpg,horse.jpg,bacon.jpg,cactus.jpg,snowshovel.jpg,birdnest.jpg,church.jpg,granolabar01.jpg,funnel.jpg,bumpercar.jpg,,,,,1,0,12,,,,,.\resources\bacon.jpg,,,1,,,,,,,,,0,,,,,,,,,None,634.8214864200003,None,634.8214864200003,None,,,,,,,629.3050629000002,632.0549260999999,631.7882497000003,None,0.03975452378902993,632.2882175000002,None,632.2882175000002,None,633.0881747999999,None,633.0881747999999,None,left,1.0768640000001142,633.0881747999999,None,634.2380581,None,left,0.550774199999978,634.2380581,None,634.2380581,None,-4.593024109269345,151.00076872606883,,5,001,2021_Apr_08_1300,AB_pic_singleT2,2021.1.2,60.01500375091349,
AB,lag2,2,3,5,0.06000000005000003,0.02,0.3,main,,,,,0,67,67,67,,,,,,,acousticguitar02.jpg,bathtub.jpg,chimney.jpg,hotdogweiner.jpg,giraffe.jpg,humanskeleton.jpg,locker.jpg,electrictoothbrush01c.jpg,xylophone.jpg,kiwi03.jpg,cannon.jpg,car.jpg,holdfast.jpg,pokerchips.jpg,worldmap.jpg,handcuffs.jpg,sword01.jpg,,,,,0,0,7,,,,,.\resources\giraffe.jpg,,,1,,,,,,,,,1,,,,,,,,,None,640.3040986200002,None,640.3040986200002,None,,,,,,,634.8384204000001,637.5878648,637.3212133,None,0.03959793397632528,637.8211849000002,None,637.8211849000002,None,638.3211625000001,None,638.3211625000001,None,right,1.2039042999999765,638.3211625000001,None,639.6210674000001,None,right,0.6560331999999107,639.6210674000001,None,639.6210674000001,None,-4.570216924363193,151.0145974850626,,5,001,2021_Apr_08_1300,AB_pic_singleT2,2021.1.2,60.01500375091349,
AB,lag6,6,4,10,0.06000000005000003,0.02,0.3,main,,,,,0,68,68,68,,,,,,,boat.jpg,noparkingsign.jpg,cloud.jpg,lion.jpg,wheelbarrow01.jpg,redfox.jpg,bat.jpg,hand01b.jpg,statue.jpg,telescope.jpg,hulahoop.jpg,jellybean.jpg,bowtie.jpg,flag.jpg,basketball01.jpg,accordion01.jpg,mouse.jpg,,,,,0,0,12,,,,,.\resources\telescope.jpg,,,1,,,,,,,,,1,,,,,,,,,None,645.10380982,None,645.10380982,None,,,,,,,640.3210212000001,643.0712378999999,642.8046317000001,None,0.03944328154152293,643.3212357,None,643.3212357,None,644.1041456,None,644.1041456,None,right,0.6768322000002627,644.1041456,None,644.8707608000002,None,right,0.21424759999990783,644.8707608000002,None,644.8707608000002,None,-4.547701483553427,151.02871113524768,,5,001,2021_Apr_08_1300,AB_pic_singleT2,2021.1.2,60.01500375091349,
AB,lag1,1,4,5,0.06000000005000003,0.02,0.3,main,,,,,0,69,69,69,,,,,,,pig.jpg,noparkingsign.jpg,statue.jpg,pigeon.jpg,slug.jpg,safe.jpg,nose.jpg,lightswitch01.jpg,kite.jpg,locker.jpg,birdnest.jpg,turnstile.jpg,squirrel.jpg,baseballbat.jpg,ipad02.jpg,trophy01.jpg,christmaslights.jpg,,,,,0,1,7,,,,,.\resources\slug.jpg,,,1,,,,,,,,,1,,,,,,,,,None,650.37020462,None,650.37020462,None,,,,,,,645.1207452000001,647.8709641000003,647.6043244999998,None,0.039290515029022303,648.1039143,None,648.1039143,None,648.6042914000002,None,648.6042914000002,None,right,1.0965805999999247,648.6042914000002,None,649.7871486000001,None,left,0.5618749000000207,649.7871486000001,None,649.7871486000001,None,-4.525470062060876,151.04309897699912,,5,001,2021_Apr_08_1300,AB_pic_singleT2,2021.1.2,60.01500375091349,
AB,lag3,3,5,8,0.06000000005000003,0.02,0.3,main,,,,,0,70,70,70,,,,,,,barrel01.jpg,well.jpg,panda.jpg,microwave.jpg,waterfountain02.jpg,flag.jpg,saxophone.jpg,turnstile.jpg,hand01b.jpg,pigeon.jpg,telescope.jpg,seagull.jpg,boat.jpg,treadmill.jpg,floorlamp.jpg,horse.jpg,frisbee.jpg,,,,,1,0,10,,,,,.\resources\turnstile.jpg,,,1,,,,,,,,,1,,,,,,,,,None,656.6031588200002,None,656.6031588200002,None,,,,,,,650.3871374000003,653.1373481000003,652.8706853000001,None,0.039139586404281945,653.3703134,None,653.3703134,None,654.0535772999999,None,654.0535772999999,None,left,2.0472890999999436,654.0535772999999,None,656.1867841000001,None,right,0.38618059999998877,656.1867841000001,None,656.1867841000001,None,-4.50351544907686,151.0577511888001,,5,001,2021_Apr_08_1300,AB_pic_singleT2,2021.1.2,60.01500375091349,
AB,lag4,4,3,7,0.06000000005000003,0.02,0.3,main,,,,,0,71,71,71,,,,,,,lily.jpg,accordion01.jpg,kneepad01c.jpg,mailbox02.jpg,saxophone.jpg,jackrabbit.jpg,tortoise01.jpg,armadillo.jpg,dandelion.jpg,peacock.jpg,cheetah.jpg,locker.jpg,bluejay.jpg,lightswitch01.jpg,bluecheese.jpg,callbell.jpg,humanskeleton.jpg,,,,,0,0,9,,,,,.\resources\tortoise01.jpg,,,0,,,,,,,,,1,,,,,,,,,None,662.36951532,None,662.36951532,None,,,,,,,656.6200931000001,659.3703438999999,659.1036612999999,None,0.038990450763664225,659.6032613,None,659.6032613,None,660.2198887000002,None,660.2198887000002,None,left,1.5770933999997396,660.2198887000002,None,661.8697970000001,None,right,0.4713509000002887,661.8697970000001,None,661.8697970000001,None,-4.593902233260431,151.0672389749722,,5,001,2021_Apr_08_1300,AB_pic_singleT2,2021.1.2,60.01500375091349,
AB,lag1,1,3,4,0.06000000005000003,0.02,0.3,main,,,,,0,72,72,72,,,,,,,fireplace.jpg,football.jpg,kiwi03.jpg,eiffeltower.jpg,mummy.jpg,cat.jpg,surfboard.jpg,kite.jpg,toyanimal05.jpg,baseballbat.jpg,frenchfries.jpg,chair.jpg,frisbee.jpg,brownsugar.jpg,cocktailshrimp02.jpg,ceilingfan01.jpg,tent.jpg,,,,,1,0,6,,,,,.\resources\eiffeltower.jpg,,,1,,,,,,,,,1,,,,,,,,,None,667.9362129200002,None,667.9362129200002,None,,,,,,,662.3864359000002,665.1367003000003,664.8700961000002,None,0.039586323513671154,665.3866888999999,None,665.3866888999999,None,665.8196017000002,None,665.8196017000002,None,left,1.6973136999999952,665.8196017000002,None,667.5861344000002,None,right,0.3147484000000986,667.5861344000002,None,667.5861344000002,None,-4.576049216904479,151.08087259460916,,5,001,2021_Apr_08_1300,AB_pic_singleT2,2021.1.2,60.01500375091349,
AB,lag2,2,3,5,0.06000000005000003,0.02,0.3,main,,,,,0,73,73,73,,,,,,,firehydrant.jpg,urinal.jpg,tennisracket.jpg,ant.jpg,cross01.jpg,soccerball.jpg,kneepad01c.jpg,foot.jpg,fridge.jpg,makiroll.jpg,jackrabbit.jpg,bowlingball.jpg,microphone01.jpg,donut.jpg,stubbywrench01a.jpg,alligator.jpg,toad.jpg,,,,,1,0,7,,,,,.\resources\cross01.jpg,,,1,,,,,,,,,0,,,,,,,,,None,674.0355035199999,None,674.0355035199999,None,,,,,,,667.9531597000002,670.7030433000002,670.4363639999999,None,0.03946458261478903,670.9359455000001,None,670.9359455000001,None,671.4362864000002,None,671.4362864000002,None,left,2.1688137000001007,671.4362864000002,None,673.6858110000001,None,left,0.3192831000001206,673.6858110000001,None,673.6858110000001,None,-4.555791340848254,151.09485693190797,,5,001,2021_Apr_08_1300,AB_pic_singleT2,2021.1.2,60.01500375091349,
AB,lag5,5,5,10,0.06000000005000003,0.02,0.3,main,,,,,0,74,74,74,,,,,,,wheelbarrow01.jpg,surfboard.jpg,bullet.jpg,recyclingbin.jpg,cymbal.jpg,popcorn.jpg,cashregister01.jpg,cupcake.jpg,jellyfish.jpg,spicerack.jpg,fishingrod.jpg,tulip02.jpg,tarantula.jpg,footballhelmet.jpg,bluejay.jpg,redfox.jpg,crown.jpg,,,,,0,0,12,,,,,.\resources\spicerack.jpg,,,0,,,,,,,,,1,,,,,,,,,None,680.6184615199999,None,680.6184615199999,None,,,,,,,674.0524393000003,676.8026876000001,676.5360072000001,None,0.039326856139424986,677.0356008000001,None,677.0356008000001,None,677.8355671000002,None,677.8355671000002,None,left,2.3933187999996335,677.8355671000002,None,680.3020892000002,None,right,0.29481329999998707,680.3020892000002,None,680.3020892000002,None,-4.639828481578552,151.10397291622232,,5,001,2021_Apr_08_1300,AB_pic_singleT2,2021.1.2,60.01500375091349,
AB,lag6,6,4,10,0.06000000005000003,0.02,0.3,main,,,,,0,75,75,75,,,,,,,cat.jpg,floorlamp.jpg,lily.jpg,curtain.jpg,tennisracket.jpg,birdhouse.jpg,cigar.jpg,airhockeytable.jpg,lighthouse.jpg,cruiseship.jpg,electricguitar01.jpg,trophy01.jpg,seal.jpg,key07.jpg,banjo.jpg,urinal.jpg,birdfeeder.jpg,,,,,1,1,12,,,,,.\resources\cruiseship.jpg,,,1,,,,,,,,,1,,,,,,,,,None,687.0680926200001,None,687.0680926200001,None,,,,,,,680.6353970000002,683.3856532000002,683.1189675000003,None,0.03988063798983995,683.6185597000001,None,683.6185597000001,None,684.4188869000002,None,684.4188869000002,None,left,1.2980261000002429,684.4188869000002,None,685.8017723,None,left,1.2432361000001038,685.8017723,None,685.8017723,None,-4.622914254257656,151.11699628547063,,5,001,2021_Apr_08_1300,AB_pic_singleT2,2021.1.2,60.01500375091349,
AB,lag7,7,3,10,0.06000000005000003,0.02,0.3,main,,,,,0,76,76,76,,,,,,,drumset.jpg,raccoon.jpg,accordion01.jpg,skippingrope.jpg,fishskeleton.jpg,flag.jpg,porcupine.jpg,hotdogweiner.jpg,hand01b.jpg,handcuffs.jpg,rose.jpg,humanskeleton.jpg,saxophone.jpg,spiderweb.jpg,trumpet.jpg,greatwhiteshark.jpg,seagull.jpg,,,,,0,0,12,,,,,.\resources\handcuffs.jpg,,,0,,,,,,,,,0,,,,,,,,,None,692.3344783199999,None,692.3344783199999,None,,,,,,,687.0850317000002,689.8352763999999,689.5685986999999,None,0.03976527302081712,690.0681940000002,None,690.0681940000002,None,690.8681465000002,None,690.8681465000002,None,left,1.1848264999998719,690.8681465000002,None,692.1347487,None,left,0.18212270000003628,692.1347487,None,692.1347487,None,-4.702179734004069,151.12541363592607,,5,001,2021_Apr_08_1300,AB_pic_singleT2,2021.1.2,60.01500375091349,
AB,lag3,3,4,7,0.06000000005000003,0.02,0.3,main,,,,,0,77,77,77,,,,,,,helicopter.jpg,guitarcase.jpg,cork02.jpg,greatwhiteshark.jpg,worldmap.jpg,parachute.jpg,totempole.jpg,church.jpg,swordfish.jpg,lip.jpg,dreamcatcher.jpg,coffeemaker.jpg,tie02.jpg,cupcake.jpg,mailbox02.jpg,snowman.jpg,boxingglove01.jpg,,,,,0,1,9,,,,,.\resources\totempole.jpg,,,1,,,,,,,,,1,,,,,,,,,None,699.0507696200001,None,699.0507696200001,None,,,,,,,692.3513995000001,695.1016144000002,694.8350063999999,None,0.040287559508631755,695.3516219999999,None,695.3516219999999,None,695.9678599000001,None,695.9678599000001,None,right,2.4370669999998427,695.9678599000001,None,698.484436,None,left,0.5445881999999074,698.484436,None,698.484436,None,-4.685931032197264,151.13757783204775,,5,001,2021_Apr_08_1300,AB_pic_singleT2,2021.1.2,60.01500375091349,
AB,lag4,4,4,8,0.06000000005000003,0.02,0.3,main,,,,,0,78,78,78,,,,,,,masquerademask01.jpg,toilet.jpg,guitarcase.jpg,leafrake.jpg,triangle.jpg,beaver.jpg,pigeon.jpg,toucan.jpg,cross01.jpg,exitsign.jpg,chair.jpg,tent.jpg,sausage.jpg,pumpkin.jpg,drumset.jpg,soccerball.jpg,cloud.jpg,,,,,1,0,10,,,,,.\resources\toucan.jpg,,,1,,,,,,,,,1,,,,,,,,,None,704.4337750200001,None,704.4337750200001,None,,,,,,,699.0676833999999,701.8179035999999,701.5512833999999,None,0.040176807650476834,702.0508511,None,702.0508511,None,702.7341572000003,None,702.7341572000003,None,left,1.2787195000000793,702.7341572000003,None,704.0840991000002,None,right,0.32086610000033033,704.0840991000002,None,704.0840991000002,None,-4.66807284972693,151.15006123199956,,5,001,2021_Apr_08_1300,AB_pic_singleT2,2021.1.2,60.01500375091349,
AB,lag5,5,3,8,0.06000000005000003,0.02,0.3,main,,,,,0,79,79,79,,,,,,,basketball01.jpg,kneepad01c.jpg,masquerademask01.jpg,turnstile.jpg,saltshaker03a.jpg,tire.jpg,ducttape.jpg,worldmap.jpg,dreamcatcher.jpg,doghouse.jpg,chefshat.jpg,guitarcase.jpg,rubikcube.jpg,cat.jpg,callbell.jpg,anchor.jpg,exitsign.jpg,,,,,0,0,10,,,,,.\resources\worldmap.jpg,,,1,,,,,,,,,1,,,,,,,,,None,709.95050282,None,709.95050282,None,,,,,,,704.4507110000002,707.2009313000001,706.9343356000002,None,0.04005534077524454,707.4338762,None,707.4338762,None,708.1171683999999,None,708.1171683999999,None,right,1.0719241000001603,708.1171683999999,None,709.2837851000002,None,right,0.6253062000000682,709.2837851000002,None,709.2837851000002,None,-4.650358933195911,151.162790055212,,5,001,2021_Apr_08_1300,AB_pic_singleT2,2021.1.2,60.01500375091349,
AB,lag6,6,3,9,0.06000000005000003,0.02,0.3,main,,,,,0,80,80,80,,,,,,,locker.jpg,mummy.jpg,urinal.jpg,toilet.jpg,key07.jpg,leafrake.jpg,englishcucumber.jpg,guitarcase.jpg,dartboard.jpg,windmill.jpg,trophy01.jpg,parkfountain.jpg,toolbox02.jpg,handcuffs.jpg,magneticcompass.jpg,frisbee.jpg,microphone01.jpg,,,,,0,0,11,,,,,.\resources\dartboard.jpg,,,1,,,,,,,,,1,,,,,,,,,None,715.2832732200003,None,715.2832732200003,None,,,,,,,709.9674734000002,712.7171297000002,712.4507897999999,None,0.039934783501355875,712.9669728000001,None,712.9669728000001,None,713.7002666000001,None,713.7002666000001,None,right,1.144550900000013,713.7002666000001,None,714.9168593000002,None,right,0.3439965000002303,714.9168593000002,None,714.9168593000002,None,-4.632817942033271,151.1757540300035,,5,001,2021_Apr_08_1300,AB_pic_singleT2,2021.1.2,60.01500375091349,
AB,lag3,3,5,8,0.06000000005000003,0.02,0.3,main,,,,,0,81,81,81,,,,,,,uprightpiano01.jpg,tricycle.jpg,licenseplate.jpg,motorcycle.jpg,cat.jpg,candycane01a.jpg,tulip02.jpg,arrow02.jpg,birdfeeder.jpg,callbell.jpg,volleyball.jpg,triangle.jpg,africanelephant.jpg,cocktailshrimp02.jpg,eye.jpg,drumset.jpg,ipad02.jpg,,,,,0,1,10,,,,,.\resources\arrow02.jpg,,,1,,,,,,,,,1,,,,,,,,,None,720.56627762,None,720.56627762,None,,,,,,,715.3001772,718.0500431000003,717.7833646000001,None,0.03981532846833734,718.2833422000001,None,718.2833422000001,None,718.9666316999999,None,718.9666316999999,None,right,1.1662433000001329,718.9666316999999,None,720.2165587000002,None,left,0.31631219999962923,720.2165587000002,None,720.2165587000002,None,-4.615446608139937,151.18894463761518,,5,001,2021_Apr_08_1300,AB_pic_singleT2,2021.1.2,60.01500375091349,
AB,lag7,7,5,12,0.06000000005000003,0.02,0.3,main,,,,,0,82,82,82,,,,,,,nose.jpg,jackrabbit.jpg,cork02.jpg,redfox.jpg,greatwhiteshark.jpg,helicopter.jpg,ladder.jpg,waterfall.jpg,platypus.jpg,urinal.jpg,treadmill.jpg,lollipop04.jpg,saltshaker03a.jpg,dandelion.jpg,cigar.jpg,windshieldwiper02.jpg,kangaroo.jpg,,,,,0,0,14,,,,,.\resources\lollipop04.jpg,,,1,,,,,,,,,1,,,,,,,,,None,725.2164003199999,None,725.2164003199999,None,,,,,,,720.5832083000003,723.3330518999999,723.0663968000001,None,0.039696956570769125,723.5830444999999,None,723.5830444999999,None,724.4829603999999,None,724.4829603999999,None,right,0.3540745000000243,724.4829603999999,None,724.9500383000002,None,right,0.23884610000004614,724.9500383000002,None,724.9500383000002,None,-4.5982412655457185,151.20235392853533,,5,001,2021_Apr_08_1300,AB_pic_singleT2,2021.1.2,60.01500375091349,
AB,lag1,1,3,4,0.06000000005000003,0.02,0.3,main,,,,,0,83,83,83,,,,,,,humanskeleton.jpg,tortoise01.jpg,candycane01a.jpg,shovel01.jpg,ear.jpg,mattress.jpg,platypus.jpg,showerhead01.jpg,coffeemaker.jpg,rose.jpg,makiroll.jpg,knee.jpg,ceilingfan01.jpg,lighthouse.jpg,steeringwheel.jpg,paperairplane.jpg,waterfall.jpg,,,,,0,0,6,,,,,.\resources\shovel01.jpg,,,1,,,,,,,,,0,,,,,,,,,None,729.9656980200001,None,729.9656980200001,None,,,,,,,725.2333353000001,727.9827591000001,727.7161099000002,None,0.03957964589290822,728.232753,None,728.232753,None,728.6660558000001,None,728.6660558000001,None,right,0.8429650999996738,728.6660558000001,None,729.5993580000002,None,left,0.3257301000003281,729.5993580000002,None,729.5993580000002,None,-4.581198433946184,151.21597446779245,,5,001,2021_Apr_08_1300,AB_pic_singleT2,2021.1.2,60.01500375091349,
AB,lag2,2,3,5,0.06000000005000003,0.02,0.3,main,,,,,0,84,84,84,,,,,,,dromedary.jpg,stool01.jpg,swordfish.jpg,airhockeytable.jpg,nose.jpg,beerbottle.jpg,pigeon.jpg,moon.jpg,waterfall.jpg,birdnest.jpg,paperairplane.jpg,snowboard.jpg,helicopter.jpg,microphone01.jpg,steeringwheel.jpg,harmonica.jpg,horse.jpg,,,,,1,0,7,,,,,.\resources\nose.jpg,,,1,,,,,,,,,1,,,,,,,,,None,735.0658065199999,None,735.0658065199999,None,,,,,,,729.9826583000001,732.732499,732.4658390000002,None,0.03946337558626846,732.9658517999999,None,732.9658517999999,None,733.4657844999999,None,733.4657844999999,None,left,1.139057800000046,733.4657844999999,None,734.6823520999999,None,right,0.36266909999994823,734.6823520999999,None,734.6823520999999,None,-4.564314817415541,151.22979930373356,,5,001,2021_Apr_08_1300,AB_pic_singleT2,2021.1.2,60.01500375091349,
AB,lag1,1,4,5,0.06000000005000003,0.02,0.3,main,,,,,0,85,85,85,,,,,,,saxophone.jpg,pokerchips.jpg,toad.jpg,athleticsock.jpg,leafblower01.jpg,turnstile.jpg,bowlingpin.jpg,wallclock.jpg,ironingboard01.jpg,arrow02.jpg,sandcastle.jpg,windshieldwiper02.jpg,drumset.jpg,popcorn.jpg,penguin.jpg,zipper.jpg,curtain.jpg,,,,,1,1,7,,,,,.\resources\leafblower01.jpg,,,1,,,,,,,,,1,,,,,,,,,None,740.2317845199999,None,740.2317845199999,None,,,,,,,735.0827605000002,737.8321813999999,737.565934,None,0.03934812587156904,738.0655073999999,None,738.0655073999999,None,738.5654756000001,None,738.5654756000001,None,left,0.9755872000000636,738.5654756000001,None,739.6154134000001,None,left,0.5895437999997739,739.6154134000001,None,739.6154134000001,None,-4.547587292771599,151.24382193923714,,5,001,2021_Apr_08_1300,AB_pic_singleT2,2021.1.2,60.01500375091349,
AB,lag5,5,4,9,0.06000000005000003,0.02,0.3,main,,,,,0,86,86,86,,,,,,,porcupine.jpg,guitarcase.jpg,tiger02.jpg,shower.jpg,seagull.jpg,locker.jpg,golfball.jpg,parkingmeter.jpg,boxingglove01.jpg,grizzly.jpg,bat.jpg,holdfast.jpg,zipper.jpg,jeep.jpg,chimney.jpg,motorcycle.jpg,pig.jpg,,,,,0,0,11,,,,,.\resources\boxingglove01.jpg,,,1,,,,,,,,,1,,,,,,,,,None,744.9815025199999,None,744.9815025199999,None,,,,,,,740.2486897000001,742.9989474000001,742.7322992000002,None,0.03923387797139544,743.2318686000001,None,743.2318686000001,None,743.9651609,None,743.9651609,None,right,0.6638278000000355,743.9651609,None,744.7151382,None,right,0.24979530000018713,744.7151382,None,744.7151382,None,-4.531012898565513,151.2580363048007,,5,001,2021_Apr_08_1300,AB_pic_singleT2,2021.1.2,60.01500375091349,
AB,lag7,7,4,11,0.06000000005000003,0.02,0.3,main,,,,,0,87,87,87,,,,,,,hand01b.jpg,moon.jpg,beaver.jpg,cruiseship.jpg,brownsugar.jpg,donut.jpg,daddylonglegs.jpg,locker.jpg,fireplace.jpg,kiwi03.jpg,pirateflag.jpg,lip.jpg,cloud.jpg,apron.jpg,lightswitch01.jpg,badmintonracket.jpg,jeans01.jpg,,,,,1,0,13,,,,,.\resources\pirateflag.jpg,,,1,,,,,,,,,1,,,,,,,,,None,750.6311799200001,None,750.6311799200001,None,,,,,,,744.9984382,747.7482845000002,747.4820187000003,None,0.03912061404632686,747.9816011,None,747.9816011,None,748.8315580999999,None,748.8315580999999,None,left,1.237349400000312,748.8315580999999,None,750.1648284999999,None,right,0.4242616999999882,750.1648284999999,None,750.1648284999999,None,-4.514588824839017,151.27243673334402,,5,001,2021_Apr_08_1300,AB_pic_singleT2,2021.1.2,60.01500375091349,
AB,lag4,4,3,7,0.06000000005000003,0.02,0.3,main,,,,,0,88,88,88,,,,,,,masquerademask01.jpg,noparkingsign.jpg,tire.jpg,cactus.jpg,surfboard.jpg,beaver.jpg,cannon.jpg,harmonica.jpg,saltshaker03a.jpg,anchor.jpg,greathornowl.jpg,banjo.jpg,kneepad01c.jpg,fingerprint.jpg,acorn.jpg,dandelion.jpg,coffeemaker.jpg,,,,,0,1,9,,,,,.\resources\cannon.jpg,,,0,,,,,,,,,1,,,,,,,,,None,755.8475417200001,None,755.8475417200001,None,,,,,,,750.6481375999999,753.3983702000003,753.1317035,None,0.039008317135531496,753.6312768,None,753.6312768,None,754.2479088000002,None,754.2479088000002,None,left,1.07711960000006,754.2479088000002,None,755.4145006000001,None,left,0.41438379999999597,755.4145006000001,None,755.4145006000001,None,-4.583815837455854,151.2829060364833,,5,001,2021_Apr_08_1300,AB_pic_singleT2,2021.1.2,60.01500375091349,
AB,lag6,6,4,10,0.06000000005000003,0.02,0.3,main,,,,,0,89,89,89,,,,,,,treadmill.jpg,seagull.jpg,butterfly.jpg,dreamcatcher.jpg,eyepatch.jpg,bluejay.jpg,ducttape.jpg,squid.jpg,hulahoop.jpg,giraffe.jpg,toad.jpg,kiwi03.jpg,crab01.jpg,bed.jpg,greatwhiteshark.jpg,discoball.jpg,athleticsock.jpg,,,,,0,0,12,,,,,.\resources\giraffe.jpg,,,1,,,,,,,,,1,,,,,,,,,None,760.6140123200001,None,760.6140123200001,None,,,,,,,755.8644623000002,758.6151016000001,758.3481701000003,None,0.03946321732566399,758.8476953000002,None,758.8476953000002,None,759.6476538,None,759.6476538,None,right,0.7012648999998419,759.6476538,None,760.4309509000002,None,right,0.16608550000000832,760.4309509000002,None,760.4309509000002,None,-4.56986160182053,151.29657005917386,,5,001,2021_Apr_08_1300,AB_pic_singleT2,2021.1.2,60.01500375091349,
AB,lag3,3,3,6,0.06000000005000003,0.02,0.3,main,,,,,0,90,90,90,,,,,,,dolphin01.jpg,statue.jpg,dreamcatcher.jpg,dormer.jpg,lightswitch01.jpg,boat.jpg,humanskeleton.jpg,honeybee.jpg,lollipop04.jpg,jeans01.jpg,totempole.jpg,peacock.jpg,tank.jpg,brownsugar.jpg,callbell.jpg,birdfeeder.jpg,floorlamp.jpg,,,,,0,1,8,,,,,.\resources\boat.jpg,,,0,,,,,,,,,1,,,,,,,,,None,768.0806751200001,None,768.0806751200001,None,,,,,,,760.6309322,763.3807777,763.1141254000001,None,0.0393674222793742,763.6307712,None,763.6307712,None,764.1807531000002,None,764.1807531000002,None,left,1.9841419999997925,764.1807531000002,None,766.2477249000001,None,left,1.7893834999999854,766.2477249000001,None,766.2477249000001,None,-4.635735604719385,151.3064890497957,,5,001,2021_Apr_08_1300,AB_pic_singleT2,2021.1.2,60.01500375091349,
AB,lag2,2,3,5,0.06000000005000003,0.02,0.3,main,,,,,0,91,91,91,,,,,,,dragonfly01.jpg,horseshoe.jpg,fireplace.jpg,discoball.jpg,jeans01.jpg,porcupine.jpg,rubikcube.jpg,bed.jpg,treadmill.jpg,scorpion.jpg,snowshoe.jpg,volleyball.jpg,fridge.jpg,seagull.jpg,boxingglove01.jpg,recyclingbin.jpg,guitarcase.jpg,,,,,1,0,7,,,,,.\resources\jeans01.jpg,,,0,,,,,,,,,0,,,,,,,,,None,773.3803928199999,None,773.3803928199999,None,,,,,,,768.0976465000001,770.8470275000002,770.5803656999999,None,0.039800209519483314,771.0970088000001,None,771.0970088000001,None,771.5803211,None,771.5803211,None,right,1.3847153000001526,771.5803211,None,773.0306747000002,None,left,0.3182409999999436,773.0306747000002,None,773.0306747000002,None,-4.700343362032432,151.31556492805348,,5,001,2021_Apr_08_1300,AB_pic_singleT2,2021.1.2,60.01500375091349,
AB,lag4,4,4,8,0.06000000005000003,0.02,0.3,main,,,,,0,92,92,92,,,,,,,scooter.jpg,bluecheese.jpg,chimney.jpg,shower.jpg,table01.jpg,mrpotatohead.jpg,fridge.jpg,hammerheadshark.jpg,boxingglove01.jpg,drumstick.jpg,cactus.jpg,hand01b.jpg,cymbal.jpg,horseshoe.jpg,banjo.jpg,pigeon.jpg,bumpercar.jpg,,,,,0,1,10,,,,,.\resources\hammerheadshark.jpg,,,1,,,,,,,,,1,,,,,,,,,None,778.9633004199999,None,778.9633004199999,None,,,,,,,773.3973131999999,776.1467209,775.8800874000001,None,0.04022479594909061,776.3800367000001,None,776.3800367000001,None,777.0633029000003,None,777.0633029000003,None,right,1.341798800000106,777.0633029000003,None,778.4798814000003,None,left,0.4609605000000556,778.4798814000003,None,778.4798814000003,None,-4.68722311071939,151.32769544036051,,5,001,2021_Apr_08_1300,AB_pic_singleT2,2021.1.2,60.01500375091349,
AB,lag7,7,4,11,0.06000000005000003,0.02,0.3,main,,,,,0,93,93,93,,,,,,,pirateflag.jpg,greywolf.jpg,porcupine.jpg,accordion01.jpg,polarbear.jpg,bathtub.jpg,tire.jpg,pokerchips.jpg,mouse.jpg,swordfish.jpg,zipper.jpg,toolbox02.jpg,dolphin01.jpg,icecube02.jpg,tent.jpg,tennisracket.jpg,redfox.jpg,,,,,0,0,13,,,,,.\resources\zipper.jpg,,,1,,,,,,,,,1,,,,,,,,,None,783.6459539199999,None,783.6459539199999,None,,,,,,,778.9798541000002,781.7297172000001,781.4634235000001,None,0.04013487058112838,781.963004,None,781.963004,None,782.8296234000002,None,782.8296234000002,None,right,0.431302300000425,782.8296234000002,None,783.3462540000003,None,right,0.2667460000002393,783.3462540000003,None,783.3462540000003,None,-4.673031202559876,151.34006580402928,,5,001,2021_Apr_08_1300,AB_pic_singleT2,2021.1.2,60.01500375091349,
AB,lag1,1,5,6,0.06000000005000003,0.02,0.3,main,,,,,0,94,94,94,,,,,,,electrictoothbrush01c.jpg,jellybean.jpg,lily.jpg,cupcake.jpg,skunk.jpg,triangle.jpg,anchor.jpg,parachute.jpg,greywolf.jpg,snowman.jpg,ostrich.jpg,chefshat.jpg,christmaslights.jpg,brownsugar.jpg,bullet.jpg,chainsaw.jpg,acorn.jpg,,,,,0,1,8,,,,,.\resources\triangle.jpg,,,1,,,,,,,,,1,,,,,,,,,None,788.6123516199999,None,788.6123516199999,None,,,,,,,783.6629046999999,786.4131413000002,786.1464934000003,None,0.040037815045792347,786.6460708000002,None,786.6460708000002,None,787.2127047000001,None,787.2127047000001,None,right,0.8323292999998557,787.2127047000001,None,788.1293401999999,None,left,0.45969289999993634,788.1293401999999,None,788.1293401999999,None,-4.658932529901062,151.35262677038338,,5,001,2021_Apr_08_1300,AB_pic_singleT2,2021.1.2,60.01500375091349,
AB,lag5,5,4,9,0.06000000005000003,0.02,0.3,main,,,,,0,95,95,95,,,,,,,tiger02.jpg,tie02.jpg,leafrake.jpg,microphone01.jpg,soccerball.jpg,foot.jpg,curtain.jpg,ladder.jpg,duck01.jpg,totempole.jpg,boxingglove01.jpg,englishcucumber.jpg,giraffe.jpg,witchhat.jpg,banjo.jpg,spiderweb.jpg,panda.jpg,,,,,0,0,11,,,,,.\resources\duck01.jpg,,,1,,,,,,,,,1,,,,,,,,,None,793.8124588200002,None,793.8124588200002,None,,,,,,,788.6292991000003,791.3791678,791.1125159000001,None,0.039941341092098445,791.612453,None,791.612453,None,792.3628102,None,792.3628102,None,right,1.0420838999998523,792.3628102,None,793.4956823999999,None,right,0.2932104999999865,793.4956823999999,None,793.4956823999999,None,-4.644942786602347,151.36537158317182,,5,001,2021_Apr_08_1300,AB_pic_singleT2,2021.1.2,60.01500375091349,
AB,lag2,2,5,7,0.06000000005000003,0.02,0.3,main,,,,,0,96,96,96,,,,,,,birthdaycandle.jpg,calendar.jpg,toilet.jpg,arrow02.jpg,fireplace.jpg,beerbottle.jpg,nose.jpg,tulip02.jpg,crown.jpg,cross01.jpg,alligator.jpg,hockeypuck.jpg,hammerheadshark.jpg,crab01.jpg,tricycle.jpg,holdfast.jpg,tent.jpg,,,,,0,0,9,,,,,.\resources\nose.jpg,,,0,,,,,,,,,1,,,,,,,,,None,799.4950319200001,None,799.4950319200001,None,,,,,,,793.8294081000001,796.5792325,796.3125944999999,None,0.03984555440018994,796.8121646000002,None,796.8121646000002,None,797.4454735000002,None,797.4454735000002,None,left,1.5914746999997078,797.4454735000002,None,799.1286682000002,None,right,0.34030040000016015,799.1286682000002,None,799.1286682000002,None,-4.704189960716168,151.37461777811285,,5,001,2021_Apr_08_1300,AB_pic_singleT2,2021.1.2,60.01500375091349,
AB,lag6,6,3,9,0.06000000005000003,0.02,0.3,main,,,,,0,97,97,97,,,,,,,greathornowl.jpg,car.jpg,lily.jpg,rooster.jpg,foot.jpg,drumstick.jpg,uprightpiano01.jpg,crown.jpg,seagull.jpg,slug.jpg,bumpercar.jpg,tiger02.jpg,airhockeytable.jpg,church.jpg,flag.jpg,mummy.jpg,ladybug03.jpg,,,,,0,0,11,,,,,.\resources\seagull.jpg,,,0,,,,,,,,,1,,,,,,,,,None,805.14473842,None,805.14473842,None,,,,,,,799.5119790000001,802.2621987,801.9955779,None,0.040234514948626204,802.4951456000001,None,802.4951456000001,None,803.2451088,None,803.2451088,None,left,1.4879473000000871,803.2451088,None,804.8283481000001,None,right,0.29657769999994343,804.8283481000001,None,804.8283481000001,None,-4.7623498450063,151.3830545643089,,5,001,2021_Apr_08_1300,AB_pic_singleT2,2021.1.2,60.01500375091349,
AB,lag3,3,3,6,0.06000000005000003,0.02,0.3,main,,,,,0,98,98,98,,,,,,,dalmatian.jpg,ladder.jpg,ostrich.jpg,christmastree.jpg,badmintonracket.jpg,musicsheet.jpg,bumpercar.jpg,horse.jpg,candycane01a.jpg,eye.jpg,cocktailshrimp02.jpg,corn02.jpg,chefshat.jpg,moon.jpg,soccerball.jpg,handcuffs.jpg,dolphin01.jpg,,,,,0,0,8,,,,,.\resources\musicsheet.jpg,,,1,,,,,,,,,1,,,,,,,,,None,810.2777955200003,None,810.2777955200003,None,,,,,,,805.1616641000003,807.9120258999999,807.6449503000001,None,0.040616462812316886,808.1620166,None,808.1620166,None,808.7119255999999,None,808.7119255999999,None,right,1.0851475999998001,808.7119255999999,None,809.8947482000001,None,right,0.358252800000173,809.8947482000001,None,809.8947482000001,None,-4.7503015204329815,151.39428909385165,,5,001,2021_Apr_08_1300,AB_pic_singleT2,2021.1.2,60.01500375091349,
AB,lag1,1,3,4,0.06000000005000003,0.02,0.3,main,,,,,0,99,99,99,,,,,,,fishskeleton.jpg,microphone01.jpg,panda.jpg,floorlamp.jpg,firehydrant.jpg,lightswitch01.jpg,hockeypuck.jpg,parkingmeter.jpg,tortoise01.jpg,boat.jpg,rose.jpg,horse.jpg,porcupine.jpg,kite.jpg,kangaroo.jpg,humanskeleton.jpg,spiderweb.jpg,,,,,0,1,6,,,,,.\resources\floorlamp.jpg,,,1,,,,,,,,,1,,,,,,,,,None,815.1941913200002,None,815.1941913200002,None,,,,,,,810.2947282000002,813.04458,812.7779175000003,None,0.04053386635838491,813.2779244999999,None,813.2779244999999,None,813.7278658000002,None,813.7278658000002,None,right,1.0131336999997984,813.7278658000002,None,814.8111363,None,left,0.3539683999997578,814.8111363,None,814.8111363,None,-4.737442506807404,151.40574960650108,,5,001,2021_Apr_08_1300,AB_pic_singleT2,2021.1.2,60.01500375091349,
AB,lag2,2,4,6,0.06000000005000003,0.02,0.3,main,,,,,0,100,100,100,,,,,,,redfox.jpg,scooter.jpg,moose.jpg,chimney.jpg,pig.jpg,nunchuk.jpg,lip.jpg,grizzly.jpg,hammerheadshark.jpg,eye.jpg,firehydrant.jpg,treadmill.jpg,rooster.jpg,bluejay.jpg,acousticguitar02.jpg,ladybug03.jpg,bluecheese.jpg,,,,,0,0,8,,,,,.\resources\nunchuk.jpg,,,1,,,,,,,,,1,,,,,,,,,None,819.92724012,None,819.92724012,None,,,,,,,815.2111150000003,817.9609569000002,817.6943059000002,None,0.0404458673718977,818.1942793999999,None,818.1942793999999,None,818.7609149000002,None,818.7609149000002,None,right,0.612153600000056,818.7609149000002,None,819.4608730000002,None,right,0.4401936000003843,819.4608730000002,None,819.4608730000002,None,-4.724663968971496,151.4173968381955,,5,001,2021_Apr_08_1300,AB_pic_singleT2,2021.1.2,60.01500375091349,
AB,lag3,3,5,8,0.06000000005000003,0.02,0.3,main,,,,,0,101,101,101,,,,,,,frenchfries.jpg,squid.jpg,seal.jpg,discoball.jpg,treadmill.jpg,cross01.jpg,accordion01.jpg,drumstick.jpg,bacon.jpg,rollerblade.jpg,badmintonracket.jpg,donut.jpg,foot.jpg,parachute.jpg,dartboard.jpg,duck01.jpg,floorlamp.jpg,,,,,0,0,10,,,,,.\resources\drumstick.jpg,,,1,,,,,,,,,1,,,,,,,,,None,824.5603004200001,None,824.5603004200001,None,,,,,,,819.9441840000002,822.6944778,822.4277841,None,0.04035836342254353,822.9273430000001,None,822.9273430000001,None,823.6106415000002,None,823.6106415000002,None,right,0.4822673000003306,823.6106415000002,None,824.1772699,None,right,0.33987519999982396,824.1772699,None,824.1772699,None,-4.711975743185425,151.4292244352875,,5,001,2021_Apr_08_1300,AB_pic_singleT2,2021.1.2,60.01500375091349,
AB,lag5,5,3,8,0.06000000005000003,0.02,0.3,main,,,,,0,102,102,102,,,,,,,volleyball.jpg,jeep.jpg,frenchfries.jpg,ladder.jpg,squid.jpg,handcuffs.jpg,sink.jpg,cobra.jpg,nose.jpg,brownsugar.jpg,greathornowl.jpg,well.jpg,barrel01.jpg,duck01.jpg,tree.jpg,sheep.jpg,boat.jpg,,,,,1,0,10,,,,,.\resources\cobra.jpg,,,1,,,,,,,,,1,,,,,,,,,None,829.8433204199999,None,829.8433204199999,None,,,,,,,824.5772487000002,827.3274847999999,827.0608355000002,None,0.04027142136563858,827.5774925000003,None,827.5774925000003,None,828.2437093000001,None,828.2437093000001,None,left,1.129194600000119,828.2437093000001,None,829.4602772999999,None,right,0.35267360000034387,829.4602772999999,None,829.4602772999999,None,-4.699376371054374,151.44122674721535,,5,001,2021_Apr_08_1300,AB_pic_singleT2,2021.1.2,60.01500375091349,
AB,lag6,6,5,11,0.06000000005000003,0.02,0.3,main,,,,,0,103,103,103,,,,,,,chair.jpg,duck01.jpg,doghouse.jpg,tricycle.jpg,trophy01.jpg,motorcycle.jpg,foosballtable.jpg,crown.jpg,worldmap.jpg,sword01.jpg,cymbal.jpg,chainsaw.jpg,recyclingbin.jpg,pig.jpg,hotdogweiner.jpg,bumpercar.jpg,callbell.jpg,,,,,0,0,13,,,,,.\resources\cymbal.jpg,,,1,,,,,,,,,1,,,,,,,,,None,834.52640052,None,834.52640052,None,,,,,,,829.8602594000001,832.6105131000002,832.3438210000002,None,0.04018503324944946,832.8434233999999,None,832.8434233999999,None,833.7104281,None,833.7104281,None,right,0.3905451999999059,833.7104281,None,834.1933446999999,None,right,0.291724300000169,834.1933446999999,None,834.1933446999999,None,-4.686864310918514,151.45339839863732,,5,001,2021_Apr_08_1300,AB_pic_singleT2,2021.1.2,60.01500375091349,
AB,lag7,7,3,10,0.06000000005000003,0.02,0.3,main,,,,,0,104,104,104,,,,,,,arrow02.jpg,porcupine.jpg,lion.jpg,tricycle.jpg,englishcucumber.jpg,panda.jpg,skunk.jpg,kneepad01c.jpg,stubbywrench01a.jpg,tennisracket.jpg,cat.jpg,triangle.jpg,floorlamp.jpg,dolphin01.jpg,hulahoop.jpg,turnstile.jpg,boat.jpg,,,,,1,0,12,,,,,.\resources\tennisracket.jpg,,,1,,,,,,,,,1,,,,,,,,,None,840.7093497200002,None,840.7093497200002,None,,,,,,,834.5433453000003,837.2935636,837.0268886000001,None,0.040099190485335764,837.5264884000001,None,837.5264884000001,None,838.3431069999999,None,838.3431069999999,None,left,1.8698918999998568,838.3431069999999,None,840.2929965000001,None,right,0.3999351000002207,840.2929965000001,None,840.2929965000001,None,-4.674438081831441,151.46573427147248,,5,001,2021_Apr_08_1300,AB_pic_singleT2,2021.1.2,60.01500375091349,
