trialType,cndTyp,lag,T1_loc,T2_loc,stimLen,isi,skipProb,phase,trials.thisRepN,trials.thisTrialN,trials.thisN,trials.thisIndex,trials2.thisRepN,trials2.thisTrialN,trials2.thisN,trials2.thisIndex,key_resp_4.keys,key_resp_4.rt,key_resp_4.started,key_resp_4.stopped,textbox.started,textbox.stopped,img0,img1,img2,img3,img4,img5,img6,img7,img8,img9,img10,img11,img12,img13,img14,img15,img16,option1.started,option1.stopped,text_2.started,text_2.stopped,skip1,skip2,lastPresent,displayPicture.started,displayPicture.stopped,polygon_2.started,polygon_2.stopped,opt1_t1,polygon_4.started,polygon_4.stopped,cor1,option1_t1.started,option1_t1.stopped,key_resp.keys,key_resp.rt,key_resp.started,key_resp.stopped,polygon_5.started,polygon_5.stopped,cor2,key_resp_2.keys,key_resp_2.rt,key_resp_2.started,key_resp_2.stopped,textbox_2.started,textbox_2.stopped,textbox_3.started,textbox_3.stopped,key_resp_3.keys,key_resp_3.started,key_resp_3.stopped,textbox_6.started,textbox_6.stopped,key_resp_7.keys,key_resp_7.rt,key_resp_7.started,key_resp_7.stopped,textbox_4.started,textbox_4.stopped,option1_3.started,option1_3.stopped,text_7.started,text_7.stopped,curStimTim,displayPicture_4.started,displayPicture_4.stopped,polygon_16.started,polygon_16.stopped,polygon_7.started,polygon_7.stopped,option1_t1_2.started,option1_t1_2.stopped,key_resp_6.keys,key_resp_6.rt,key_resp_6.started,key_resp_6.stopped,polygon_17.started,polygon_17.stopped,key_resp_8.keys,key_resp_8.rt,key_resp_8.started,key_resp_8.stopped,textbox_5.started,textbox_5.stopped,B0,B1,key_resp_3.rt,participant,session,date,expName,psychopyVersion,frameRate,
,,,,,,,,,,,,,,,,,space,30.371439699999883,41.67610909999985,None,,,,,,,,,,,,,,,,,,,,,,,,,,,,,,,,,,,,,,,,,,,,,,,,,,,,,,,,,,,,,,,,,,,,,,,,,,,,,,,,,,,,,,,,,,,6,001,2021_Apr_08_1326,AB_pic_singleT2,2021.1.2,60.00582056465512,
AB,lag7,7,5,12,0.2,0.05,0.5,,0,0,0,7,,,,,,,,,41.67610909999985,None,icecube02.jpg,waterfall.jpg,bathtub.jpg,squid.jpg,windmill.jpg,toolbox02.jpg,witchhat.jpg,football.jpg,daddylonglegs.jpg,badmintonracket.jpg,jackrabbit.jpg,fortunecookie.jpg,pokerchips.jpg,nose.jpg,rooster.jpg,tricycle.jpg,rose.jpg,72.11275250000017,74.86211809999986,74.59546420000015,None,0,0,14,75.11210089999986,None,75.11210089999986,None,.\resources\fortunecookie.jpg,78.86185980000027,None,1,78.86185980000027,None,right,1.4577109000001656,78.86185980000027,None,80.36174660000006,None,1,right,2.861768799999936,80.36174660000006,None,80.36174660000006,None,83.26199810000026,None,None,84.26120587999999,None,84.26120587999999,None,,,,,,,,,,,,,,,,,,,,,,,,,,,,,,,,,,,6,001,2021_Apr_08_1326,AB_pic_singleT2,2021.1.2,60.00582056465512,
AB,lag2,2,5,7,0.2,0.05,0.5,,0,1,1,9,,,,,,,,,,,mrpotatohead.jpg,shower.jpg,witchhat.jpg,urinal.jpg,punchingbag.jpg,acorn.jpg,hockeystick.jpg,fingerprint.jpg,musicsheet.jpg,chefshat.jpg,dromedary.jpg,badmintonracket.jpg,wheelchair.jpg,toyanimal05.jpg,africanelephant.jpg,kiwi03.jpg,marble.jpg,84.27859820000003,87.02842640000017,86.74473799999987,None,1,1,9,87.26176620000024,None,87.26176620000024,None,.\resources\hockeystick.jpg,89.76121509999984,None,1,89.76121509999984,None,left,2.5262674999999035,89.76121509999984,None,92.32770479999999,None,1,left,0.9999262000001181,92.32770479999999,None,92.32770479999999,None,93.34431970000014,None,None,94.34395958,None,94.34395958,None,,,,,,,,,,,,,,,,,,,,,,,,,,,,,,,,,,,6,001,2021_Apr_08_1326,AB_pic_singleT2,2021.1.2,60.00582056465512,
AB,lag1,1,4,5,0.2,0.05,0.5,,0,2,2,12,,,,,,,,,,,lily.jpg,alligator.jpg,parkingmeter.jpg,slug.jpg,drumstick.jpg,ducttape.jpg,uprightpiano01.jpg,seal.jpg,kiwi03.jpg,golfball.jpg,bat.jpg,discoball.jpg,tiger02.jpg,beerbottle.jpg,shower.jpg,mailbox02.jpg,bed.jpg,94.36092749999989,97.11120119999987,96.84454189999997,None,1,1,7,97.34409520000008,None,97.34409520000008,None,.\resources\drumstick.jpg,99.36070470000004,None,1,99.36070470000004,None,left,2.1268889999996645,99.36070470000004,None,101.52718319999985,None,1,left,0.6003138999999464,101.52718319999985,None,101.52718319999985,None,102.1438293000001,None,None,103.14341727999995,None,103.14341727999995,None,,,,,,,,,,,,,,,,,,,,,,,,,,,,,,,,,,,6,001,2021_Apr_08_1326,AB_pic_singleT2,2021.1.2,60.00582056465512,
AB,lag6,6,5,11,0.2,0.05,0.5,,0,3,3,0,,,,,,,,,,,tie02.jpg,bacon.jpg,penguin.jpg,mattress.jpg,fortunecookie.jpg,swordfish.jpg,pumpkin.jpg,sausage.jpg,sheep.jpg,tulip02.jpg,whiteout.jpg,wheelchair.jpg,zipper.jpg,hockeystick.jpg,saltshaker03a.jpg,dartboard.jpg,accordion01.jpg,103.16042629999993,105.9103442999999,105.64372709999998,None,1,0,13,106.14366860000018,None,106.14366860000018,None,.\resources\whiteout.jpg,109.66010529999994,None,1,109.66010529999994,None,left,1.6515207000002192,109.66010529999994,None,111.36044540000012,None,1,right,0.7353318999998919,111.36044540000012,None,111.36044540000012,None,112.12721330000022,None,None,113.12626047999989,None,113.12626047999989,None,,,,,,,,,,,,,,,,,,,,,,,,,,,,,,,,,,,6,001,2021_Apr_08_1326,AB_pic_singleT2,2021.1.2,60.00582056465512,
AB,lag6,6,5,11,0.2,0.05,0.5,,0,4,4,8,,,,,,,,,,,honeybee.jpg,hockeypuck.jpg,birthdaycandle.jpg,fridge.jpg,rose.jpg,sandcastle.jpg,arrow02.jpg,flamingo.jpg,drumstick.jpg,greathornowl.jpg,whiteout.jpg,cigar.jpg,snowboard.jpg,helicopter.jpg,wheelbarrow01.jpg,butterfly.jpg,sink.jpg,113.14367200000015,115.89307099999996,115.60979380000026,None,1,0,13,116.1264028999999,None,116.1264028999999,None,.\resources\whiteout.jpg,119.62620800000013,None,1,119.62620800000013,None,left,1.3493858000001637,119.62620800000013,None,121.00994219999984,None,1,right,0.5095909000001484,121.00994219999984,None,121.00994219999984,None,121.55986429999984,None,None,122.55945238,None,122.55945238,None,,,,,,,,,,,,,,,,,,,,,,,,,,,,,,,,,,,6,001,2021_Apr_08_1326,AB_pic_singleT2,2021.1.2,60.00582056465512,
AB,lag1,1,3,4,0.2,0.05,0.5,,0,5,5,3,,,,,,,,,,,vulture.jpg,magneticcompass.jpg,panda.jpg,mrpotatohead.jpg,knee.jpg,swing.jpg,apron.jpg,toilet.jpg,englishcucumber.jpg,jeep.jpg,beerbottle.jpg,seal.jpg,fortunecookie.jpg,airhockeytable.jpg,cashregister01.jpg,bullet.jpg,callbell.jpg,122.57647810000026,125.32587710000007,125.0592630000001,None,1,0,6,125.57586720000018,None,125.57586720000018,None,.\resources\mrpotatohead.jpg,127.32577410000022,None,1,127.32577410000022,None,left,1.6818014000000403,127.32577410000022,None,129.04231370000025,None,1,right,0.4853613000000223,129.04231370000025,None,129.04231370000025,None,129.57561579999992,None,None,130.57525058000004,None,130.57525058000004,None,,,,,,,,,,,,,,,,,,,,,,,,,,,,,,,,,,,6,001,2021_Apr_08_1326,AB_pic_singleT2,2021.1.2,60.00582056465512,
AB,lag5,5,4,9,0.2,0.05,0.5,,0,6,6,6,,,,,,,,,,,doghouse.jpg,harmonica.jpg,tennisracket.jpg,rose.jpg,microwave.jpg,drumset.jpg,foot.jpg,sink.jpg,stubbywrench01a.jpg,tent.jpg,moose.jpg,locker.jpg,chair.jpg,dromedary.jpg,popcorn.jpg,sandcastle.jpg,toolbox02.jpg,130.59223090000023,133.34247540000024,133.05918930000007,None,0,1,11,133.55872039999986,None,133.55872039999986,None,.\resources\stubbywrench01a.jpg,136.57521700000007,None,1,136.57521700000007,None,right,1.6644711000003554,136.57521700000007,None,138.25842300000022,None,1,left,0.5651888000002145,138.25842300000022,None,138.25842300000022,None,138.8417285999999,None,None,139.8413514799999,None,139.8413514799999,None,,,,,,,,,,,,,,,,,,,,,,,,,,,,,,,,,,,6,001,2021_Apr_08_1326,AB_pic_singleT2,2021.1.2,60.00582056465512,
AB,lag4,4,4,8,0.2,0.05,0.5,,0,7,7,13,,,,,,,,,,,bowlingpin.jpg,nose.jpg,beaver.jpg,bed.jpg,penguin.jpg,badmintonracket.jpg,cheetah.jpg,lily.jpg,funnel.jpg,marble.jpg,bridge.jpg,fortunecookie.jpg,parachute.jpg,bat.jpg,bacon.jpg,pigeon.jpg,hotdogweiner.jpg,139.85834870000008,142.60855960000026,142.3252351000001,None,1,1,10,142.8418873999999,None,142.8418873999999,None,.\resources\lily.jpg,145.5913455,None,1,145.5913455,None,left,2.3122996000001876,145.5913455,None,147.94121070000028,None,1,left,0.290346899999804,147.94121070000028,None,147.94121070000028,None,148.27452730000005,None,None,149.27412648000012,None,149.27412648000012,None,,,,,,,,,,,,,,,,,,,,,,,,,,,,,,,,,,,6,001,2021_Apr_08_1326,AB_pic_singleT2,2021.1.2,60.00582056465512,
AB,lag3,3,3,6,0.2,0.05,0.5,,0,8,8,5,,,,,,,,,,,chainsaw.jpg,popcorn.jpg,mrpotatohead.jpg,paperairplane.jpg,electrictoothbrush01c.jpg,swordfish.jpg,bull.jpg,pigeon.jpg,jeans01.jpg,harmonica.jpg,daddylonglegs.jpg,knee.jpg,toucan.jpg,jellyfish.jpg,dandelion.jpg,cobra.jpg,pingpongtable.jpg,149.29113830000006,152.0410627000001,151.77444430000014,None,1,0,8,152.2743842,None,152.2743842,None,.\resources\swordfish.jpg,154.54091789999984,None,1,154.54091789999984,None,left,1.1386377999997421,154.54091789999984,None,155.72418349999998,None,1,right,0.33147039999994377,155.72418349999998,None,155.72418349999998,None,156.09128180000016,None,None,157.0904388799999,None,157.0904388799999,None,,,,,,,,,,,,,,,,,,,,,,,,,,,,,,,,,,,6,001,2021_Apr_08_1326,AB_pic_singleT2,2021.1.2,60.00582056465512,
AB,lag7,7,4,11,0.2,0.05,0.5,,0,9,9,2,,,,,,,,,,,musicsheet.jpg,skateboard.jpg,seagull.jpg,calendar.jpg,bowlingball.jpg,airhockeytable.jpg,cow.jpg,urinal.jpg,kneepad01c.jpg,fishskeleton.jpg,fingerprint.jpg,windmill.jpg,golfball.jpg,africanelephant.jpg,triangle.jpg,electricguitar01.jpg,well.jpg,157.10789139999997,159.85728100000006,159.57399399999986,None,1,1,13,160.07395429999997,None,160.07395429999997,None,.\resources\fingerprint.jpg,163.59037630000012,None,0,163.59037630000012,None,right,1.3532159999999749,163.59037630000012,None,165.00738899999988,None,1,left,0.3762648000001718,165.00738899999988,None,165.00738899999988,None,165.42404480000005,None,None,166.42365158000024,None,166.42365158000024,None,,,,,,,,,,,,,,,,,,,,,,,,,,,,,,,,,,,6,001,2021_Apr_08_1326,AB_pic_singleT2,2021.1.2,60.00582056465512,
AB,lag4,4,3,7,0.2,0.05,0.5,,0,10,10,1,,,,,,,,,,,dragonfly01.jpg,chair.jpg,acorn.jpg,rubikcube.jpg,birdnest.jpg,tarantula.jpg,horseshoe.jpg,icecube02.jpg,drumstick.jpg,elbow.jpg,smokingpipe.jpg,crosscountryski.jpg,bow.jpg,christmastree.jpg,windshieldwiper02.jpg,basketball01.jpg,steeringwheel.jpg,166.44068920000018,169.19007680000004,168.9067696000002,None,1,1,9,169.4067199000001,None,169.4067199000001,None,.\resources\horseshoe.jpg,171.92323729999998,None,1,171.92323729999998,None,left,1.3084602999997514,171.92323729999998,None,173.27315910000016,None,1,left,0.2865412000001015,173.27315910000016,None,173.27315910000016,None,173.5898062000001,None,None,174.5898715800003,None,174.5898715800003,None,,,,,,,,,,,,,,,,,,,,,,,,,,,,,,,,,,,6,001,2021_Apr_08_1326,AB_pic_singleT2,2021.1.2,60.00582056465512,
AB,lag2,2,3,5,0.2,0.05,0.5,,0,11,11,4,,,,,,,,,,,kite.jpg,daddylonglegs.jpg,makiroll.jpg,marble.jpg,firehydrant.jpg,nunchuk.jpg,greywolf.jpg,banjo.jpg,wheelbarrow01.jpg,waterfall.jpg,crosscountryski.jpg,stubbywrench01a.jpg,vacuumcleaner01.jpg,fingerprint.jpg,foot.jpg,popcorn.jpg,flamingo.jpg,174.6068518000002,177.3562649999999,177.08962699999984,None,1,1,7,177.60625549999986,None,177.60625549999986,None,.\resources\firehydrant.jpg,179.6061337000001,None,1,179.6061337000001,None,left,1.249439600000187,179.6061337000001,None,180.8898766000002,None,1,left,0.24566860000004453,180.8898766000002,None,180.8898766000002,None,181.1731463000001,None,None,182.17231908000025,None,182.17231908000025,None,,,,,,,,,,,,,,,,,,,,,,,,,,,,,,,,,,,6,001,2021_Apr_08_1326,AB_pic_singleT2,2021.1.2,60.00582056465512,
AB,lag5,5,4,9,0.2,0.05,0.5,,0,12,12,11,,,,,,,,,,,jeep.jpg,electricguitar01.jpg,bridge.jpg,christmastree.jpg,snowboard.jpg,ear.jpg,smokingpipe.jpg,cruiseship.jpg,dormer.jpg,church.jpg,golfball.jpg,parrot01.jpg,lip.jpg,polarbear.jpg,swordfish.jpg,dolphin01.jpg,microwave.jpg,182.190063,184.95584880000024,184.6558528999999,None,1,1,11,185.17248740000014,None,185.17248740000014,None,.\resources\dormer.jpg,188.17231260000017,None,1,188.17231260000017,None,left,0.9152532000002793,188.17231260000017,None,189.13892299999998,None,1,left,0.22086110000009285,189.13892299999998,None,189.13892299999998,None,189.42224020000003,None,None,190.4222790799999,None,190.4222790799999,None,,,,,,,,,,,,,,,,,,,,,,,,,,,,,,,,,,,6,001,2021_Apr_08_1326,AB_pic_singleT2,2021.1.2,60.00582056465512,
AB,lag3,3,5,8,0.2,0.05,0.5,,0,13,13,10,,,,,,,,,,,crown.jpg,spicerack.jpg,witchhat.jpg,birdfeeder.jpg,christmaslights.jpg,popcorn.jpg,dromedary.jpg,greywolf.jpg,vacuumcleaner01.jpg,zebra.jpg,fishingrod.jpg,humanskeleton.jpg,cigar.jpg,lion.jpg,tortoise01.jpg,toyanimal05.jpg,drumstick.jpg,190.43928749999986,193.1886998,192.90537780000022,None,0,1,10,193.42201440000008,None,193.42201440000008,None,.\resources\greywolf.jpg,196.17186010000023,None,0,196.17186010000023,None,left,1.5877121999997144,196.17186010000023,None,197.80509819999997,None,1,left,0.29844909999974334,197.80509819999997,None,197.80509819999997,None,198.13885449999998,None,None,199.1380249799999,None,199.1380249799999,None,,,,,,,,,,,,,,,,,,,,,,,,,,,,,,,,,,,6,001,2021_Apr_08_1326,AB_pic_singleT2,2021.1.2,60.00582056465512,
,,,,,,,,,,,,,,,,,,,,,,,,,,,,,,,,,,,,,,,,,,,,,,,,,,,,,,,,,,,,,,,,,,,,,,,,,,,,,space,34.90780749999976,199.13835879999988,None,,,,,,,,,,,,,,,,,,,,,,,,,,,,,,,6,001,2021_Apr_08_1326,AB_pic_singleT2,2021.1.2,60.00582056465512,
AB,lag6,6,5,11,0.2,0.05,0.5,ramp,,,,,0,0,0,0,,,,,,,foldingchair.jpg,swordfish.jpg,acorn.jpg,acousticguitar02.jpg,toilet.jpg,saxophone.jpg,crosscountryski.jpg,kneepad01c.jpg,brownsugar.jpg,eiffeltower.jpg,snowshovel.jpg,ceilingfan01.jpg,surfboard.jpg,anchor.jpg,christmastree.jpg,dormer.jpg,wheelchair.jpg,,,,,1,0,13,,,,,.\resources\snowshovel.jpg,,,1,,,,,,,,,1,,,,,,,,,None,242.13602097999996,None,242.13602097999996,None,,,,,199.13835879999988,None,234.20347010000023,236.95288040000014,236.6862245000002,None,0.2,237.1195333999999,None,237.1195333999999,None,240.63600619999988,None,240.63600619999988,None,left,1.0997030000003178,240.63600619999988,None,241.76927410000008,None,right,0.35035500000003594,241.76927410000008,None,241.76927410000008,None,,,,6,001,2021_Apr_08_1326,AB_pic_singleT2,2021.1.2,60.00582056465512,
AB,lag4,4,4,8,0.19066666667,0.048,0.48,ramp,,,,,0,1,1,1,,,,,,,ladder.jpg,foosballtable.jpg,triangle.jpg,cow.jpg,humanskeleton.jpg,toucan.jpg,key07.jpg,chainsaw.jpg,anchor.jpg,foldingchair.jpg,ironingboard01.jpg,panda.jpg,eyepatch.jpg,tulip02.jpg,butterfly.jpg,spiderweb.jpg,englishcucumber.jpg,,,,,1,0,10,,,,,.\resources\chainsaw.jpg,,,1,,,,,,,,,1,,,,,,,,,None,249.06893638000014,None,249.06893638000014,None,,,,,,,242.15301360000012,244.90242829999988,244.63577429999987,None,0.19066666667,245.13576650000005,None,245.13576650000005,None,247.78562760000023,None,247.78562760000023,None,left,0.8939580999999635,247.78562760000023,None,248.75217759999987,None,right,0.295498100000259,248.75217759999987,None,248.75217759999987,None,-10.001360791690049,150.0000000424746,,6,001,2021_Apr_08_1326,AB_pic_singleT2,2021.1.2,60.00582056465512,
AB,lag7,7,4,11,0.18133333334,0.046,0.45999999999999996,ramp,,,,,0,2,2,2,,,,,,,volleyball.jpg,humanskeleton.jpg,bed.jpg,squirrel.jpg,greywolf.jpg,exitsign.jpg,cross01.jpg,noparkingsign.jpg,boxingglove01.jpg,cannon.jpg,microwave.jpg,statue.jpg,foot.jpg,hulahoop.jpg,locker.jpg,cow.jpg,waterfountain02.jpg,,,,,1,0,13,,,,,.\resources\microwave.jpg,,,1,,,,,,,,,1,,,,,,,,,None,257.10183488000024,None,257.10183488000024,None,,,,,,,249.08590649999996,251.8353919000001,251.56873440000027,None,0.18133333334,252.06870329999992,None,252.06870329999992,None,255.2851667,None,255.2851667,None,left,1.4026551000001746,255.2851667,None,256.7684184,None,right,0.295302300000003,256.7684184,None,256.7684184,None,-10.002719446389834,150.00000013655824,,6,001,2021_Apr_08_1326,AB_pic_singleT2,2021.1.2,60.00582056465512,
AB,lag5,5,5,10,0.17200000001000001,0.044,0.43999999999999995,ramp,,,,,0,3,3,3,,,,,,,kiwi03.jpg,electricguitar01.jpg,hockeystick.jpg,greywolf.jpg,nosmokingsign.jpg,tent.jpg,anchor.jpg,ceilingfan01.jpg,showerhead01.jpg,englishcucumber.jpg,seal.jpg,tulip02.jpg,beaver.jpg,ipad02.jpg,frenchfries.jpg,parrot01.jpg,swing.jpg,,,,,0,0,12,,,,,.\resources\englishcucumber.jpg,,,1,,,,,,,,,1,,,,,,,,,None,263.95102837999997,None,263.95102837999997,None,,,,,,,257.11882749999995,259.8682388000002,259.60158779999983,None,0.17200000001000001,260.10156240000015,None,260.10156240000015,None,262.9347348000001,None,262.9347348000001,None,right,0.6329225999998016,262.9347348000001,None,263.63466930000004,None,right,0.28495299999985946,263.63466930000004,None,263.63466930000004,None,-10.004075333761547,150.00000038823157,,6,001,2021_Apr_08_1326,AB_pic_singleT2,2021.1.2,60.00582056465512,
AB,lag2,2,3,5,0.16266666668000002,0.041999999999999996,0.41999999999999993,ramp,,,,,0,4,4,4,,,,,,,moon.jpg,fridge.jpg,saxophone.jpg,birthdaycandle.jpg,recyclingbin.jpg,wallclock.jpg,firehydrant.jpg,treadmill.jpg,cow.jpg,trumpet.jpg,fishskeleton.jpg,guitarcase.jpg,eyepatch.jpg,granolabar01.jpg,frisbee.jpg,bull.jpg,dragonfly01.jpg,,,,,1,1,7,,,,,.\resources\recyclingbin.jpg,,,1,,,,,,,,,1,,,,,,,,,None,270.31729018000027,None,270.31729018000027,None,,,,,,,263.96798390000004,266.7182332000002,266.4515816000003,None,0.16266666668000002,266.9511504000002,None,266.9511504000002,None,268.61772139999994,None,268.61772139999994,None,left,1.317939099999876,268.61772139999994,None,270.01764170000024,None,left,0.2779464000000189,270.01764170000024,None,270.01764170000024,None,-10.005426297173447,150.0000011389316,,6,001,2021_Apr_08_1326,AB_pic_singleT2,2021.1.2,60.00582056465512,
AB,lag3,3,5,8,0.15333333335000002,0.039999999999999994,0.3999999999999999,ramp,,,,,0,5,5,5,,,,,,,brownsugar.jpg,slug.jpg,dragonfly01.jpg,cobra.jpg,toucan.jpg,bumpercar.jpg,crown.jpg,calendar.jpg,callbell.jpg,porcupine.jpg,licenseplate.jpg,telescope.jpg,acorn.jpg,cactus.jpg,table01.jpg,hockeystick.jpg,corn02.jpg,,,,,1,1,10,,,,,.\resources\calendar.jpg,,,1,,,,,,,,,1,,,,,,,,,None,276.9669090800002,None,276.9669090800002,None,,,,,,,270.33425450000004,273.0845167000002,272.81782239999984,None,0.15333333335000002,273.3174242,None,273.3174242,None,275.4673023999999,None,275.4673023999999,None,left,1.1003644000002168,275.4673023999999,None,276.633906,None,left,0.3096777999999176,276.633906,None,276.633906,None,-10.006764806001751,150.00000351094027,,6,001,2021_Apr_08_1326,AB_pic_singleT2,2021.1.2,60.00582056465512,
AB,lag1,1,4,5,0.14400000002000002,0.03799999999999999,0.3799999999999999,ramp,,,,,0,6,6,6,,,,,,,fortunecookie.jpg,calendar.jpg,flamingo.jpg,ear.jpg,christmastree.jpg,bat.jpg,recyclingbin.jpg,squid.jpg,stool01.jpg,frisbee.jpg,windmill.jpg,tarantula.jpg,saltshaker03a.jpg,dormer.jpg,acousticguitar02.jpg,tent.jpg,giraffe.jpg,,,,,1,0,7,,,,,.\resources\christmastree.jpg,,,1,,,,,,,,,1,,,,,,,,,None,282.74991907999987,None,282.74991907999987,None,,,,,,,276.9842687999999,279.73411540000006,279.46745820000024,None,0.14400000002000002,279.9670449,None,279.9670449,None,281.4502895999999,None,281.4502895999999,None,left,0.9092846999997164,281.4502895999999,None,282.43357220000007,None,right,0.28624459999991814,282.43357220000007,None,282.43357220000007,None,-10.008064094004647,150.00001124737665,,6,001,2021_Apr_08_1326,AB_pic_singleT2,2021.1.2,60.00582056465512,
AB,lag6,6,5,11,0.13466666669000002,0.03599999999999999,0.3599999999999999,ramp,,,,,0,7,7,7,,,,,,,foldingchair.jpg,honeybee.jpg,bullet.jpg,parachute.jpg,polarbear.jpg,nunchuk.jpg,totempole.jpg,moose.jpg,saltshaker03a.jpg,dartboard.jpg,flag.jpg,cigar.jpg,giraffe.jpg,fireplace.jpg,pokerchips.jpg,cannon.jpg,coffeemaker.jpg,,,,,0,0,13,,,,,.\resources\flag.jpg,,,1,,,,,,,,,1,,,,,,,,,None,289.1828520799999,None,289.1828520799999,None,,,,,,,282.7668901000002,285.5171098999999,285.25046610000027,None,0.13466666669000002,285.75004179999996,None,285.75004179999996,None,288.16657970000006,None,288.16657970000006,None,right,0.6730634000000464,288.16657970000006,None,288.9165299000001,None,right,0.25125130000014906,288.9165299000001,None,288.9165299000001,None,-10.009227634136485,150.00003695987715,,6,001,2021_Apr_08_1326,AB_pic_singleT2,2021.1.2,60.00582056465512,
AB,lag3,3,4,7,0.12533333336000002,0.03399999999999999,0.33999999999999986,ramp,,,,,0,8,8,8,,,,,,,pumpkin.jpg,wheelchair.jpg,punchingbag.jpg,seagull.jpg,grizzly.jpg,jeep.jpg,ironingboard01.jpg,africanelephant.jpg,bed.jpg,bowlingpin.jpg,tent.jpg,tank.jpg,cross01.jpg,musicsheet.jpg,drumset.jpg,magneticcompass.jpg,lighthouse.jpg,,,,,0,0,9,,,,,.\resources\ironingboard01.jpg,,,1,,,,,,,,,1,,,,,,,,,None,294.7492222800001,None,294.7492222800001,None,,,,,,,289.19985880000013,291.9501018000001,291.6834337,None,0.12533333336000002,292.1830223000002,None,292.1830223000002,None,293.7995962,None,293.7995962,None,right,0.6799941999997827,293.7995962,None,294.5495656000003,None,right,0.17814839999982723,294.5495656000003,None,294.5495656000003,None,-10.009903325668345,150.00012340554508,,6,001,2021_Apr_08_1326,AB_pic_singleT2,2021.1.2,60.00582056465512,
AB,lag4,4,4,8,0.11600000003000002,0.03199999999999999,0.31999999999999984,ramp,,,,,0,9,9,9,,,,,,,crab01.jpg,penguin.jpg,cow.jpg,brownsugar.jpg,nose.jpg,cactus.jpg,ladybug03.jpg,squirrel.jpg,footballhelmet.jpg,mailbox02.jpg,wallclock.jpg,guitarcase.jpg,tulip02.jpg,curtain.jpg,jeans01.jpg,fireplace.jpg,fortunecookie.jpg,,,,,0,1,10,,,,,.\resources\squirrel.jpg,,,1,,,,,,,,,1,,,,,,,,,None,300.81554978000025,None,300.81554978000025,None,,,,,,,294.76620300000013,297.5164829999999,297.24986739999986,None,0.11600000003000002,297.7664642,None,297.7664642,None,299.3993002000002,None,299.3993002000002,None,right,1.0405034000000342,299.3993002000002,None,300.51590739999983,None,left,0.27568120000023555,300.51590739999983,None,300.51590739999983,None,-10.0087969897031,150.00041576432758,,6,001,2021_Apr_08_1326,AB_pic_singleT2,2021.1.2,60.00582056465512,
AB,lag5,5,4,9,0.10666666670000002,0.029999999999999985,0.2999999999999998,ramp,,,,,0,10,10,10,,,,,,,kangaroo.jpg,frenchfries.jpg,cobra.jpg,magneticcompass.jpg,wallclock.jpg,ear.jpg,toad.jpg,eyepatch.jpg,donut.jpg,parachute.jpg,pig.jpg,parkfountain.jpg,butterfly.jpg,kneepad01c.jpg,callbell.jpg,mattress.jpg,trumpet.jpg,,,,,0,0,11,,,,,.\resources\donut.jpg,,,1,,,,,,,,,1,,,,,,,,,None,306.2152964800002,None,306.2152964800002,None,,,,,,,300.8325527000002,303.58289990000003,303.3162379999999,None,0.10666666670000002,303.8328941,None,303.8328941,None,305.4823452999999,None,305.4823452999999,None,right,0.4694319000000178,305.4823452999999,None,306.04898219999995,None,right,0.13463550000005853,306.04898219999995,None,306.04898219999995,None,-10.001153334151129,150.00140318068046,,6,001,2021_Apr_08_1326,AB_pic_singleT2,2021.1.2,60.00582056465512,
AB,lag2,2,3,5,0.09733333337000002,0.027999999999999983,0.3,ramp,,,,,0,11,11,11,,,,,,,honeybee.jpg,nose.jpg,bathtub.jpg,makiroll.jpg,floorlamp.jpg,cross01.jpg,tent.jpg,granolabar01.jpg,cymbal.jpg,donut.jpg,chair.jpg,pooltable.jpg,kneepad01c.jpg,swordfish.jpg,sink.jpg,giraffe.jpg,corn02.jpg,,,,,1,1,7,,,,,.\resources\floorlamp.jpg,,,1,,,,,,,,,1,,,,,,,,,None,312.1321105800002,None,312.1321105800002,None,,,,,,,306.23231699999997,308.9821458000001,308.7154918000001,None,0.09733333337000002,309.21546549999994,None,309.21546549999994,None,310.24874090000003,None,310.24874090000003,None,left,1.6548683000000892,310.24874090000003,None,311.99907299999995,None,left,0.11259119999976974,311.99907299999995,None,311.99907299999995,None,-9.969929362530102,150.00467706564078,,6,001,2021_Apr_08_1326,AB_pic_singleT2,2021.1.2,60.00582056465512,
AB,lag1,1,4,5,0.08800000004000003,0.02599999999999998,0.3,ramp,,,,,0,12,12,12,,,,,,,hotdogweiner.jpg,calendar.jpg,spear02.jpg,tank.jpg,curtain.jpg,lion.jpg,harmonica.jpg,floorlamp.jpg,swing.jpg,birdhouse.jpg,redfox.jpg,cork02.jpg,schoolbus.jpg,duck01.jpg,horseshoe.jpg,moose.jpg,polarbear.jpg,,,,,0,0,7,,,,,.\resources\curtain.jpg,,,1,,,,,,,,,1,,,,,,,,,None,316.8313631800001,None,316.8313631800001,None,,,,,,,312.1490877000001,314.8984685999999,314.63182229999984,None,0.08800000004000003,315.13179249999985,None,315.13179249999985,None,316.0650768999999,None,316.0650768999999,None,right,0.47052499999972497,316.0650768999999,None,316.6150474000001,None,right,0.20051409999996395,316.6150474000001,None,316.6150474000001,None,-9.860203419559875,150.01481140263897,,6,001,2021_Apr_08_1326,AB_pic_singleT2,2021.1.2,60.00582056465512,
AB,lag7,7,5,12,0.07866666671000003,0.02399999999999998,0.3,ramp,,,,,0,13,13,13,,,,,,,foosballtable.jpg,popcorn.jpg,beerbottle.jpg,bridge.jpg,handcuffs.jpg,cannon.jpg,greathornowl.jpg,sheep.jpg,cactus.jpg,cruiseship.jpg,cat.jpg,sandcastle.jpg,seagull.jpg,lion.jpg,wheelchair.jpg,spicerack.jpg,locker.jpg,,,,,0,0,14,,,,,.\resources\sandcastle.jpg,,,1,,,,,,,,,1,,,,,,,,,None,322.1310665800001,None,322.1310665800001,None,,,,,,,316.84836670000004,319.5982091000001,319.3315590000002,None,0.07866666671000003,319.8481962999999,None,319.8481962999999,None,321.39808440000024,None,321.39808440000024,None,right,0.4897390999999516,321.39808440000024,None,321.96470850000014,None,right,0.14688109999997323,321.96470850000014,None,321.96470850000014,None,-9.545471510334263,150.0407565987997,,6,001,2021_Apr_08_1326,AB_pic_singleT2,2021.1.2,60.00582056465512,
AB,lag1,1,3,4,0.06933333338000003,0.021999999999999978,0.3,ramp,,,,,0,14,14,14,,,,,,,snowman.jpg,fishingrod.jpg,ironingboard01.jpg,sandcastle.jpg,cashregister01.jpg,beaver.jpg,helicopter.jpg,bowtie.jpg,bacon.jpg,ladder.jpg,kneepad01c.jpg,knee.jpg,rooster.jpg,wallclock.jpg,locker.jpg,slug.jpg,porcupine.jpg,,,,,0,0,6,,,,,.\resources\sandcastle.jpg,,,1,,,,,,,,,1,,,,,,,,,None,327.0807535799999,None,327.0807535799999,None,,,,,,,322.14803699999993,324.89788439999984,324.6312275,None,0.06933333338000003,325.1478628,None,325.1478628,None,325.7978253000001,None,325.7978253000001,None,right,1.025772699999834,325.7978253000001,None,326.89776489999986,None,right,0.14207919999989826,326.89776489999986,None,326.89776489999986,None,-8.899309494850606,150.0881144916348,,6,001,2021_Apr_08_1326,AB_pic_singleT2,2021.1.2,60.00582056465512,
AB,lag6,6,5,11,0.06000000005000003,0.02,0.3,main,,,,,0,15,15,15,,,,,,,christmastree.jpg,escalator.jpg,marble.jpg,doghouse.jpg,parrot01.jpg,rubikcube.jpg,pigeon.jpg,swordfish.jpg,urinal.jpg,basketball01.jpg,alligator.jpg,corn02.jpg,masquerademask01.jpg,locker.jpg,hotdogweiner.jpg,dormer.jpg,rose.jpg,,,,,0,1,13,,,,,.\resources\alligator.jpg,,,1,,,,,,,,,1,,,,,,,,,None,333.2975120800001,None,333.2975120800001,None,,,,,,,327.0977600000001,329.84759280000026,329.5809524000001,None,0.0685304355432073,330.09761430000026,None,330.09761430000026,None,331.3475105000002,None,331.3475105000002,None,right,1.6361410999998043,331.3475105000002,None,333.0811644999999,None,left,0.1904410000001917,333.0811644999999,None,333.0811644999999,None,-8.269196012479734,150.1331603653032,,6,001,2021_Apr_08_1326,AB_pic_singleT2,2021.1.2,60.00582056465512,
AB,lag1,1,5,6,0.06000000005000003,0.02,0.3,main,,,,,0,16,16,16,,,,,,,lion.jpg,masquerademask01.jpg,xylophone.jpg,wheelbarrow01.jpg,cactus.jpg,parkfountain.jpg,waterfall.jpg,rose.jpg,fortunecookie.jpg,crown.jpg,foot.jpg,golfball.jpg,toolbox02.jpg,lip.jpg,bumpercar.jpg,squid.jpg,rubikcube.jpg,,,,,0,1,8,,,,,.\resources\parkfountain.jpg,,,1,,,,,,,,,1,,,,,,,,,None,338.6134162800003,None,338.6134162800003,None,,,,,,,333.3145174000001,336.0639467000001,335.79725770000005,None,0.06431284301286895,336.29723879999983,None,336.29723879999983,None,337.08052369999996,None,337.08052369999996,None,right,1.2712921000002098,337.08052369999996,None,338.4304169000002,None,left,0.16133159999981217,338.4304169000002,None,338.4304169000002,None,-7.665963707521319,150.17485493964236,,6,001,2021_Apr_08_1326,AB_pic_singleT2,2021.1.2,60.00582056465512,
AB,lag5,5,3,8,0.06000000005000003,0.02,0.3,main,,,,,0,17,17,17,,,,,,,jellybean.jpg,beaver.jpg,tire.jpg,swing.jpg,fortunecookie.jpg,donut.jpg,boat.jpg,windmill.jpg,mouse.jpg,spear02.jpg,snowshoe.jpg,rose.jpg,popcorn.jpg,discoball.jpg,waterfountain02.jpg,car.jpg,arrow02.jpg,,,,,0,0,10,,,,,.\resources\windmill.jpg,,,1,,,,,,,,,1,,,,,,,,,None,343.19649048000014,None,343.19649048000014,None,,,,,,,338.6304043,341.38027220000004,341.1135913000003,None,0.06027812094294651,341.6135681999999,None,341.6135681999999,None,342.5301843000002,None,342.5301843000002,None,right,0.397498700000142,342.5301843000002,None,342.99682040000016,None,right,0.1708462999999938,342.99682040000016,None,342.99682040000016,None,-7.088834590764558,150.21336186874188,,6,001,2021_Apr_08_1326,AB_pic_singleT2,2021.1.2,60.00582056465512,
AB,lag3,3,4,7,0.06000000005000003,0.02,0.3,main,,,,,0,18,18,18,,,,,,,doghouse.jpg,cigar.jpg,windshieldwiper02.jpg,trophy01.jpg,schoolbus.jpg,sink.jpg,magneticcompass.jpg,parachute.jpg,anchor.jpg,peacock.jpg,cork02.jpg,cruiseship.jpg,zebra.jpg,giraffe.jpg,bullet.jpg,shovel01.jpg,rollerblade.jpg,,,,,0,0,9,,,,,.\resources\magneticcompass.jpg,,,1,,,,,,,,,1,,,,,,,,,None,347.6628890800002,None,347.6628890800002,None,,,,,,,343.21348080000007,345.963714,345.69706369999994,None,0.05642060630591645,346.19664109999985,None,346.19664109999985,None,346.9965944999999,None,346.9965944999999,None,right,0.4512030999999297,346.9965944999999,None,347.5132346999999,None,right,0.1343909000001986,347.5132346999999,None,347.5132346999999,None,-6.538365079744742,150.24904494292093,,6,001,2021_Apr_08_1326,AB_pic_singleT2,2021.1.2,60.00582056465512,
AB,lag2,2,5,7,0.06000000005000003,0.02,0.3,main,,,,,0,19,19,19,,,,,,,toyanimal05.jpg,nunchuk.jpg,hammerheadshark.jpg,bumpercar.jpg,banjo.jpg,cloud.jpg,popcorn.jpg,peacock.jpg,waterfall.jpg,foosballtable.jpg,eiffeltower.jpg,moon.jpg,marble.jpg,windmill.jpg,guitarcase.jpg,penguin.jpg,ceilingfan01.jpg,,,,,0,1,9,,,,,.\resources\popcorn.jpg,,,1,,,,,,,,,1,,,,,,,,,None,353.94639727999987,None,353.94639727999987,None,,,,,,,347.67991359999996,350.4298125,350.16359009999996,None,0.05274349293784318,350.68023070000027,None,350.68023070000027,None,351.4130703999999,None,351.4130703999999,None,right,1.770536699999866,351.4130703999999,None,353.2800836000001,None,left,0.6236883999999918,353.2800836000001,None,353.2800836000001,None,-6.018421216637545,150.28231315625072,,6,001,2021_Apr_08_1326,AB_pic_singleT2,2021.1.2,60.00582056465512,
AB,lag4,4,3,7,0.06000000005000003,0.02,0.3,main,,,,,0,20,20,20,,,,,,,bow.jpg,sausage.jpg,skateboard.jpg,ipad02.jpg,tortoise01.jpg,saxophone.jpg,parkfountain.jpg,boxingglove01.jpg,treadmill.jpg,cannon.jpg,xylophone.jpg,porcupine.jpg,nosmokingsign.jpg,parkingmeter.jpg,birdfeeder.jpg,cashregister01.jpg,greatwhiteshark.jpg,,,,,0,0,9,,,,,.\resources\parkfountain.jpg,,,1,,,,,,,,,1,,,,,,,,,None,358.34569558000015,None,358.34569558000015,None,,,,,,,353.9633595,356.71277629999986,356.44612229999984,None,0.04927203622463972,356.9627558000002,None,356.9627558000002,None,357.66271540000025,None,357.66271540000025,None,right,0.45701280000002953,357.66271540000025,None,358.19602140000006,None,right,0.12378279999984443,358.19602140000006,None,358.19602140000006,None,-5.536044089018904,150.31363181084777,,6,001,2021_Apr_08_1326,AB_pic_singleT2,2021.1.2,60.00582056465512,
AB,lag7,7,5,12,0.06000000005000003,0.02,0.3,main,,,,,0,21,21,21,,,,,,,mummy.jpg,peacock.jpg,volleyball.jpg,squirrel.jpg,tricycle.jpg,trophy01.jpg,fishingrod.jpg,drumset.jpg,jellybean.jpg,bumpercar.jpg,foosballtable.jpg,turnstile.jpg,cymbal.jpg,cashregister01.jpg,apron.jpg,humanskeleton.jpg,hockeypuck.jpg,,,,,1,1,14,,,,,.\resources\turnstile.jpg,,,1,,,,,,,,,1,,,,,,,,,None,364.4457749800003,None,364.4457749800003,None,,,,,,,358.3626875,361.11251870000024,360.84586609999997,None,0.046052632530692576,361.3625019000001,None,361.3625019000001,None,362.3624490000002,None,362.3624490000002,None,left,1.845221600000059,362.3624490000002,None,364.2961049999999,None,left,0.119549200000165,364.2961049999999,None,364.2961049999999,None,-5.100422208616391,150.3435458604873,,6,001,2021_Apr_08_1326,AB_pic_singleT2,2021.1.2,60.00582056465512,
AB,lag6,6,5,11,0.06000000005000003,0.02,0.3,main,,,,,0,22,22,22,,,,,,,cigar.jpg,drumset.jpg,tent.jpg,ceilingfan01.jpg,parkingmeter.jpg,knee.jpg,englishcucumber.jpg,icecube02.jpg,acousticguitar02.jpg,candycane01a.jpg,sheep.jpg,jackrabbit.jpg,surfboard.jpg,exitsign.jpg,jellybean.jpg,mouse.jpg,toyanimal05.jpg,,,,,0,1,13,,,,,.\resources\sheep.jpg,,,1,,,,,,,,,1,,,,,,,,,None,370.14545298000024,None,370.14545298000024,None,,,,,,,364.4627856000002,367.2121735999999,366.9455203000002,None,0.043145959692580955,367.4621585,None,367.4621585,None,368.36210759999994,None,368.36210759999994,None,right,1.5016168000001926,368.36210759999994,None,369.9291403000002,None,left,0.17471830000022237,369.9291403000002,None,369.9291403000002,None,-4.720449703200007,150.37268186346049,,6,001,2021_Apr_08_1326,AB_pic_singleT2,2021.1.2,60.00582056465512,
AB,lag7,7,5,12,0.06000000005000003,0.02,0.3,main,,,,,0,23,23,23,,,,,,,snowshoe.jpg,horse.jpg,volleyball.jpg,whiteout.jpg,arrow02.jpg,firehydrant.jpg,banjo.jpg,cactus.jpg,ant.jpg,eyepatch.jpg,beerbottle.jpg,car.jpg,cruiseship.jpg,crown.jpg,birdnest.jpg,fishskeleton.jpg,penguin.jpg,,,,,1,0,14,,,,,.\resources\car.jpg,,,0,,,,,,,,,1,,,,,,,,,None,375.8284183800001,None,375.8284183800001,None,,,,,,,370.16247710000016,372.91184569999996,372.6452113,None,0.04061072788383775,373.16183520000004,None,373.16183520000004,None,374.0784248,None,374.0784248,None,right,1.5053641999998035,374.0784248,None,375.6787872,None,right,0.11284470000009605,375.6787872,None,375.6787872,None,-5.211657746765133,150.36577676246839,,6,001,2021_Apr_08_1326,AB_pic_singleT2,2021.1.2,60.00582056465512,
AB,lag5,5,3,8,0.06000000005000003,0.02,0.3,main,,,,,0,24,24,24,,,,,,,rollerblade.jpg,sword01.jpg,jellybean.jpg,chainsaw.jpg,foosballtable.jpg,birdhouse.jpg,ladybug03.jpg,drumstick.jpg,snowman.jpg,car.jpg,kneepad01c.jpg,mummy.jpg,cocktailshrimp02.jpg,hand01b.jpg,mattress.jpg,dartboard.jpg,cow.jpg,,,,,0,1,10,,,,,.\resources\drumstick.jpg,,,1,,,,,,,,,1,,,,,,,,,None,380.6777215800002,None,380.6777215800002,None,,,,,,,375.84541590000026,378.5948463,378.3281826000002,None,0.043879347082466484,378.82815370000026,None,378.82815370000026,None,379.5614472000002,None,379.5614472000002,None,right,0.8382475999997041,379.5614472000002,None,380.4780618,None,left,0.17763679999961823,380.4780618,None,380.4780618,None,-5.232876557160388,150.37788427627535,,6,001,2021_Apr_08_1326,AB_pic_singleT2,2021.1.2,60.00582056465512,
AB,lag3,3,3,6,0.06000000005000003,0.02,0.3,main,,,,,0,25,25,25,,,,,,,worldmap.jpg,key07.jpg,guitarcase.jpg,nunchuk.jpg,moon.jpg,lizard.jpg,giraffe.jpg,toucan.jpg,grizzly.jpg,chefshat.jpg,bathtub.jpg,ducttape.jpg,turnstile.jpg,mattress.jpg,crown.jpg,tricycle.jpg,sink.jpg,,,,,0,1,8,,,,,.\resources\lizard.jpg,,,1,,,,,,,,,1,,,,,,,,,None,385.3107548800003,None,385.3107548800003,None,,,,,,,380.6947156000001,383.4445971,383.1779068999999,None,0.04401691744857568,383.6778782000001,None,383.6778782000001,None,384.27783880000015,None,384.27783880000015,None,right,0.7617905000001883,384.27783880000015,None,385.11110439999993,None,left,0.1846997000002375,385.11110439999993,None,385.11110439999993,None,-5.116166395017277,150.39616916811568,,6,001,2021_Apr_08_1326,AB_pic_singleT2,2021.1.2,60.00582056465512,
AB,lag2,2,3,5,0.06000000005000003,0.02,0.3,main,,,,,0,26,26,26,,,,,,,seal.jpg,stubbywrench01a.jpg,ladybug03.jpg,squid.jpg,eiffeltower.jpg,noparkingsign.jpg,ceilingfan01.jpg,leafrake.jpg,pingpongtable.jpg,curtain.jpg,moose.jpg,fridge.jpg,mouse.jpg,tank.jpg,car.jpg,eye.jpg,ipad02.jpg,,,,,0,0,7,,,,,.\resources\eiffeltower.jpg,,,1,,,,,,,,,1,,,,,,,,,None,389.6105329800002,None,389.6105329800002,None,,,,,,,385.32775760000004,388.07800959999986,387.8113595,None,0.043235547767633595,388.3109254000001,None,388.3109254000001,None,388.8446345000002,None,388.8446345000002,None,right,0.475155299999642,388.8446345000002,None,389.3941924999999,None,right,0.18941159999985757,389.3941924999999,None,389.3941924999999,None,-4.972827836852318,150.41610165305602,,6,001,2021_Apr_08_1326,AB_pic_singleT2,2021.1.2,60.00582056465512,
AB,lag1,1,5,6,0.06000000005000003,0.02,0.3,main,,,,,0,27,27,27,,,,,,,elbow.jpg,birdhouse.jpg,parachute.jpg,fireplace.jpg,granolabar01.jpg,ant.jpg,telescope.jpg,athleticsock.jpg,jeans01.jpg,horse.jpg,shower.jpg,christmaslights.jpg,church.jpg,footballhelmet.jpg,tree.jpg,sledgehammer.jpg,schoolbus.jpg,,,,,0,1,8,,,,,.\resources\ant.jpg,,,1,,,,,,,,,1,,,,,,,,,None,394.32691258000017,None,394.32691258000017,None,,,,,,,389.627528,392.3777629000001,392.11113920000025,None,0.042276871479091475,392.62778389999994,None,392.62778389999994,None,393.19397419999996,None,393.19397419999996,None,right,0.8378374999997504,393.19397419999996,None,394.1105662,None,left,0.18529949999992823,394.1105662,None,394.1105662,None,-4.830816964839257,150.43657825940528,,6,001,2021_Apr_08_1326,AB_pic_singleT2,2021.1.2,60.00582056465512,
AB,lag4,4,5,9,0.06000000005000003,0.02,0.3,main,,,,,0,28,28,28,,,,,,,christmaslights.jpg,acorn.jpg,toilet.jpg,cat.jpg,toyanimal05.jpg,microwave.jpg,fireplace.jpg,ceilingfan01.jpg,bacon.jpg,kiwi03.jpg,flamingo.jpg,lightswitch01.jpg,cannon.jpg,safe.jpg,grizzly.jpg,licenseplate.jpg,hotdogweiner.jpg,,,,,0,0,11,,,,,.\resources\bacon.jpg,,,1,,,,,,,,,1,,,,,,,,,None,398.74334858000014,None,398.74334858000014,None,,,,,,,394.34389450000026,397.0941906000003,396.82751659999985,None,0.04132712534340334,397.32707660000005,None,397.32707660000005,None,398.09370050000007,None,398.09370050000007,None,right,0.4100402000003669,398.09370050000007,None,398.5936670000001,None,right,0.12593699999979435,398.5936670000001,None,398.5936670000001,None,-4.696102013978469,150.45740918369552,,6,001,2021_Apr_08_1326,AB_pic_singleT2,2021.1.2,60.00582056465512,
AB,lag3,3,4,7,0.06000000005000003,0.02,0.3,main,,,,,0,29,29,29,,,,,,,jellyfish.jpg,waterfountain02.jpg,jeans01.jpg,lightswitch01.jpg,magneticcompass.jpg,birdfeeder.jpg,exitsign.jpg,panda.jpg,knee.jpg,butterfly.jpg,bench01.jpg,dreamcatcher.jpg,fireplace.jpg,chefshat.jpg,accordion01.jpg,cymbal.jpg,footballhelmet.jpg,,,,,0,0,9,,,,,.\resources\exitsign.jpg,,,1,,,,,,,,,1,,,,,,,,,None,406.1267442800003,None,406.1267442800003,None,,,,,,,398.76032179999993,401.51066219999984,401.2440087,None,0.04042603423851516,401.76064339999994,None,401.76064339999994,None,402.3768358000002,None,402.3768358000002,None,right,3.502800400000069,402.3768358000002,None,405.96040949999997,None,right,0.12729340000032607,405.96040949999997,None,405.96040949999997,None,-4.569581322070752,150.4786186074442,,6,001,2021_Apr_08_1326,AB_pic_singleT2,2021.1.2,60.00582056465512,
AB,lag1,1,4,5,0.06000000005000003,0.02,0.3,main,,,,,0,30,30,30,,,,,,,exitsign.jpg,wheelchair.jpg,parkfountain.jpg,triangle.jpg,mattress.jpg,jellyfish.jpg,spear02.jpg,cupcake.jpg,knee.jpg,pig.jpg,beaver.jpg,polarbear.jpg,flag.jpg,bullet.jpg,cloud.jpg,dolphin01.jpg,ostrich.jpg,,,,,0,0,7,,,,,.\resources\mattress.jpg,,,1,,,,,,,,,1,,,,,,,,,None,411.2264586800001,None,411.2264586800001,None,,,,,,,406.14374580000003,408.8931399000003,408.62649180000017,None,0.03957954783415326,409.14312729999983,None,409.14312729999983,None,409.6264363,None,409.6264363,None,right,1.2691948000001503,409.6264363,None,410.9768008000001,None,right,0.22286510000003545,410.9768008000001,None,410.9768008000001,None,-4.451083182689305,150.50027757537325,,6,001,2021_Apr_08_1326,AB_pic_singleT2,2021.1.2,60.00582056465512,
AB,lag4,4,5,9,0.06000000005000003,0.02,0.3,main,,,,,0,31,31,31,,,,,,,cymbal.jpg,electrictoothbrush01c.jpg,baseballbat.jpg,daddylonglegs.jpg,trumpet.jpg,bowlingpin.jpg,birdhouse.jpg,swing.jpg,dartboard.jpg,butterfly.jpg,discoball.jpg,footballhelmet.jpg,escalator.jpg,bridge.jpg,recyclingbin.jpg,soccerball.jpg,cross01.jpg,,,,,0,0,11,,,,,.\resources\dartboard.jpg,,,1,,,,,,,,,0,,,,,,,,,None,416.1757153799999,None,416.1757153799999,None,,,,,,,411.2434536999999,413.9928485999999,413.7261936,None,0.03878649021684184,414.22616689999995,None,414.22616689999995,None,414.95946330000015,None,414.95946330000015,None,right,0.8881395000003067,414.95946330000015,None,415.9260758999999,None,left,0.2176198000001932,415.9260758999999,None,415.9260758999999,None,-4.340233318565247,150.52246477825946,,6,001,2021_Apr_08_1326,AB_pic_singleT2,2021.1.2,60.00582056465512,
AB,lag6,6,3,9,0.06000000005000003,0.02,0.3,main,,,,,0,32,32,32,,,,,,,acousticguitar02.jpg,wheelbarrow01.jpg,whiteout.jpg,ladybug03.jpg,electricguitar01.jpg,foosballtable.jpg,arrow02.jpg,dormer.jpg,cobra.jpg,handcuffs.jpg,duck01.jpg,pingpongtable.jpg,jackrabbit.jpg,mummy.jpg,bathtub.jpg,witchhat.jpg,marble.jpg,,,,,0,1,11,,,,,.\resources\cobra.jpg,,,1,,,,,,,,,1,,,,,,,,,None,420.79214038000003,None,420.79214038000003,None,,,,,,,416.19274170000017,418.9425733000003,418.67591760000005,None,0.03804433901691093,419.19255410000005,None,419.19255410000005,None,419.8925208999999,None,419.8925208999999,None,right,0.6272165000000314,419.8925208999999,None,420.60914189999994,None,left,0.16655619999983173,420.60914189999994,None,420.60914189999994,None,-4.236622678791104,150.54525626843892,,6,001,2021_Apr_08_1326,AB_pic_singleT2,2021.1.2,60.00582056465512,
AB,lag2,2,3,5,0.06000000005000003,0.02,0.3,main,,,,,0,33,33,33,,,,,,,englishcucumber.jpg,wallclock.jpg,crab01.jpg,sledgehammer.jpg,treadmill.jpg,floorlamp.jpg,cloud.jpg,parachute.jpg,moose.jpg,seagull.jpg,drumset.jpg,crown.jpg,banjo.jpg,parrot01.jpg,ceilingfan01.jpg,zebra.jpg,lightswitch01.jpg,,,,,0,0,7,,,,,.\resources\treadmill.jpg,,,1,,,,,,,,,1,,,,,,,,,None,425.0252222799999,None,425.0252222799999,None,,,,,,,420.8091365,423.55900569999994,423.29231860000027,None,0.03735034353978387,423.7922893,None,423.7922893,None,424.27559250000013,None,424.27559250000013,None,right,0.49206390000017564,424.27559250000013,None,424.84222660000023,None,right,0.14945880000004763,424.84222660000023,None,424.84222660000023,None,-4.139833456017341,150.56872187826627,,6,001,2021_Apr_08_1326,AB_pic_singleT2,2021.1.2,60.00582056465512,
AB,lag5,5,4,9,0.06000000005000003,0.02,0.3,main,,,,,0,34,34,34,,,,,,,locker.jpg,church.jpg,cross01.jpg,eiffeltower.jpg,ironingboard01.jpg,pirateflag.jpg,dartboard.jpg,dolphin01.jpg,toyanimal05.jpg,parrot01.jpg,microphone01.jpg,motorcycle.jpg,telescope.jpg,drumstick.jpg,airhockeytable.jpg,pig.jpg,tricycle.jpg,,,,,0,0,11,,,,,.\resources\toyanimal05.jpg,,,1,,,,,,,,,1,,,,,,,,,None,429.79164188,None,429.79164188,None,,,,,,,425.04223690000026,427.79206490000024,427.5254129,None,0.03670169838862726,428.0420545000002,None,428.0420545000002,None,428.7253485000001,None,428.7253485000001,None,right,0.7144220000000132,428.7253485000001,None,429.5086348,None,right,0.25101949999998396,429.5086348,None,429.5086348,None,-4.049442921402826,150.59292355948844,,6,001,2021_Apr_08_1326,AB_pic_singleT2,2021.1.2,60.00582056465512,
AB,lag7,7,5,12,0.06000000005000003,0.02,0.3,main,,,,,0,35,35,35,,,,,,,volleyball.jpg,uprightpiano01.jpg,football.jpg,sword01.jpg,seal.jpg,lip.jpg,statue.jpg,parkingmeter.jpg,helicopter.jpg,lily.jpg,boat.jpg,mattress.jpg,squid.jpg,skateboard.jpg,parachute.jpg,fridge.jpg,dartboard.jpg,,,,,0,1,14,,,,,.\resources\mattress.jpg,,,1,,,,,,,,,1,,,,,,,,,None,436.87498678000014,None,436.87498678000014,None,,,,,,,429.8086217,432.5584592,432.29180499999984,None,0.03609556912795738,432.7917778000001,None,432.7917778000001,None,433.6584019000002,None,433.6584019000002,None,right,2.917367799999738,433.6584019000002,None,436.65866749999986,None,left,0.18110399999977744,436.65866749999986,None,436.65866749999986,None,-3.9650271932740466,150.6179146023415,,6,001,2021_Apr_08_1326,AB_pic_singleT2,2021.1.2,60.00582056465512,
AB,lag5,5,5,10,0.06000000005000003,0.02,0.3,main,,,,,0,36,36,36,,,,,,,microphone01.jpg,tricycle.jpg,parrot01.jpg,flamingo.jpg,cupcake.jpg,dolphin01.jpg,acousticguitar02.jpg,horseshoe.jpg,granolabar01.jpg,skateboard.jpg,toyanimal05.jpg,snowshovel.jpg,skunk.jpg,football.jpg,corn02.jpg,platypus.jpg,spiderweb.jpg,,,,,1,0,12,,,,,.\resources\skateboard.jpg,,,1,,,,,,,,,1,,,,,,,,,None,441.7409709799999,None,441.7409709799999,None,,,,,,,436.89199689999987,439.64139250000017,439.37475940000013,None,0.035529117293400275,439.89138300000013,None,439.89138300000013,None,440.62467430000015,None,440.62467430000015,None,left,0.8231670000000122,440.62467430000015,None,441.54128690000016,None,right,0.1703829999996742,441.54128690000016,None,441.54128690000016,None,-3.8861668910988625,150.64373944034006,,6,001,2021_Apr_08_1326,AB_pic_singleT2,2021.1.2,60.00582056465512,
AB,lag7,7,3,10,0.06000000005000003,0.02,0.3,main,,,,,0,37,37,37,,,,,,,horse.jpg,cow.jpg,elbow.jpg,steeringwheel.jpg,jellybean.jpg,greywolf.jpg,vulture.jpg,airhockeytable.jpg,kite.jpg,raccoon.jpg,dormer.jpg,lightswitch01.jpg,alligator.jpg,lion.jpg,mailbox02.jpg,escalator.jpg,microphone01.jpg,,,,,0,0,12,,,,,.\resources\raccoon.jpg,,,0,,,,,,,,,1,,,,,,,,,None,446.9072921800002,None,446.9072921800002,None,,,,,,,441.7579404000003,444.50778260000016,444.24113050000005,None,0.03499953779564018,444.7577704999999,None,444.7577704999999,None,445.4910337000001,None,445.4910337000001,None,left,1.180625400000281,445.4910337000001,None,446.77474470000016,None,right,0.11300029999983963,446.77474470000016,None,446.77474470000016,None,-4.154008991055845,150.65561871069562,,6,001,2021_Apr_08_1326,AB_pic_singleT2,2021.1.2,60.00582056465512,
AB,lag4,4,3,7,0.06000000005000003,0.02,0.3,main,,,,,0,38,38,38,,,,,,,pirateflag.jpg,urinal.jpg,boxingglove01.jpg,bed.jpg,microphone01.jpg,hockeystick.jpg,bridge.jpg,parkfountain.jpg,statue.jpg,fridge.jpg,panda.jpg,beaver.jpg,elbow.jpg,cross01.jpg,handcuffs.jpg,armadillo.jpg,pooltable.jpg,,,,,1,0,9,,,,,.\resources\bridge.jpg,,,1,,,,,,,,,1,,,,,,,,,None,452.52412567999994,None,452.52412567999994,None,,,,,,,446.92473329999984,449.6741766,449.40749749999986,None,0.0367746214816906,449.9241339,None,449.9241339,None,450.5074353,None,450.5074353,None,left,1.7563451000000896,450.5074353,None,452.37446899999986,None,right,0.12915979999979754,452.37446899999986,None,452.37446899999986,None,-4.128528971965379,150.6771553570167,,6,001,2021_Apr_08_1326,AB_pic_singleT2,2021.1.2,60.00582056465512,
AB,lag3,3,5,8,0.06000000005000003,0.02,0.3,main,,,,,0,39,39,39,,,,,,,africanelephant.jpg,tricycle.jpg,triangle.jpg,boat.jpg,trumpet.jpg,steeringwheel.jpg,firehydrant.jpg,porcupine.jpg,lightswitch01.jpg,jellyfish.jpg,spear02.jpg,grizzly.jpg,raccoon.jpg,candycane01a.jpg,acorn.jpg,apron.jpg,cigar.jpg,,,,,1,0,10,,,,,.\resources\porcupine.jpg,,,1,,,,,,,,,1,,,,,,,,,None,457.14051788,None,457.14051788,None,,,,,,,452.541162,455.29050629999983,455.0238551000002,None,0.03660026179826906,455.5404953000002,None,455.5404953000002,None,456.1737871999999,None,456.1737871999999,None,left,0.7138910999997279,456.1737871999999,None,456.97419679999985,None,right,0.13746169999967606,456.97419679999985,None,456.97419679999985,None,-4.071007831238967,150.70037996445498,,6,001,2021_Apr_08_1326,AB_pic_singleT2,2021.1.2,60.00582056465512,
AB,lag2,2,4,6,0.06000000005000003,0.02,0.3,main,,,,,0,40,40,40,,,,,,,lighthouse.jpg,ipad02.jpg,candycane01a.jpg,tent.jpg,butterfly.jpg,granolabar01.jpg,shovel01.jpg,turnstile.jpg,africanelephant.jpg,skippingrope.jpg,trumpet.jpg,platypus.jpg,athleticsock.jpg,toad.jpg,dolphin01.jpg,marble.jpg,skunk.jpg,,,,,0,0,8,,,,,.\resources\granolabar01.jpg,,,1,,,,,,,,,1,,,,,,,,,None,461.33982358,None,461.33982358,None,,,,,,,457.1575321,459.90690859999995,459.64027380000016,None,0.0362129292152153,460.15689669999983,None,460.15689669999983,None,460.6735414,None,460.6735414,None,right,0.4302232999998523,460.6735414,None,461.19016539999984,None,right,0.129470300000321,461.19016539999984,None,461.19016539999984,None,-4.012403772134499,150.72432826110577,,6,001,2021_Apr_08_1326,AB_pic_singleT2,2021.1.2,60.00582056465512,
AB,lag1,1,4,5,0.06000000005000003,0.02,0.3,main,,,,,0,41,41,41,,,,,,,volleyball.jpg,scorpion.jpg,bow.jpg,duck01.jpg,toilet.jpg,accordion01.jpg,skateboard.jpg,alligator.jpg,drumstick.jpg,tennisracket.jpg,totempole.jpg,cymbal.jpg,horse.jpg,triangle.jpg,cross01.jpg,lip.jpg,bluejay.jpg,,,,,1,0,7,,,,,.\resources\toilet.jpg,,,1,,,,,,,,,1,,,,,,,,,None,465.80623357999997,None,465.80623357999997,None,,,,,,,461.35682670000006,464.10667749999993,463.84001260000014,None,0.0358183592226864,464.3566552000002,None,464.3566552000002,None,464.80662570000004,None,464.80662570000004,None,left,0.7211038000000372,464.80662570000004,None,465.60659179999993,None,right,0.15327530000013212,465.60659179999993,None,465.60659179999993,None,-3.955941322664748,150.7489047855007,,6,001,2021_Apr_08_1326,AB_pic_singleT2,2021.1.2,60.00582056465512,
AB,lag6,6,5,11,0.06000000005000003,0.02,0.3,main,,,,,0,42,42,42,,,,,,,key07.jpg,pigeon.jpg,microphone01.jpg,bowlingpin.jpg,pokerchips.jpg,bathtub.jpg,cross01.jpg,fishskeleton.jpg,bumpercar.jpg,toolbox02.jpg,tennisracket.jpg,lightswitch01.jpg,church.jpg,guitarcase.jpg,dreamcatcher.jpg,cloud.jpg,bench01.jpg,,,,,0,0,13,,,,,.\resources\tennisracket.jpg,,,1,,,,,,,,,1,,,,,,,,,None,470.37308458,None,470.37308458,None,,,,,,,465.8232438,468.57308090000015,468.30643120000013,None,0.035437973439250245,468.82306770000014,None,468.82306770000014,None,469.6063558000001,None,469.6063558000001,None,right,0.5213139000002229,469.6063558000001,None,470.20677639999985,None,right,0.13688169999977617,470.20677639999985,None,470.20677639999985,None,-3.9018458662304454,150.77410684851853,,6,001,2021_Apr_08_1326,AB_pic_singleT2,2021.1.2,60.00582056465512,
AB,lag5,5,5,10,0.06000000005000003,0.02,0.3,main,,,,,0,43,43,43,,,,,,,christmastree.jpg,showerhead01.jpg,butterfly.jpg,ear.jpg,well.jpg,bowtie.jpg,birthdaycandle.jpg,scorpion.jpg,penguin.jpg,flag.jpg,tricycle.jpg,flamingo.jpg,magneticcompass.jpg,rubikcube.jpg,lighthouse.jpg,mattress.jpg,crosscountryski.jpg,,,,,0,1,12,,,,,.\resources\flag.jpg,,,1,,,,,,,,,1,,,,,,,,,None,475.2390340800002,None,475.2390340800002,None,,,,,,,470.3900969000001,473.1394871000002,472.87285969999994,None,0.03507326515064875,473.3728113000002,None,473.3728113000002,None,474.1227681999999,None,474.1227681999999,None,right,0.8529923000000963,474.1227681999999,None,475.07271549999996,None,left,0.15113149999979214,475.07271549999996,None,475.07271549999996,None,-3.8500354857341246,150.7999408293673,,6,001,2021_Apr_08_1326,AB_pic_singleT2,2021.1.2,60.00582056465512,
AB,lag7,7,5,12,0.06000000005000003,0.02,0.3,main,,,,,0,44,44,44,,,,,,,parkingmeter.jpg,church.jpg,bullet.jpg,fishingrod.jpg,cloud.jpg,escalator.jpg,tarantula.jpg,knee.jpg,lizard.jpg,snowman.jpg,drumset.jpg,skateboard.jpg,saltshaker03a.jpg,cashregister01.jpg,bowlingpin.jpg,dromedary.jpg,snowboard.jpg,,,,,1,0,14,,,,,.\resources\skateboard.jpg,,,1,,,,,,,,,0,,,,,,,,,None,480.33872117999994,None,480.33872117999994,None,,,,,,,475.2560375000003,478.00589709999986,477.73928860000024,None,0.0347236863493137,478.2391975999999,None,478.2391975999999,None,479.08912820000023,None,479.08912820000023,None,left,1.022500399999899,479.08912820000023,None,480.2057122000001,None,left,0.10598719999961759,480.2057122000001,None,480.2057122000001,None,-3.8004023384002115,150.82641334330413,,6,001,2021_Apr_08_1326,AB_pic_singleT2,2021.1.2,60.00582056465512,
AB,lag3,3,4,7,0.06000000005000003,0.02,0.3,main,,,,,0,45,45,45,,,,,,,pirateflag.jpg,swordfish.jpg,ladybug03.jpg,tortoise01.jpg,moon.jpg,candycane01a.jpg,helicopter.jpg,marble.jpg,uprightpiano01.jpg,pig.jpg,microwave.jpg,dromedary.jpg,hammerheadshark.jpg,lizard.jpg,seal.jpg,zipper.jpg,granolabar01.jpg,,,,,0,1,9,,,,,.\resources\helicopter.jpg,,,1,,,,,,,,,1,,,,,,,,,None,485.6717179800002,None,485.6717179800002,None,,,,,,,480.3556916000002,483.10557370000015,482.83888939999997,None,0.034388517134027324,483.33885980000014,None,483.33885980000014,None,483.9055042,None,483.9055042,None,right,1.4782130000003235,483.9055042,None,485.47206749999987,None,left,0.18358670000043276,485.47206749999987,None,485.47206749999987,None,-3.752840721813476,150.85353020964953,,6,001,2021_Apr_08_1326,AB_pic_singleT2,2021.1.2,60.00582056465512,
AB,lag2,2,5,7,0.06000000005000003,0.02,0.3,main,,,,,0,46,46,46,,,,,,,lollipop04.jpg,cow.jpg,lip.jpg,boat.jpg,telescope.jpg,mattress.jpg,floorlamp.jpg,stubbywrench01a.jpg,pumpkin.jpg,raccoon.jpg,frenchfries.jpg,brownsugar.jpg,knee.jpg,nose.jpg,dolphin01.jpg,foldingchair.jpg,cloud.jpg,,,,,0,0,9,,,,,.\resources\floorlamp.jpg,,,1,,,,,,,,,0,,,,,,,,,None,490.57141398000016,None,490.57141398000016,None,,,,,,,485.6887182999999,488.4385603999999,488.1719072000001,None,0.03406705216504529,488.6719171,None,488.6719171,None,489.23851539999987,None,489.23851539999987,None,right,0.993203099999846,489.23851539999987,None,490.32176430000027,None,left,0.20613389999971332,490.32176430000027,None,490.32176430000027,None,-3.7072494603635113,150.8812962545068,,6,001,2021_Apr_08_1326,AB_pic_singleT2,2021.1.2,60.00582056465512,
AB,lag6,6,5,11,0.06000000005000003,0.02,0.3,main,,,,,0,47,47,47,,,,,,,pig.jpg,dolphin01.jpg,stubbywrench01a.jpg,tiger02.jpg,ladybug03.jpg,birdnest.jpg,sword01.jpg,funnel.jpg,chimney.jpg,turnstile.jpg,drumstick.jpg,cashregister01.jpg,skunk.jpg,cat.jpg,apron.jpg,punchingbag.jpg,scooter.jpg,,,,,0,0,13,,,,,.\resources\drumstick.jpg,,,1,,,,,,,,,1,,,,,,,,,None,495.1711835800001,None,495.1711835800001,None,,,,,,,490.5884292999999,493.3386298999999,493.07197929999984,None,0.033758616527867075,493.5715752000001,None,493.5715752000001,None,494.35487379999995,None,494.35487379999995,None,right,0.5891091999997116,494.35487379999995,None,495.02150500000016,None,right,0.1301975000001221,495.02150500000016,None,495.02150500000016,None,-3.6635318742430547,150.90971523769582,,6,001,2021_Apr_08_1326,AB_pic_singleT2,2021.1.2,60.00582056465512,
AB,lag1,1,4,5,0.06000000005000003,0.02,0.3,main,,,,,0,48,48,48,,,,,,,wallclock.jpg,pirateflag.jpg,doghouse.jpg,sink.jpg,bull.jpg,pingpongtable.jpg,shovel01.jpg,magneticcompass.jpg,witchhat.jpg,jeans01.jpg,cactus.jpg,safe.jpg,airhockeytable.jpg,bow.jpg,greywolf.jpg,chimney.jpg,slug.jpg,,,,,1,1,7,,,,,.\resources\bull.jpg,,,1,,,,,,,,,1,,,,,,,,,None,500.3047278799999,None,500.3047278799999,None,,,,,,,495.1881506,497.9380268,497.6717865999999,None,0.03346256553071506,498.1880666000002,None,498.1880666000002,None,498.6213762000002,None,498.6213762000002,None,left,1.4743381999996927,498.6213762000002,None,500.2050804999999,None,left,0.08262130000002799,500.2050804999999,None,500.2050804999999,None,-3.621595599031164,150.9387898257953,,6,001,2021_Apr_08_1326,AB_pic_singleT2,2021.1.2,60.00582056465512,
AB,lag4,4,3,7,0.06000000005000003,0.02,0.3,main,,,,,0,49,49,49,,,,,,,pokerchips.jpg,athleticsock.jpg,sausage.jpg,snowshoe.jpg,golfball.jpg,kiwi03.jpg,birthdaycandle.jpg,triangle.jpg,key07.jpg,cactus.jpg,birdfeeder.jpg,waterfall.jpg,raccoon.jpg,dromedary.jpg,wheelchair.jpg,eye.jpg,icecube02.jpg,,,,,0,0,9,,,,,.\resources\birthdaycandle.jpg,,,1,,,,,,,,,0,,,,,,,,,None,505.25401928000014,None,505.25401928000014,None,,,,,,,500.32176830000026,503.07113819999995,502.8044712000001,None,0.033178283501085884,503.3044417000001,None,503.3044417000001,None,503.85441330000003,None,503.85441330000003,None,right,1.1133503000000928,503.85441330000003,None,505.0376802999999,None,left,0.18596590000015567,505.0376802999999,None,505.0376802999999,None,-3.581352441496791,150.96852159627974,,6,001,2021_Apr_08_1326,AB_pic_singleT2,2021.1.2,60.00582056465512,
AB,lag3,3,4,7,0.06000000005000003,0.02,0.3,main,,,,,0,50,50,50,,,,,,,cheetah.jpg,lightswitch01.jpg,mummy.jpg,swing.jpg,mailbox02.jpg,safe.jpg,cross01.jpg,mrpotatohead.jpg,masquerademask01.jpg,bed.jpg,barrel01.jpg,whiteout.jpg,shower.jpg,dromedary.jpg,stool01.jpg,chimney.jpg,cruiseship.jpg,,,,,1,0,9,,,,,.\resources\cross01.jpg,,,1,,,,,,,,,0,,,,,,,,,None,509.8370655799999,None,509.8370655799999,None,,,,,,,505.27099339999995,508.02085609999995,507.7541873,None,0.03290518281619774,508.2541584999999,None,508.2541584999999,None,508.80413020000015,None,508.80413020000015,None,left,0.7877760000001217,508.80413020000015,None,509.6874157000002,None,left,0.1123990999999478,509.6874157000002,None,509.6874157000002,None,-3.5427182658503757,150.998911064904,,6,001,2021_Apr_08_1326,AB_pic_singleT2,2021.1.2,60.00582056465512,
AB,lag7,7,5,12,0.06000000005000003,0.02,0.3,main,,,,,0,51,51,51,,,,,,,cigar.jpg,foldingchair.jpg,mattress.jpg,cheetah.jpg,stubbywrench01a.jpg,saltshaker03a.jpg,surfboard.jpg,safe.jpg,hockeystick.jpg,marble.jpg,bench01.jpg,tortoise01.jpg,hotdogweiner.jpg,eyepatch.jpg,kiwi03.jpg,eye.jpg,urinal.jpg,,,,,0,0,14,,,,,.\resources\tortoise01.jpg,,,1,,,,,,,,,1,,,,,,,,,None,514.3367809800002,None,514.3367809800002,None,,,,,,,509.8540717000001,512.6039148999998,512.3372813999999,None,0.03264270313083002,512.8372300000001,None,512.8372300000001,None,513.6538286999998,None,513.6538286999998,None,right,0.4258331000000908,513.6538286999998,None,514.1704696000002,None,right,0.1411883000000671,514.1704696000002,None,514.1704696000002,None,-3.505612894444015,151.02995773016295,,6,001,2021_Apr_08_1326,AB_pic_singleT2,2021.1.2,60.00582056465512,
AB,lag1,1,5,6,0.06000000005000003,0.02,0.3,main,,,,,0,52,52,52,,,,,,,snowboard.jpg,bed.jpg,elbow.jpg,toad.jpg,honeybee.jpg,smokingpipe.jpg,fireplace.jpg,polarbear.jpg,fishskeleton.jpg,frisbee.jpg,hulahoop.jpg,mouse.jpg,mattress.jpg,slug.jpg,motorcycle.jpg,kneepad01c.jpg,totempole.jpg,,,,,0,1,8,,,,,.\resources\smokingpipe.jpg,,,1,,,,,,,,,1,,,,,,,,,None,519.2198609800002,None,519.2198609800002,None,,,,,,,514.3537869000002,517.1036305000002,516.8369776,None,0.03239031069785513,517.3369384000002,None,517.3369384000002,None,517.8369192999999,None,517.8369192999999,None,right,0.9787676000000829,517.8369192999999,None,518.9201962000002,None,left,0.27955540000039036,518.9201962000002,None,518.9201962000002,None,-3.4699600117083613,151.061660129782,,6,001,2021_Apr_08_1326,AB_pic_singleT2,2021.1.2,60.00582056465512,
AB,lag4,4,4,8,0.06000000005000003,0.02,0.3,main,,,,,0,53,53,53,,,,,,,bed.jpg,uprightpiano01.jpg,vacuumcleaner01.jpg,crab01.jpg,ironingboard01.jpg,africanelephant.jpg,crown.jpg,tiger02.jpg,humanskeleton.jpg,airhockeytable.jpg,magneticcompass.jpg,ladybug03.jpg,banjo.jpg,boxingglove01.jpg,tulip02.jpg,kite.jpg,scooter.jpg,,,,,1,0,10,,,,,.\resources\tiger02.jpg,,,0,,,,,,,,,0,,,,,,,,,None,525.8361202800002,None,525.8361202800002,None,,,,,,,519.2368446,521.9866861,521.7200647,None,0.032147497708260885,522.2200085,None,522.2200085,None,522.8199749999999,None,522.8199749999999,None,right,2.0199093999999604,522.8199749999999,None,524.9198227000002,None,left,0.8879781999999068,524.9198227000002,None,524.9198227000002,None,-3.6251109468782823,151.08532313140978,,6,001,2021_Apr_08_1326,AB_pic_singleT2,2021.1.2,60.00582056465512,
AB,lag6,6,5,11,0.06000000005000003,0.02,0.3,main,,,,,0,54,54,54,,,,,,,rollerblade.jpg,popcorn.jpg,cruiseship.jpg,volleyball.jpg,microphone01.jpg,leafrake.jpg,kneepad01c.jpg,cobra.jpg,hammerheadshark.jpg,bat.jpg,squid.jpg,tree.jpg,ladder.jpg,bowlingball.jpg,masquerademask01.jpg,spicerack.jpg,spiderweb.jpg,,,,,0,0,13,,,,,.\resources\squid.jpg,,,1,,,,,,,,,1,,,,,,,,,None,530.2858744800001,None,530.2858744800001,None,,,,,,,525.8531099000002,528.6033548999999,528.3367116,None,0.033169372141060936,528.8533499999999,None,528.8533499999999,None,529.6028944,None,529.6028944,None,right,0.4209808000000521,529.6028944,None,530.1028793999999,None,right,0.16093580000006114,530.1028793999999,None,530.1028793999999,None,-3.603609074687386,151.1141701851643,,6,001,2021_Apr_08_1326,AB_pic_singleT2,2021.1.2,60.00582056465512,
AB,lag2,2,4,6,0.06000000005000003,0.02,0.3,main,,,,,0,55,55,55,,,,,,,scooter.jpg,flag.jpg,tiger02.jpg,scorpion.jpg,calendar.jpg,uprightpiano01.jpg,apron.jpg,turnstile.jpg,bed.jpg,sink.jpg,arrow02.jpg,urinal.jpg,magneticcompass.jpg,raccoon.jpg,triangle.jpg,dormer.jpg,toolbox02.jpg,,,,,0,0,8,,,,,.\resources\uprightpiano01.jpg,,,1,,,,,,,,,1,,,,,,,,,None,534.8522815800002,None,534.8522815800002,None,,,,,,,530.3028534,533.0531056999998,532.7864602,None,0.033020751327906654,533.2860203,None,533.2860203,None,533.7864014000002,None,533.7864014000002,None,right,0.8534745000001749,533.7864014000002,None,534.7359375999999,None,right,0.08779760000015813,534.7359375999999,None,534.7359375999999,None,-3.572619522224421,151.1438469656304,,6,001,2021_Apr_08_1326,AB_pic_singleT2,2021.1.2,60.00582056465512,
AB,lag5,5,4,9,0.06000000005000003,0.02,0.3,main,,,,,0,56,56,56,,,,,,,pirateflag.jpg,mailbox02.jpg,fireplace.jpg,trumpet.jpg,fortunecookie.jpg,giraffe.jpg,tulip02.jpg,guitarcase.jpg,dormer.jpg,tent.jpg,crown.jpg,microphone01.jpg,flamingo.jpg,triangle.jpg,shower.jpg,holdfast.jpg,athleticsock.jpg,,,,,0,0,11,,,,,.\resources\dormer.jpg,,,1,,,,,,,,,0,,,,,,,,,None,539.6186809800001,None,539.6186809800001,None,,,,,,,534.8692658999998,537.6195155999999,537.3528655999999,None,0.032809234268543874,537.8524302000001,None,537.8524302000001,None,538.5190612000001,None,538.5190612000001,None,right,0.8167929999999615,538.5190612000001,None,539.4023545,None,left,0.1893390999998701,539.4023545,None,539.4023545,None,-3.542025906645582,151.17408807305705,,6,001,2021_Apr_08_1326,AB_pic_singleT2,2021.1.2,60.00582056465512,
AB,lag2,2,3,5,0.06000000005000003,0.02,0.3,main,,,,,0,57,57,57,,,,,,,spear02.jpg,ceilingfan01.jpg,jeans01.jpg,spiderweb.jpg,bed.jpg,shovel01.jpg,dolphin01.jpg,tire.jpg,coffeemaker.jpg,spicerack.jpg,volleyball.jpg,acousticguitar02.jpg,pingpongtable.jpg,bowlingball.jpg,microphone01.jpg,punchingbag.jpg,birdnest.jpg,,,,,0,0,7,,,,,.\resources\bed.jpg,,,1,,,,,,,,,1,,,,,,,,,None,543.95174258,None,543.95174258,None,,,,,,,539.6356599999999,542.3855389999999,542.1188510000002,None,0.032600297647463174,542.6188192,None,542.6188192,None,543.0687956000002,None,543.0687956000002,None,right,0.4829623000000538,543.0687956000002,None,543.6354314,None,right,0.2683343999997305,543.6354314,None,543.6354314,None,-3.5123495786864116,151.20487520137542,,6,001,2021_Apr_08_1326,AB_pic_singleT2,2021.1.2,60.00582056465512,
AB,lag6,6,5,11,0.06000000005000003,0.02,0.3,main,,,,,0,58,58,58,,,,,,,mouse.jpg,lightswitch01.jpg,magneticcompass.jpg,flag.jpg,turnstile.jpg,leafblower01.jpg,boat.jpg,jeep.jpg,christmaslights.jpg,knee.jpg,ipad02.jpg,jeans01.jpg,ladder.jpg,acorn.jpg,cat.jpg,fireplace.jpg,kneepad01c.jpg,,,,,0,1,13,,,,,.\resources\ipad02.jpg,,,1,,,,,,,,,1,,,,,,,,,space,548.6518703000002,None,548.6518703000002,None,,,,,,,543.9687450000001,546.7190826000001,546.4524426000003,None,0.03239739415334501,546.9519542000003,None,546.9519542000003,None,547.7185794000002,None,547.7185794000002,None,right,0.5933055000000422,547.7185794000002,None,548.4018753999999,None,left,0.17381579999982932,548.4018753999999,None,548.4018753999999,None,-3.483584218265121,151.23620378936772,18.15581239999983,6,001,2021_Apr_08_1326,AB_pic_singleT2,2021.1.2,60.00582056465512,
AB,lag7,7,4,11,0.06000000005000003,0.02,0.3,main,,,,,0,59,59,59,,,,,,,beerbottle.jpg,basketball01.jpg,toilet.jpg,jeep.jpg,tulip02.jpg,coffeemaker.jpg,daddylonglegs.jpg,accordion01.jpg,pingpongtable.jpg,treadmill.jpg,fingerprint.jpg,hockeypuck.jpg,athleticsock.jpg,sheep.jpg,bluecheese.jpg,knee.jpg,dreamcatcher.jpg,,,,,0,0,13,,,,,.\resources\fingerprint.jpg,,,1,,,,,,,,,1,,,,,,,,,None,574.3671733800002,None,574.3671733800002,None,,,,,,,566.8512727000002,569.6007070999999,569.3339991000003,None,0.03220048148105775,569.8506585999999,None,569.8506585999999,None,570.5839544,None,570.5839544,None,right,3.3757453000002897,570.5839544,None,574.0508743,None,right,0.27687639999976454,574.0508743,None,574.0508743,None,-3.455695918351158,151.26806992321445,,6,001,2021_Apr_08_1326,AB_pic_singleT2,2021.1.2,60.00582056465512,
AB,lag5,5,3,8,0.06000000005000003,0.02,0.3,main,,,,,0,60,60,60,,,,,,,turnstile.jpg,pooltable.jpg,cow.jpg,peacock.jpg,hand01b.jpg,skateboard.jpg,butterfly.jpg,dromedary.jpg,ladder.jpg,floorlamp.jpg,hotdogweiner.jpg,trophy01.jpg,telescope.jpg,toucan.jpg,tricycle.jpg,wheelbarrow01.jpg,pokerchips.jpg,,,,,0,1,10,,,,,.\resources\dromedary.jpg,,,1,,,,,,,,,1,,,,,,,,,None,579.0669044800002,None,579.0669044800002,None,,,,,,,574.3841954,577.1335784000003,576.8669276,None,0.03200933469917943,577.3835684999999,None,577.3835684999999,None,577.9668624999999,None,577.9668624999999,None,right,0.7530095999995865,577.9668624999999,None,578.8168191,None,left,0.21489169999995283,578.8168191,None,578.8168191,None,-3.42865071544409,151.3004696068542,,6,001,2021_Apr_08_1326,AB_pic_singleT2,2021.1.2,60.00582056465512,
AB,lag3,3,5,8,0.06000000005000003,0.02,0.3,main,,,,,0,61,61,61,,,,,,,bench01.jpg,uprightpiano01.jpg,pirateflag.jpg,waterfall.jpg,sandcastle.jpg,corn02.jpg,windshieldwiper02.jpg,triangle.jpg,stubbywrench01a.jpg,rollerblade.jpg,showerhead01.jpg,stool01.jpg,escalator.jpg,sheep.jpg,golfball.jpg,frisbee.jpg,spicerack.jpg,,,,,0,0,10,,,,,.\resources\triangle.jpg,,,0,,,,,,,,,1,,,,,,,,,None,583.9328246800001,None,583.9328246800001,None,,,,,,,579.0839025,581.8333087000001,581.5666612,None,0.031823728565253936,582.0832937999999,None,582.0832937999999,None,582.6666017000002,None,582.6666017000002,None,left,0.9572788000000401,582.6666017000002,None,583.7164840999999,None,right,0.19530219999978726,583.7164840999999,None,583.7164840999999,None,-3.552875236056041,151.3263392484159,,6,001,2021_Apr_08_1326,AB_pic_singleT2,2021.1.2,60.00582056465512,
AB,lag4,4,5,9,0.06000000005000003,0.02,0.3,main,,,,,0,62,62,62,,,,,,,parachute.jpg,cupcake.jpg,tiger02.jpg,helicopter.jpg,ostrich.jpg,fingerprint.jpg,africanelephant.jpg,dormer.jpg,tricycle.jpg,mummy.jpg,dragonfly01.jpg,holdfast.jpg,volleyball.jpg,lighthouse.jpg,leafblower01.jpg,footballhelmet.jpg,birdnest.jpg,,,,,0,0,11,,,,,.\resources\tricycle.jpg,,,1,,,,,,,,,1,,,,,,,,,None,588.2825572800002,None,588.2825572800002,None,,,,,,,583.9502056000001,586.7000843000001,586.4334093000002,None,0.03263919302949526,586.9329694000003,None,586.9329694000003,None,587.5996,None,587.5996,None,right,0.4242114000003312,587.5996,None,588.0995648000003,None,right,0.16410799999994197,588.0995648000003,None,588.0995648000003,None,-3.534114878867625,151.35638005702168,,6,001,2021_Apr_08_1326,AB_pic_singleT2,2021.1.2,60.00582056465512,
AB,lag1,1,3,4,0.06000000005000003,0.02,0.3,main,,,,,0,63,63,63,,,,,,,hand01b.jpg,eye.jpg,foot.jpg,pig.jpg,dreamcatcher.jpg,dandelion.jpg,smokingpipe.jpg,nose.jpg,recyclingbin.jpg,cruiseship.jpg,microphone01.jpg,bow.jpg,ant.jpg,beaver.jpg,foldingchair.jpg,porcupine.jpg,spicerack.jpg,,,,,0,0,6,,,,,.\resources\pig.jpg,,,1,,,,,,,,,0,,,,,,,,,None,592.9989826800002,None,592.9989826800002,None,,,,,,,588.2995581999999,591.0498098000003,590.7831507000001,None,0.03250876664818365,591.2827216000001,None,591.2827216000001,None,591.6831237000001,None,591.6831237000001,None,right,1.0125866999997015,591.6831237000001,None,592.7659748000001,None,left,0.20187600000008388,592.7659748000001,None,592.7659748000001,None,-3.5097859662642925,151.38705239288066,,6,001,2021_Apr_08_1326,AB_pic_singleT2,2021.1.2,60.00582056465512,
AB,lag5,5,4,9,0.06000000005000003,0.02,0.3,main,,,,,0,64,64,64,,,,,,,nunchuk.jpg,chainsaw.jpg,fishingrod.jpg,leafblower01.jpg,footballhelmet.jpg,wheelbarrow01.jpg,bathtub.jpg,jellybean.jpg,birdhouse.jpg,floorlamp.jpg,cigar.jpg,greywolf.jpg,airhockeytable.jpg,telescope.jpg,golfball.jpg,penguin.jpg,fortunecookie.jpg,,,,,1,0,11,,,,,.\resources\birdhouse.jpg,,,0,,,,,,,,,0,,,,,,,,,None,598.16534318,None,598.16534318,None,,,,,,,593.0159567999999,595.7662246,595.4995548000002,None,0.03234147339547799,595.9991045000002,None,595.9991045000002,None,596.6490865999999,None,596.6490865999999,None,right,1.1986156000002666,596.6490865999999,None,597.9156787000002,None,left,0.2202447999998185,597.9156787000002,None,597.9156787000002,None,-3.6227612191923315,151.41172848701905,,6,001,2021_Apr_08_1326,AB_pic_singleT2,2021.1.2,60.00582056465512,
AB,lag4,4,3,7,0.06000000005000003,0.02,0.3,main,,,,,0,65,65,65,,,,,,,paperairplane.jpg,pooltable.jpg,spear02.jpg,athleticsock.jpg,snowshoe.jpg,handcuffs.jpg,chair.jpg,hotdogweiner.jpg,bowlingpin.jpg,safe.jpg,peacock.jpg,giraffe.jpg,mrpotatohead.jpg,sandcastle.jpg,holdfast.jpg,tree.jpg,recyclingbin.jpg,,,,,0,0,9,,,,,.\resources\chair.jpg,,,1,,,,,,,,,1,,,,,,,,,None,602.5484513800002,None,602.5484513800002,None,,,,,,,598.1823297999999,600.9321927000001,600.6660152,None,0.03308234857606597,601.1821801000001,None,601.1821801000001,None,601.7154811999999,None,601.7154811999999,None,right,0.6045263999999406,601.7154811999999,None,602.3987907000001,None,right,0.1209500999998454,602.3987907000001,None,602.3987907000001,None,-3.6046764462258243,151.4403388878886,,6,001,2021_Apr_08_1326,AB_pic_singleT2,2021.1.2,60.00582056465512,
AB,lag7,7,3,10,0.06000000005000003,0.02,0.3,main,,,,,0,66,66,66,,,,,,,seagull.jpg,ironingboard01.jpg,soccerball.jpg,dormer.jpg,calendar.jpg,foldingchair.jpg,floorlamp.jpg,snowboard.jpg,granolabar01.jpg,saltshaker03a.jpg,flamingo.jpg,lip.jpg,snowshovel.jpg,snowman.jpg,toilet.jpg,spicerack.jpg,acousticguitar02.jpg,,,,,1,0,12,,,,,.\resources\saltshaker03a.jpg,,,1,,,,,,,,,1,,,,,,,,,None,607.5315504800001,None,607.5315504800001,None,,,,,,,602.5654343000001,605.3153090999999,605.0486525000001,None,0.03295668012893536,605.5486211000002,None,605.5486211000002,None,606.2652556000003,None,606.2652556000003,None,left,0.9825553000000582,606.2652556000003,None,607.3318609000003,None,right,0.16385700000000725,607.3318609000003,None,607.3318609000003,None,-3.582323279279803,151.46950051382072,,6,001,2021_Apr_08_1326,AB_pic_singleT2,2021.1.2,60.00582056465512,
AB,lag2,2,3,5,0.06000000005000003,0.02,0.3,main,,,,,0,67,67,67,,,,,,,crosscountryski.jpg,floorlamp.jpg,frisbee.jpg,squirrel.jpg,cruiseship.jpg,cross01.jpg,horse.jpg,elbow.jpg,lightswitch01.jpg,flag.jpg,marble.jpg,greathornowl.jpg,cork02.jpg,honeybee.jpg,pig.jpg,dromedary.jpg,moose.jpg,,,,,0,1,7,,,,,.\resources\cruiseship.jpg,,,1,,,,,,,,,1,,,,,,,,,None,612.1816511800002,None,612.1816511800002,None,,,,,,,607.5485361000001,610.2983601999999,610.0317014000002,None,0.03280275978692051,610.5483396,None,610.5483396,None,610.9816599000001,None,610.9816599000001,None,right,0.7621979000000465,610.9816599000001,None,611.8315791999999,None,left,0.3123110000001361,611.8315791999999,None,611.8315791999999,None,-3.560298002687781,151.49908451306234,,6,001,2021_Apr_08_1326,AB_pic_singleT2,2021.1.2,60.00582056465512,
AB,lag6,6,4,10,0.06000000005000003,0.02,0.3,main,,,,,0,68,68,68,,,,,,,volleyball.jpg,kangaroo.jpg,ducttape.jpg,kiwi03.jpg,lawnmower.jpg,bowtie.jpg,badmintonracket.jpg,ant.jpg,hotdogweiner.jpg,apron.jpg,marble.jpg,jeans01.jpg,lollipop04.jpg,moose.jpg,leafrake.jpg,microphone01.jpg,saxophone.jpg,,,,,0,0,12,,,,,.\resources\apron.jpg,,,1,,,,,,,,,1,,,,,,,,,None,616.5309743800003,None,616.5309743800003,None,,,,,,,612.1986311999999,614.9480624000003,614.6814097000001,None,0.032650971982482006,615.1980493000001,None,615.1980493000001,None,615.8980081,None,615.8980081,None,right,0.38968160000013086,615.8980081,None,616.3646532000002,None,right,0.12328290000004927,616.3646532000002,None,616.3646532000002,None,-3.5387492031462267,151.52908169135551,,6,001,2021_Apr_08_1326,AB_pic_singleT2,2021.1.2,60.00582056465512,
AB,lag1,1,4,5,0.06000000005000003,0.02,0.3,main,,,,,0,69,69,69,,,,,,,foosballtable.jpg,anchor.jpg,smokingpipe.jpg,musicsheet.jpg,fishskeleton.jpg,floorlamp.jpg,englishcucumber.jpg,bumpercar.jpg,swordfish.jpg,moon.jpg,tricycle.jpg,witchhat.jpg,chefshat.jpg,shovel01.jpg,telescope.jpg,nosmokingsign.jpg,jellyfish.jpg,,,,,1,1,7,,,,,.\resources\fishskeleton.jpg,,,0,,,,,,,,,1,,,,,,,,,None,623.58055358,None,623.58055358,None,,,,,,,616.5479713,619.2978238999999,619.0311910999999,None,0.03250229928996582,619.5477980999999,None,619.5477980999999,None,619.9811152000002,None,619.9811152000002,None,right,3.282631500000207,619.9811152000002,None,623.3475423999998,None,left,0.20441250000021682,623.3475423999998,None,623.3475423999998,None,-3.6389533532630063,151.55370508975443,,6,001,2021_Apr_08_1326,AB_pic_singleT2,2021.1.2,60.00582056465512,
AB,lag3,3,5,8,0.06000000005000003,0.02,0.3,main,,,,,0,70,70,70,,,,,,,windmill.jpg,parachute.jpg,scorpion.jpg,leafrake.jpg,waterfall.jpg,dolphin01.jpg,bluejay.jpg,golfball.jpg,skunk.jpg,donut.jpg,surfboard.jpg,pokerchips.jpg,tire.jpg,birthdaycandle.jpg,statue.jpg,toyanimal05.jpg,pumpkin.jpg,,,,,0,1,10,,,,,.\resources\golfball.jpg,,,1,,,,,,,,,1,,,,,,,,,None,628.3135979799999,None,628.3135979799999,None,,,,,,,623.5975161000001,626.3477364999999,626.0811122,None,0.033158197692407465,626.5977551999999,None,626.5977551999999,None,627.1973185000002,None,627.1973185000002,None,right,0.842439000000013,627.1973185000002,None,628.1306024,None,left,0.15714840000009644,628.1306024,None,628.1306024,None,-3.6223172281770264,151.58187696082504,,6,001,2021_Apr_08_1326,AB_pic_singleT2,2021.1.2,60.00582056465512,
AB,lag4,4,3,7,0.06000000005000003,0.02,0.3,main,,,,,0,71,71,71,,,,,,,vacuumcleaner01.jpg,callbell.jpg,snowshovel.jpg,paperairplane.jpg,holdfast.jpg,bluecheese.jpg,hotdogweiner.jpg,treadmill.jpg,squid.jpg,magneticcompass.jpg,panda.jpg,lollipop04.jpg,boxingglove01.jpg,wallclock.jpg,dreamcatcher.jpg,microphone01.jpg,urinal.jpg,,,,,0,1,9,,,,,.\resources\hotdogweiner.jpg,,,1,,,,,,,,,1,,,,,,,,,None,632.88002168,None,632.88002168,None,,,,,,,628.3305974,631.0808465,630.8141751000003,None,0.033042285065459025,631.3137418000001,None,631.3137418000001,None,631.8641094,None,631.8641094,None,right,0.6796128000000863,631.8641094,None,632.6136673999999,None,left,0.24210809999976846,632.6136673999999,None,632.6136673999999,None,-3.6025063049528017,151.61052406678107,,6,001,2021_Apr_08_1326,AB_pic_singleT2,2021.1.2,60.00582056465512,
AB,lag1,1,3,4,0.06000000005000003,0.02,0.3,main,,,,,0,72,72,72,,,,,,,mouse.jpg,apron.jpg,crosscountryski.jpg,firehydrant.jpg,masquerademask01.jpg,spiderweb.jpg,airhockeytable.jpg,bull.jpg,toucan.jpg,lightswitch01.jpg,volleyball.jpg,escalator.jpg,church.jpg,foldingchair.jpg,platypus.jpg,knee.jpg,lighthouse.jpg,,,,,1,0,6,,,,,.\resources\firehydrant.jpg,,,1,,,,,,,,,0,,,,,,,,,None,637.3963972800002,None,637.3963972800002,None,,,,,,,632.8969946000002,635.6472647999999,635.3806041000003,None,0.03290537181888004,635.8801570999999,None,635.8801570999999,None,636.2805410000001,None,636.2805410000001,None,left,0.8553321999997934,636.2805410000001,None,637.2300980999999,None,left,0.1217981999998301,637.2300980999999,None,637.2300980999999,None,-3.5829722559002533,151.63954742918787,,6,001,2021_Apr_08_1326,AB_pic_singleT2,2021.1.2,60.00582056465512,
AB,lag2,2,3,5,0.06000000005000003,0.02,0.3,main,,,,,0,73,73,73,,,,,,,foot.jpg,bat.jpg,urinal.jpg,windshieldwiper02.jpg,lawnmower.jpg,nunchuk.jpg,volleyball.jpg,calendar.jpg,dalmatian.jpg,knee.jpg,toyanimal05.jpg,jellyfish.jpg,foosballtable.jpg,surfboard.jpg,tree.jpg,dartboard.jpg,snowshovel.jpg,,,,,0,0,7,,,,,.\resources\lawnmower.jpg,,,1,,,,,,,,,1,,,,,,,,,None,642.0961284800001,None,642.0961284800001,None,,,,,,,637.4134038000002,640.1636315999999,639.8969768000002,None,0.03277025486600502,640.3965982,None,640.3965982,None,640.8469246,None,640.8469246,None,right,1.0008059000001595,640.8469246,None,641.9131781000001,None,right,0.1585957000002054,641.9131781000001,None,641.9131781000001,None,-3.5638084367918053,151.66893953907825,,6,001,2021_Apr_08_1326,AB_pic_singleT2,2021.1.2,60.00582056465512,
AB,lag5,5,5,10,0.06000000005000003,0.02,0.3,main,,,,,0,74,74,74,,,,,,,cork02.jpg,tortoise01.jpg,fishskeleton.jpg,coffeemaker.jpg,ipad02.jpg,bluecheese.jpg,ironingboard01.jpg,hockeystick.jpg,barrel01.jpg,jeep.jpg,sandcastle.jpg,spiderweb.jpg,guitarcase.jpg,rubikcube.jpg,recyclingbin.jpg,calendar.jpg,totempole.jpg,,,,,0,0,12,,,,,.\resources\jeep.jpg,,,1,,,,,,,,,1,,,,,,,,,None,646.77921608,None,646.77921608,None,,,,,,,642.1131375,644.8633639,644.5967123,None,0.03263755132036298,645.0962985000001,None,645.0962985000001,None,645.8133264000003,None,645.8133264000003,None,right,0.6265966999999364,645.8133264000003,None,646.5128852000003,None,right,0.24684280000019498,646.5128852000003,None,646.5128852000003,None,-3.545008747930097,151.69869584317567,,6,001,2021_Apr_08_1326,AB_pic_singleT2,2021.1.2,60.00582056465512,
AB,lag6,6,4,10,0.06000000005000003,0.02,0.3,main,,,,,0,75,75,75,,,,,,,cupcake.jpg,zipper.jpg,bowlingball.jpg,moon.jpg,lion.jpg,cocktailshrimp02.jpg,skateboard.jpg,bluejay.jpg,trophy01.jpg,leafrake.jpg,trumpet.jpg,drumstick.jpg,cat.jpg,greathornowl.jpg,snowman.jpg,windmill.jpg,cheetah.jpg,,,,,0,0,12,,,,,.\resources\leafrake.jpg,,,1,,,,,,,,,1,,,,,,,,,None,651.74565678,None,651.74565678,None,,,,,,,646.7962046000002,649.5465623,649.2799115000003,None,0.03250722151328124,649.7965598999999,None,649.7965598999999,None,650.4960732,None,650.4960732,None,right,1.015661800000089,650.4960732,None,651.5960207000003,None,right,0.1318143999997119,651.5960207000003,None,651.5960207000003,None,-3.5265644546970263,151.72881210152917,,6,001,2021_Apr_08_1326,AB_pic_singleT2,2021.1.2,60.00582056465512,
AB,lag7,7,3,10,0.06000000005000003,0.02,0.3,main,,,,,0,76,76,76,,,,,,,flag.jpg,windmill.jpg,stubbywrench01a.jpg,daddylonglegs.jpg,donut.jpg,microwave.jpg,dreamcatcher.jpg,horse.jpg,ear.jpg,statue.jpg,lip.jpg,hammerheadshark.jpg,banjo.jpg,hand01b.jpg,beaver.jpg,key07.jpg,waterfall.jpg,,,,,0,0,12,,,,,.\resources\statue.jpg,,,1,,,,,,,,,1,,,,,,,,,None,656.1787557800003,None,656.1787557800003,None,,,,,,,651.7626662000002,654.5125035000001,654.2458722000001,None,0.03237920832418752,654.7624919999998,None,654.7624919999998,None,655.4457873000001,None,655.4457873000001,None,right,0.48194469999998546,655.4457873000001,None,656.0124212999999,None,right,0.13943449999987934,656.0124212999999,None,656.0124212999999,None,-3.5084670274159344,151.75928428558382,,6,001,2021_Apr_08_1326,AB_pic_singleT2,2021.1.2,60.00582056465512,
AB,lag3,3,4,7,0.06000000005000003,0.02,0.3,main,,,,,0,77,77,77,,,,,,,foosballtable.jpg,squirrel.jpg,frisbee.jpg,football.jpg,fishingrod.jpg,badmintonracket.jpg,scooter.jpg,kiwi03.jpg,beaver.jpg,africanelephant.jpg,punchingbag.jpg,foldingchair.jpg,tricycle.jpg,surfboard.jpg,airhockeytable.jpg,dandelion.jpg,steeringwheel.jpg,,,,,1,1,9,,,,,.\resources\scooter.jpg,,,0,,,,,,,,,1,,,,,,,,,None,660.9289171800001,None,660.9289171800001,None,,,,,,,656.1957453,658.9456374000001,658.6789325,None,0.03225345593568272,659.1789036,None,659.1789036,None,659.7288883000001,None,659.7288883000001,None,right,0.8949130999999397,659.7288883000001,None,660.7121528000002,None,left,0.19168429999990622,660.7121528000002,None,660.7121528000002,None,-3.594872208193401,151.78510306572122,,6,001,2021_Apr_08_1326,AB_pic_singleT2,2021.1.2,60.00582056465512,
AB,lag4,4,4,8,0.06000000005000003,0.02,0.3,main,,,,,0,78,78,78,,,,,,,hockeypuck.jpg,bumpercar.jpg,rose.jpg,spear02.jpg,statue.jpg,waterfall.jpg,kiwi03.jpg,punchingbag.jpg,noparkingsign.jpg,africanelephant.jpg,tie02.jpg,jellybean.jpg,dandelion.jpg,knee.jpg,foot.jpg,cloud.jpg,electricguitar01.jpg,,,,,1,0,10,,,,,.\resources\punchingbag.jpg,,,1,,,,,,,,,1,,,,,,,,,None,666.2786063799999,None,666.2786063799999,None,,,,,,,660.9459344000002,663.6953496000001,663.4286692999999,None,0.032817229548254834,663.9453028000003,None,663.9453028000003,None,664.5286096,None,664.5286096,None,left,1.3672424999999748,664.5286096,None,665.9622964999999,None,right,0.30165579999993497,665.9622964999999,None,665.9622964999999,None,-3.5803448997992082,151.8139682082856,,6,001,2021_Apr_08_1326,AB_pic_singleT2,2021.1.2,60.00582056465512,
AB,lag5,5,3,8,0.06000000005000003,0.02,0.3,main,,,,,0,79,79,79,,,,,,,discoball.jpg,accordion01.jpg,electricguitar01.jpg,frenchfries.jpg,beerbottle.jpg,hand01b.jpg,callbell.jpg,funnel.jpg,zipper.jpg,eyepatch.jpg,snowshovel.jpg,athleticsock.jpg,bullet.jpg,vulture.jpg,stool01.jpg,leafblower01.jpg,makiroll.jpg,,,,,1,0,10,,,,,.\resources\funnel.jpg,,,1,,,,,,,,,1,,,,,,,,,None,671.1112238800001,None,671.1112238800001,None,,,,,,,666.2956386999999,669.0450473000001,668.7783640000002,None,0.03271529833213353,669.2950056,None,669.2950056,None,669.8783065000002,None,669.8783065000002,None,left,0.8895490999998401,669.8783065000002,None,670.8615783999999,None,right,0.2181974000000082,670.8615783999999,None,670.8615783999999,None,-3.563499168580377,151.8432344140382,,6,001,2021_Apr_08_1326,AB_pic_singleT2,2021.1.2,60.00582056465512,
AB,lag6,6,3,9,0.06000000005000003,0.02,0.3,main,,,,,0,80,80,80,,,,,,,nunchuk.jpg,christmastree.jpg,beerbottle.jpg,porcupine.jpg,armadillo.jpg,doghouse.jpg,cat.jpg,ducttape.jpg,table01.jpg,pig.jpg,horseshoe.jpg,cocktailshrimp02.jpg,xylophone.jpg,anchor.jpg,schoolbus.jpg,leafblower01.jpg,floorlamp.jpg,,,,,0,0,11,,,,,.\resources\table01.jpg,,,1,,,,,,,,,1,,,,,,,,,None,675.4776497800003,None,675.4776497800003,None,,,,,,,671.1282277,673.8780755000003,673.6114281999999,None,0.03259805119932726,674.1280612999999,None,674.1280612999999,None,674.7779930000002,None,674.7779930000002,None,right,0.4379862000000685,674.7779930000002,None,675.3279616,None,right,0.1277921000000788,675.3279616,None,675.3279616,None,-3.546872195711439,151.87282914600073,,6,001,2021_Apr_08_1326,AB_pic_singleT2,2021.1.2,60.00582056465512,
AB,lag3,3,5,8,0.06000000005000003,0.02,0.3,main,,,,,0,81,81,81,,,,,,,rooster.jpg,jeep.jpg,jellyfish.jpg,parkingmeter.jpg,mrpotatohead.jpg,corn02.jpg,footballhelmet.jpg,mouse.jpg,horseshoe.jpg,bowlingball.jpg,christmastree.jpg,shower.jpg,lighthouse.jpg,beaver.jpg,swordfish.jpg,foot.jpg,moon.jpg,,,,,0,0,10,,,,,.\resources\mouse.jpg,,,1,,,,,,,,,1,,,,,,,,,None,679.97738428,None,679.97738428,None,,,,,,,675.4946233000001,678.2444672000001,677.9778154999999,None,0.03248221939744667,678.4777862000001,None,678.4777862000001,None,679.0777464000003,None,679.0777464000003,None,right,0.6820487999998477,679.0777464000003,None,679.8277048999998,None,right,0.13200219999998808,679.8277048999998,None,679.8277048999998,None,-3.5305221696608773,151.90274678233104,,6,001,2021_Apr_08_1326,AB_pic_singleT2,2021.1.2,60.00582056465512,
AB,lag7,7,5,12,0.06000000005000003,0.02,0.3,main,,,,,0,82,82,82,,,,,,,beaver.jpg,golfball.jpg,dragonfly01.jpg,harmonica.jpg,hulahoop.jpg,ant.jpg,nose.jpg,magneticcompass.jpg,foot.jpg,frisbee.jpg,firehydrant.jpg,zipper.jpg,cow.jpg,sandcastle.jpg,hockeystick.jpg,peacock.jpg,daddylonglegs.jpg,,,,,0,1,14,,,,,.\resources\zipper.jpg,,,1,,,,,,,,,1,,,,,,,,,None,684.7437684800002,None,684.7437684800002,None,,,,,,,679.9943659999999,682.7442073000002,682.4775565999998,None,0.032368187112681496,682.9775319999999,None,682.9775319999999,None,683.7941547999999,None,683.7941547999999,None,right,0.6377417000003334,683.7941547999999,None,684.5274497,None,left,0.19232510000028924,684.5274497,None,684.5274497,None,-3.514444765448526,151.93298356887357,,6,001,2021_Apr_08_1326,AB_pic_singleT2,2021.1.2,60.00582056465512,
AB,lag1,1,3,4,0.06000000005000003,0.02,0.3,main,,,,,0,83,83,83,,,,,,,coffeemaker.jpg,christmastree.jpg,handcuffs.jpg,waterfall.jpg,paperairplane.jpg,waterfountain02.jpg,dromedary.jpg,giraffe.jpg,bowlingball.jpg,jellybean.jpg,beaver.jpg,floorlamp.jpg,cruiseship.jpg,barrel01.jpg,redfox.jpg,ostrich.jpg,skateboard.jpg,,,,,0,0,6,,,,,.\resources\waterfall.jpg,,,1,,,,,,,,,1,,,,,,,,,None,688.9268532800002,None,688.9268532800002,None,,,,,,,684.7607665,687.5106506000002,687.2439468000002,None,0.03225592633969987,687.7439265000003,None,687.7439265000003,None,688.1439003999999,None,688.1439003999999,None,right,0.5518569999999272,688.1439003999999,None,688.7772162000001,None,right,0.10257659999979296,688.7772162000001,None,688.7772162000001,None,-3.4986342539964808,151.96353596514243,,6,001,2021_Apr_08_1326,AB_pic_singleT2,2021.1.2,60.00582056465512,
AB,lag2,2,3,5,0.06000000005000003,0.02,0.3,main,,,,,0,84,84,84,,,,,,,giraffe.jpg,polarbear.jpg,mailbox02.jpg,firehydrant.jpg,cigar.jpg,windmill.jpg,well.jpg,snowshoe.jpg,trophy01.jpg,hockeypuck.jpg,bumpercar.jpg,lighthouse.jpg,doghouse.jpg,musicsheet.jpg,horseshoe.jpg,toolbox02.jpg,lollipop04.jpg,,,,,0,0,7,,,,,.\resources\cigar.jpg,,,1,,,,,,,,,1,,,,,,,,,None,693.2932696800003,None,693.2932696800003,None,,,,,,,688.9438613000002,691.693694,691.4270497000002,None,0.0321453997769365,691.9436873,None,691.9436873,None,692.3770001000003,None,692.3770001000003,None,right,0.5907248999997137,692.3770001000003,None,693.0602853,None,right,0.20362820000036663,693.0602853,None,693.0602853,None,-3.4830850326022884,151.99440058736403,,6,001,2021_Apr_08_1326,AB_pic_singleT2,2021.1.2,60.00582056465512,
AB,lag1,1,4,5,0.06000000005000003,0.02,0.3,main,,,,,0,85,85,85,,,,,,,granolabar01.jpg,whiteout.jpg,statue.jpg,parkingmeter.jpg,dreamcatcher.jpg,bat.jpg,sheep.jpg,microwave.jpg,tent.jpg,frisbee.jpg,snowshoe.jpg,birthdaycandle.jpg,ducttape.jpg,cheetah.jpg,christmaslights.jpg,steeringwheel.jpg,lighthouse.jpg,,,,,1,0,7,,,,,.\resources\dreamcatcher.jpg,,,1,,,,,,,,,1,,,,,,,,,None,698.46011138,None,698.46011138,None,,,,,,,693.3103123000001,696.0601415000001,695.7934964000001,None,0.0320365709190934,696.2934666000001,None,696.2934666000001,None,696.7434438,None,696.7434438,None,left,1.3123014000002513,696.7434438,None,698.1271514999999,None,right,0.28877330000022994,698.1271514999999,None,698.1271514999999,None,-3.4677916545550778,152.02557419294098,,6,001,2021_Apr_08_1326,AB_pic_singleT2,2021.1.2,60.00582056465512,
AB,lag5,5,4,9,0.06000000005000003,0.02,0.3,main,,,,,0,86,86,86,,,,,,,slug.jpg,dragonfly01.jpg,shower.jpg,bacon.jpg,firehydrant.jpg,swordfish.jpg,bowlingball.jpg,lily.jpg,xylophone.jpg,acorn.jpg,whiteout.jpg,squid.jpg,hockeypuck.jpg,cocktailshrimp02.jpg,badmintonracket.jpg,bench01.jpg,flamingo.jpg,,,,,1,0,11,,,,,.\resources\xylophone.jpg,,,0,,,,,,,,,1,,,,,,,,,None,703.10943598,None,703.10943598,None,,,,,,,698.4771123999999,701.2265114000002,700.9598993,None,0.031929404256118635,701.4598335999999,None,701.4598335999999,None,702.1097991000001,None,702.1097991000001,None,right,0.7459577999998146,702.1097991000001,None,702.9430917,None,right,0.1366993999999977,702.9430917,None,702.9430917,None,-3.542830479704079,152.05269661402178,,6,001,2021_Apr_08_1326,AB_pic_singleT2,2021.1.2,60.00582056465512,
AB,lag7,7,4,11,0.06000000005000003,0.02,0.3,main,,,,,0,87,87,87,,,,,,,parachute.jpg,lily.jpg,saxophone.jpg,fingerprint.jpg,cocktailshrimp02.jpg,rooster.jpg,vacuumcleaner01.jpg,tricycle.jpg,cashregister01.jpg,callbell.jpg,birdfeeder.jpg,squid.jpg,tortoise01.jpg,cactus.jpg,skunk.jpg,telescope.jpg,stubbywrench01a.jpg,,,,,0,0,13,,,,,.\resources\birdfeeder.jpg,,,1,,,,,,,,,1,,,,,,,,,None,707.4925231800003,None,707.4925231800003,None,,,,,,,703.1264156000002,705.8762704999999,705.6096043000002,None,0.03241721423288078,706.1095714000003,None,706.1095714000003,None,706.8762009000002,None,706.8762009000002,None,right,0.37965159999976095,706.8762009000002,None,707.3428385000002,None,right,0.12094900000010966,707.3428385000002,None,707.3428385000002,None,-3.53020242967204,152.08243788229595,,6,001,2021_Apr_08_1326,AB_pic_singleT2,2021.1.2,60.00582056465512,
AB,lag4,4,3,7,0.06000000005000003,0.02,0.3,main,,,,,0,88,88,88,,,,,,,acousticguitar02.jpg,bowlingball.jpg,ear.jpg,jellybean.jpg,ladybug03.jpg,escalator.jpg,tricycle.jpg,giraffe.jpg,cactus.jpg,frisbee.jpg,volleyball.jpg,surfboard.jpg,bowlingpin.jpg,leafrake.jpg,kiwi03.jpg,church.jpg,christmaslights.jpg,,,,,0,1,9,,,,,.\resources\tricycle.jpg,,,1,,,,,,,,,1,,,,,,,,,None,711.9593073800002,None,711.9593073800002,None,,,,,,,707.5095004,710.2593329000001,709.9926873,None,0.032327840474237056,710.5093280000001,None,710.5093280000001,None,711.0426046000002,None,711.0426046000002,None,right,0.6452552000000651,711.0426046000002,None,711.775893,None,left,0.1680756000000656,711.775893,None,711.775893,None,-3.5158232114777106,152.1125218370631,,6,001,2021_Apr_08_1326,AB_pic_singleT2,2021.1.2,60.00582056465512,
AB,lag6,6,4,10,0.06000000005000003,0.02,0.3,main,,,,,0,89,89,89,,,,,,,christmaslights.jpg,eyepatch.jpg,greywolf.jpg,surfboard.jpg,mattress.jpg,firehydrant.jpg,tank.jpg,ladybug03.jpg,ducttape.jpg,bacon.jpg,banjo.jpg,nosmokingsign.jpg,acousticguitar02.jpg,shovel01.jpg,corn02.jpg,worldmap.jpg,ironingboard01.jpg,,,,,1,0,12,,,,,.\resources\bacon.jpg,,,1,,,,,,,,,1,,,,,,,,,None,717.4919143800003,None,717.4919143800003,None,,,,,,,711.9763148000002,714.7257456000002,714.4590733,None,0.032226916715302076,714.9590424000003,None,714.9590424000003,None,715.6590061000002,None,715.6590061000002,None,left,1.4848847999996906,715.6590061000002,None,717.2422191,None,right,0.20570660000021235,717.2422191,None,717.2422191,None,-3.5016162485904974,152.1428940047085,,6,001,2021_Apr_08_1326,AB_pic_singleT2,2021.1.2,60.00582056465512,
AB,lag3,3,3,6,0.06000000005000003,0.02,0.3,main,,,,,0,90,90,90,,,,,,,spicerack.jpg,leafrake.jpg,tank.jpg,jellybean.jpg,bull.jpg,swing.jpg,saxophone.jpg,rose.jpg,badmintonracket.jpg,bumpercar.jpg,cactus.jpg,magneticcompass.jpg,ceilingfan01.jpg,motorcycle.jpg,crown.jpg,bowlingpin.jpg,bow.jpg,,,,,0,0,8,,,,,.\resources\swing.jpg,,,0,,,,,,,,,1,,,,,,,,,None,723.74151398,None,723.74151398,None,,,,,,,717.5088753,720.2587240000003,719.9920648000002,None,0.03212710420480839,720.4920375000002,None,720.4920375000002,None,720.9920115,None,720.9920115,None,left,2.4317361000003075,720.9920115,None,723.4918674,None,right,0.21192290000044522,723.4918674,None,723.4918674,None,-3.571468734888609,152.16946864029396,,6,001,2021_Apr_08_1326,AB_pic_singleT2,2021.1.2,60.00582056465512,
AB,lag2,2,3,5,0.06000000005000003,0.02,0.3,main,,,,,0,91,91,91,,,,,,,parrot01.jpg,pooltable.jpg,pumpkin.jpg,acorn.jpg,badmintonracket.jpg,bumpercar.jpg,well.jpg,greatwhiteshark.jpg,bow.jpg,icecube02.jpg,butterfly.jpg,cat.jpg,fridge.jpg,hulahoop.jpg,chair.jpg,kiwi03.jpg,moon.jpg,,,,,0,0,7,,,,,.\resources\badmintonracket.jpg,,,1,,,,,,,,,1,,,,,,,,,None,728.0912732800002,None,728.0912732800002,None,,,,,,,723.7585119999999,726.5083687000001,726.2417077,None,0.03258053760920935,726.7417126999999,None,726.7417126999999,None,727.1916589000002,None,727.1916589000002,None,right,0.7041830000002847,727.1916589000002,None,727.9749599000002,None,right,0.09676010000021051,727.9749599000002,None,727.9749599000002,None,-3.5595124247062033,152.19851440260138,,6,001,2021_Apr_08_1326,AB_pic_singleT2,2021.1.2,60.00582056465512,
AB,lag4,4,4,8,0.06000000005000003,0.02,0.3,main,,,,,0,92,92,92,,,,,,,baseballbat.jpg,peacock.jpg,showerhead01.jpg,xylophone.jpg,tarantula.jpg,badmintonracket.jpg,turnstile.jpg,giraffe.jpg,snowboard.jpg,mattress.jpg,dromedary.jpg,seal.jpg,slug.jpg,corn02.jpg,tent.jpg,mailbox02.jpg,polarbear.jpg,,,,,0,0,10,,,,,.\resources\giraffe.jpg,,,1,,,,,,,,,1,,,,,,,,,None,732.80768468,None,732.80768468,None,,,,,,,728.1082899000003,730.8585194000002,730.5918542,None,0.03249576255878067,731.1081002000001,None,731.1081002000001,None,731.6914030000003,None,731.6914030000003,None,right,0.5643694000000323,731.6914030000003,None,732.3414138000003,None,right,0.4424077000003308,732.3414138000003,None,732.3414138000003,None,-3.5460964447980867,152.22787624922046,,6,001,2021_Apr_08_1326,AB_pic_singleT2,2021.1.2,60.00582056465512,
AB,lag7,7,4,11,0.06000000005000003,0.02,0.3,main,,,,,0,93,93,93,,,,,,,treadmill.jpg,footballhelmet.jpg,ostrich.jpg,sandcastle.jpg,jeans01.jpg,boat.jpg,snowboard.jpg,anchor.jpg,dormer.jpg,ladybug03.jpg,leafrake.jpg,volleyball.jpg,football.jpg,cobra.jpg,chair.jpg,basketball01.jpg,bed.jpg,,,,,0,0,13,,,,,.\resources\leafrake.jpg,,,1,,,,,,,,,0,,,,,,,,,None,737.6740597800003,None,737.6740597800003,None,,,,,,,732.8246702000001,735.5749323,735.3082727999999,None,0.03240136384641466,735.8078346000002,None,735.8078346000002,None,736.5744650000001,None,736.5744650000001,None,right,0.7772667000003821,736.5744650000001,None,737.4410510000002,None,left,0.20668590000013864,737.4410510000002,None,737.4410510000002,None,-3.53283226804629,152.25750751205192,,6,001,2021_Apr_08_1326,AB_pic_singleT2,2021.1.2,60.00582056465512,
AB,lag1,1,5,6,0.06000000005000003,0.02,0.3,main,,,,,0,94,94,94,,,,,,,xylophone.jpg,tie02.jpg,surfboard.jpg,foot.jpg,turnstile.jpg,bowlingpin.jpg,polarbear.jpg,zipper.jpg,key07.jpg,dalmatian.jpg,pumpkin.jpg,windmill.jpg,frisbee.jpg,saltshaker03a.jpg,well.jpg,toolbox02.jpg,spicerack.jpg,,,,,1,1,8,,,,,.\resources\bowlingpin.jpg,,,1,,,,,,,,,0,,,,,,,,,None,742.80708658,None,742.80708658,None,,,,,,,737.6910496999999,740.4412771000002,740.1746022000002,None,0.032307941391834544,740.6742454999999,None,740.6742454999999,None,741.1741705,None,741.1741705,None,left,1.297733999999764,741.1741705,None,742.5407567000002,None,right,0.24297489999980826,742.5407567000002,None,742.5407567000002,None,-3.5197486691304847,152.287404195324,,6,001,2021_Apr_08_1326,AB_pic_singleT2,2021.1.2,60.00582056465512,
AB,lag5,5,4,9,0.06000000005000003,0.02,0.3,main,,,,,0,95,95,95,,,,,,,tie02.jpg,dolphin01.jpg,ipad02.jpg,hotdogweiner.jpg,beaver.jpg,armadillo.jpg,exitsign.jpg,sausage.jpg,bridge.jpg,acorn.jpg,dartboard.jpg,hand01b.jpg,birdnest.jpg,hulahoop.jpg,sandcastle.jpg,tent.jpg,christmaslights.jpg,,,,,0,1,11,,,,,.\resources\bridge.jpg,,,1,,,,,,,,,1,,,,,,,,,None,747.45684738,None,747.45684738,None,,,,,,,742.8240716,745.5743342999999,745.3077060999999,None,0.03221568491612004,745.8072611000002,None,745.8072611000002,None,746.4572208,None,746.4572208,None,right,0.6785520999997061,746.4572208,None,747.2071756,None,left,0.22470389999989493,747.2071756,None,747.2071756,None,-3.506843115391942,152.3175632772349,,6,001,2021_Apr_08_1326,AB_pic_singleT2,2021.1.2,60.00582056465512,
AB,lag2,2,5,7,0.06000000005000003,0.02,0.3,main,,,,,0,96,96,96,,,,,,,tie02.jpg,stubbywrench01a.jpg,nunchuk.jpg,ironingboard01.jpg,snowman.jpg,humanskeleton.jpg,dragonfly01.jpg,toilet.jpg,holdfast.jpg,cymbal.jpg,bumpercar.jpg,spicerack.jpg,dormer.jpg,chimney.jpg,ipad02.jpg,pooltable.jpg,cruiseship.jpg,,,,,1,0,9,,,,,.\resources\dragonfly01.jpg,,,1,,,,,,,,,1,,,,,,,,,None,752.10703328,None,752.10703328,None,,,,,,,747.4738315,750.2241672,749.9577057000001,None,0.03212457822480903,750.4741577999998,None,750.4741577999998,None,751.0069904000002,None,751.0069904000002,None,left,0.8009498000001258,751.0069904000002,None,751.8902751,None,right,0.19747000000006665,751.8902751,None,751.8902751,None,-3.4941125315996744,152.34798187666706,,6,001,2021_Apr_08_1326,AB_pic_singleT2,2021.1.2,60.00582056465512,
AB,lag6,6,3,9,0.06000000005000003,0.02,0.3,main,,,,,0,97,97,97,,,,,,,handcuffs.jpg,banjo.jpg,drumstick.jpg,saxophone.jpg,cross01.jpg,parkingmeter.jpg,grizzly.jpg,wheelbarrow01.jpg,acousticguitar02.jpg,mailbox02.jpg,toucan.jpg,bullet.jpg,swordfish.jpg,pig.jpg,lizard.jpg,hotdogweiner.jpg,lighthouse.jpg,,,,,0,0,11,,,,,.\resources\acousticguitar02.jpg,,,1,,,,,,,,,1,,,,,,,,,None,756.42301718,None,756.42301718,None,,,,,,,752.1240321999999,754.8734419000002,754.6067916000002,None,0.03203460152606738,755.1067661000002,None,755.1067661000002,None,755.7567466,None,755.7567466,None,right,0.4669997000000876,755.7567466,None,756.3066921,None,right,0.10123029999977007,756.3066921,None,756.3066921,None,-3.481553906349331,152.3786572278841,,6,001,2021_Apr_08_1326,AB_pic_singleT2,2021.1.2,60.00582056465512,
AB,lag3,3,3,6,0.06000000005000003,0.02,0.3,main,,,,,0,98,98,98,,,,,,,lawnmower.jpg,snowshoe.jpg,trampoline.jpg,eyepatch.jpg,parkfountain.jpg,windmill.jpg,hotdogweiner.jpg,sword01.jpg,helicopter.jpg,noparkingsign.jpg,eiffeltower.jpg,seal.jpg,ant.jpg,horseshoe.jpg,toyanimal05.jpg,porcupine.jpg,scorpion.jpg,,,,,0,0,8,,,,,.\resources\windmill.jpg,,,1,,,,,,,,,1,,,,,,,,,None,760.6394791800003,None,760.6394791800003,None,,,,,,,756.4400211000002,759.1898941,758.9232102999999,None,0.031945735420081146,759.4232092000002,None,759.4232092000002,None,759.9231567000002,None,759.9231567000002,None,right,0.4528408000001036,759.9231567000002,None,760.4897922,None,right,0.11002000000007683,760.4897922,None,760.4897922,None,-3.469164300523821,152.40958667182522,,6,001,2021_Apr_08_1326,AB_pic_singleT2,2021.1.2,60.00582056465512,
AB,lag1,1,3,4,0.06000000005000003,0.02,0.3,main,,,,,0,99,99,99,,,,,,,englishcucumber.jpg,crosscountryski.jpg,fishingrod.jpg,flag.jpg,donut.jpg,lawnmower.jpg,tortoise01.jpg,witchhat.jpg,moose.jpg,toad.jpg,bowlingpin.jpg,corn02.jpg,seagull.jpg,lightswitch01.jpg,shower.jpg,parachute.jpg,tent.jpg,,,,,0,0,6,,,,,.\resources\flag.jpg,,,1,,,,,,,,,0,,,,,,,,,None,765.0225327800003,None,765.0225327800003,None,,,,,,,760.6564628000001,763.4062913000002,763.1396411999999,None,0.03185796095687006,763.6396119000001,None,763.6396119000001,None,764.0229175,None,764.0229175,None,right,0.7049728000001778,764.0229175,None,764.8395476999999,None,left,0.1443598999999267,764.8395476999999,None,764.8395476999999,None,-3.45694084416669,152.44076764832434,,6,001,2021_Apr_08_1326,AB_pic_singleT2,2021.1.2,60.00582056465512,
AB,lag2,2,4,6,0.06000000005000003,0.02,0.3,main,,,,,0,100,100,100,,,,,,,swordfish.jpg,locker.jpg,lawnmower.jpg,pumpkin.jpg,volleyball.jpg,frenchfries.jpg,sheep.jpg,christmastree.jpg,scooter.jpg,leafblower01.jpg,treadmill.jpg,porcupine.jpg,knee.jpg,butterfly.jpg,kite.jpg,floorlamp.jpg,horseshoe.jpg,,,,,0,0,8,,,,,.\resources\frenchfries.jpg,,,1,,,,,,,,,1,,,,,,,,,None,769.2723152799999,None,769.2723152799999,None,,,,,,,765.0395288,767.7893767999999,767.5227220000002,None,0.03177125961776681,768.0226969,None,768.0226969,None,768.5226692000001,None,768.5226692000001,None,right,0.5332513999996991,768.5226692000001,None,769.1392977,None,right,0.10852520000025834,769.1392977,None,769.1392977,None,-3.4448807333784797,152.47219768889437,,6,001,2021_Apr_08_1326,AB_pic_singleT2,2021.1.2,60.00582056465512,
AB,lag3,3,5,8,0.06000000005000003,0.02,0.3,main,,,,,0,101,101,101,,,,,,,jellyfish.jpg,bowtie.jpg,escalator.jpg,cupcake.jpg,honeybee.jpg,cashregister01.jpg,toucan.jpg,jeep.jpg,makiroll.jpg,tortoise01.jpg,licenseplate.jpg,shower.jpg,crown.jpg,leafblower01.jpg,scorpion.jpg,penguin.jpg,skateboard.jpg,,,,,0,1,10,,,,,.\resources\jeep.jpg,,,1,,,,,,,,,1,,,,,,,,,None,773.8220421800002,None,773.8220421800002,None,,,,,,,769.2892913999999,772.0391389000001,771.7724754999999,None,0.0316856132968972,772.2891193,None,772.2891193,None,772.8724191000001,None,772.8724191000001,None,right,0.607461599999624,772.8724191000001,None,773.5723779,None,left,0.21142729999974108,773.5723779,None,773.5723779,None,-3.432981227444635,152.50387441003355,,6,001,2021_Apr_08_1326,AB_pic_singleT2,2021.1.2,60.00582056465512,
AB,lag5,5,3,8,0.06000000005000003,0.02,0.3,main,,,,,0,102,102,102,,,,,,,beerbottle.jpg,ladder.jpg,vacuumcleaner01.jpg,bullet.jpg,nunchuk.jpg,volleyball.jpg,skunk.jpg,elbow.jpg,foldingchair.jpg,locker.jpg,vulture.jpg,tulip02.jpg,bench01.jpg,surfboard.jpg,doghouse.jpg,greatwhiteshark.jpg,parkfountain.jpg,,,,,1,0,10,,,,,.\resources\elbow.jpg,,,0,,,,,,,,,1,,,,,,,,,None,778.28845318,None,778.28845318,None,,,,,,,773.8390325999999,776.5888699000002,776.3222239000002,None,0.03160100428404234,776.8222254000002,None,776.8222254000002,None,777.4221613,None,777.4221613,None,right,0.48960269999997763,777.4221613,None,778.0054841000001,None,right,0.25828279999996084,778.0054841000001,None,778.0054841000001,None,-3.4935243754180907,152.53226884977957,,6,001,2021_Apr_08_1326,AB_pic_singleT2,2021.1.2,60.00582056465512,
AB,lag6,6,5,11,0.06000000005000003,0.02,0.3,main,,,,,0,103,103,103,,,,,,,greathornowl.jpg,snowshovel.jpg,parrot01.jpg,sheep.jpg,birdnest.jpg,boat.jpg,acorn.jpg,cross01.jpg,arrow02.jpg,tire.jpg,frenchfries.jpg,surfboard.jpg,magneticcompass.jpg,fireplace.jpg,skateboard.jpg,kneepad01c.jpg,golfball.jpg,,,,,1,0,13,,,,,.\resources\frenchfries.jpg,,,1,,,,,,,,,1,,,,,,,,,None,782.9881995800001,None,782.9881995800001,None,,,,,,,778.3054411000003,781.0553150000001,780.7886358999999,None,0.03199204190258154,781.2886079999998,None,781.2886079999998,None,782.0385698,None,782.0385698,None,left,0.6332221000002392,782.0385698,None,782.7385211999999,None,right,0.22130319999996573,782.7385211999999,None,782.7385211999999,None,-3.4833475624811667,152.56275662390112,,6,001,2021_Apr_08_1326,AB_pic_singleT2,2021.1.2,60.00582056465512,
AB,lag7,7,3,10,0.06000000005000003,0.02,0.3,main,,,,,0,104,104,104,,,,,,,lawnmower.jpg,kite.jpg,funnel.jpg,sheep.jpg,leafrake.jpg,motorcycle.jpg,christmaslights.jpg,worldmap.jpg,flag.jpg,bowtie.jpg,smokingpipe.jpg,boat.jpg,lightswitch01.jpg,knee.jpg,candycane01a.jpg,soccerball.jpg,mouse.jpg,,,,,0,0,12,,,,,.\resources\bowtie.jpg,,,0,,,,,,,,,1,,,,,,,,,None,787.6046064800003,None,787.6046064800003,None,,,,,,,783.0051764,785.7550515000003,785.4883674000002,None,0.03191894294100713,785.988343,None,785.988343,None,786.6882967000001,None,786.6882967000001,None,left,0.6876652999999351,786.6882967000001,None,787.4715888999999,None,right,0.11217859999987922,787.4715888999999,None,787.4715888999999,None,-3.541476861357268,152.59010362183096,,6,001,2021_Apr_08_1326,AB_pic_singleT2,2021.1.2,60.00582056465512,
