trialType,cndTyp,lag,T1_loc,T2_loc,stimLen,isi,skipProb,phase,trials.thisRepN,trials.thisTrialN,trials.thisN,trials.thisIndex,trials2.thisRepN,trials2.thisTrialN,trials2.thisN,trials2.thisIndex,key_resp_4.keys,key_resp_4.rt,key_resp_4.started,key_resp_4.stopped,textbox.started,textbox.stopped,img0,img1,img2,img3,img4,img5,img6,img7,img8,img9,img10,img11,img12,img13,img14,img15,img16,option1.started,option1.stopped,text_2.started,text_2.stopped,skip1,skip2,lastPresent,displayPicture.started,displayPicture.stopped,polygon_2.started,polygon_2.stopped,opt1_t1,polygon_4.started,polygon_4.stopped,cor1,option1_t1.started,option1_t1.stopped,key_resp.keys,key_resp.rt,key_resp.started,key_resp.stopped,polygon_5.started,polygon_5.stopped,cor2,key_resp_2.keys,key_resp_2.rt,key_resp_2.started,key_resp_2.stopped,textbox_2.started,textbox_2.stopped,textbox_3.started,textbox_3.stopped,key_resp_3.keys,key_resp_3.started,key_resp_3.stopped,textbox_6.started,textbox_6.stopped,key_resp_7.keys,key_resp_7.rt,key_resp_7.started,key_resp_7.stopped,textbox_4.started,textbox_4.stopped,option1_3.started,option1_3.stopped,text_7.started,text_7.stopped,curStimTim,displayPicture_4.started,displayPicture_4.stopped,polygon_16.started,polygon_16.stopped,polygon_7.started,polygon_7.stopped,option1_t1_2.started,option1_t1_2.stopped,key_resp_6.keys,key_resp_6.rt,key_resp_6.started,key_resp_6.stopped,polygon_17.started,polygon_17.stopped,key_resp_8.keys,key_resp_8.rt,key_resp_8.started,key_resp_8.stopped,textbox_5.started,textbox_5.stopped,B0,B1,key_resp_3.rt,participant,session,date,expName,psychopyVersion,frameRate,
,,,,,,,,,,,,,,,,,space,4.715506799999275,9.121712400000433,None,,,,,,,,,,,,,,,,,,,,,,,,,,,,,,,,,,,,,,,,,,,,,,,,,,,,,,,,,,,,,,,,,,,,,,,,,,,,,,,,,,,,,,,,,,,9,001,2021_Apr_08_1357,AB_pic_singleT2,2021.1.2,60.02044296306862,
AB,lag5,5,4,9,0.2,0.05,0.5,,0,0,0,11,,,,,,,,,9.121712400000433,None,airhockeytable.jpg,makiroll.jpg,banjo.jpg,smokingpipe.jpg,spear02.jpg,harmonica.jpg,snowshovel.jpg,ironingboard01.jpg,lollipop04.jpg,bowlingball.jpg,chefshat.jpg,tire.jpg,callbell.jpg,doghouse.jpg,moose.jpg,toolbox02.jpg,pumpkin.jpg,13.895290600000408,16.644644099999823,16.378000800000336,None,0,0,11,16.89463749999959,None,16.89463749999959,None,.\resources\lollipop04.jpg,19.894421599999987,None,1,19.894421599999987,None,right,2.7587731999992684,19.894421599999987,None,22.694604700000127,None,1,right,1.9985616999993,22.694604700000127,None,22.694604700000127,None,24.74444140000014,None,None,25.744365650000326,None,25.744365650000326,None,,,,,,,,,,,,,,,,,,,,,,,,,,,,,,,,,,,9,001,2021_Apr_08_1357,AB_pic_singleT2,2021.1.2,60.02044296306862,
AB,lag3,3,5,8,0.2,0.05,0.5,,0,1,1,10,,,,,,,,,,,car.jpg,kite.jpg,barrel01.jpg,lizard.jpg,dartboard.jpg,magneticcompass.jpg,giraffe.jpg,bullet.jpg,worldmap.jpg,kneepad01c.jpg,tank.jpg,drumset.jpg,parachute.jpg,ear.jpg,nose.jpg,bed.jpg,whiteout.jpg,25.761044400000173,28.51083159999962,28.22755099999995,None,1,1,10,28.74415549999958,None,28.74415549999958,None,.\resources\bullet.jpg,31.493541300000288,None,1,31.493541300000288,None,left,2.1915853999998944,31.493541300000288,None,33.726700000000164,None,1,left,1.6385107999994943,33.726700000000164,None,33.726700000000164,None,35.39322979999997,None,None,36.393221749999974,None,36.393221749999974,None,,,,,,,,,,,,,,,,,,,,,,,,,,,,,,,,,,,9,001,2021_Apr_08_1357,AB_pic_singleT2,2021.1.2,60.02044296306862,
AB,lag2,2,3,5,0.2,0.05,0.5,,0,2,2,4,,,,,,,,,,,guitarcase.jpg,tennisracket.jpg,flamingo.jpg,dormer.jpg,lighthouse.jpg,fridge.jpg,pooltable.jpg,hand01b.jpg,chair.jpg,doghouse.jpg,banjo.jpg,tortoise01.jpg,slug.jpg,mattress.jpg,chefshat.jpg,fortunecookie.jpg,paperairplane.jpg,36.409841900000174,39.16000890000032,38.876711400000204,None,1,0,7,39.393309600000066,None,39.393309600000066,None,.\resources\lighthouse.jpg,41.39280189999954,None,1,41.39280189999954,None,left,2.188467299999502,41.39280189999954,None,43.62597360000018,None,1,right,3.1631454999997004,43.62597360000018,None,43.62597360000018,None,46.809075699999994,None,None,47.8094149499997,None,47.8094149499997,None,,,,,,,,,,,,,,,,,,,,,,,,,,,,,,,,,,,9,001,2021_Apr_08_1357,AB_pic_singleT2,2021.1.2,60.02044296306862,
AB,lag1,1,4,5,0.2,0.05,0.5,,0,3,3,12,,,,,,,,,,,discoball.jpg,candycane01a.jpg,uprightpiano01.jpg,kiwi03.jpg,hockeystick.jpg,giraffe.jpg,tarantula.jpg,cupcake.jpg,jeep.jpg,hand01b.jpg,sandcastle.jpg,trumpet.jpg,lollipop04.jpg,ipad02.jpg,safe.jpg,cork02.jpg,pooltable.jpg,47.82605119999971,50.57585000000017,50.30920349999997,None,1,0,7,50.808791100000235,None,50.808791100000235,None,.\resources\hockeystick.jpg,52.825299400000404,None,1,52.825299400000404,None,left,1.8039297000004808,52.825299400000404,None,54.675172600000224,None,1,right,1.017942999999832,54.675172600000224,None,54.675172600000224,None,55.74177200000031,None,None,56.74168314999988,None,56.74168314999988,None,,,,,,,,,,,,,,,,,,,,,,,,,,,,,,,,,,,9,001,2021_Apr_08_1357,AB_pic_singleT2,2021.1.2,60.02044296306862,
AB,lag2,2,5,7,0.2,0.05,0.5,,0,4,4,9,,,,,,,,,,,bed.jpg,tricycle.jpg,toilet.jpg,trophy01.jpg,bullet.jpg,parkingmeter.jpg,armadillo.jpg,bench01.jpg,helicopter.jpg,granolabar01.jpg,bowtie.jpg,bat.jpg,panda.jpg,triangle.jpg,steeringwheel.jpg,lizard.jpg,grizzly.jpg,56.75835339999958,59.5081995999999,59.24162290000004,None,1,1,9,59.74154490000001,None,59.74154490000001,None,.\resources\armadillo.jpg,62.258008699999664,None,1,62.258008699999664,None,left,1.2751370999994833,62.258008699999664,None,63.59124619999966,None,1,left,1.0778898999997182,63.59124619999966,None,63.59124619999966,None,64.72492429999966,None,None,65.72483545000014,None,65.72483545000014,None,,,,,,,,,,,,,,,,,,,,,,,,,,,,,,,,,,,9,001,2021_Apr_08_1357,AB_pic_singleT2,2021.1.2,60.02044296306862,
AB,lag1,1,3,4,0.2,0.05,0.5,,0,5,5,3,,,,,,,,,,,pirateflag.jpg,football.jpg,pingpongtable.jpg,boat.jpg,parkfountain.jpg,sword01.jpg,parrot01.jpg,drumset.jpg,sink.jpg,waterfountain02.jpg,humanskeleton.jpg,jellybean.jpg,table01.jpg,mrpotatohead.jpg,cork02.jpg,dreamcatcher.jpg,parkingmeter.jpg,65.74150379999992,68.49088889999985,68.20759280000038,None,0,0,6,68.72420200000033,None,68.72420200000033,None,.\resources\boat.jpg,70.47406909999972,None,1,70.47406909999972,None,right,1.6031652000001486,70.47406909999972,None,72.12439069999982,None,1,right,0.784707900000285,72.12439069999982,None,72.12439069999982,None,72.95764990000043,None,None,73.9575950499997,None,73.9575950499997,None,,,,,,,,,,,,,,,,,,,,,,,,,,,,,,,,,,,9,001,2021_Apr_08_1357,AB_pic_singleT2,2021.1.2,60.02044296306862,
AB,lag5,5,4,9,0.2,0.05,0.5,,0,6,6,6,,,,,,,,,,,skippingrope.jpg,pingpongtable.jpg,swing.jpg,bench01.jpg,vacuumcleaner01.jpg,flamingo.jpg,microphone01.jpg,slug.jpg,cloud.jpg,sword01.jpg,toolbox02.jpg,hockeypuck.jpg,sandcastle.jpg,greatwhiteshark.jpg,badmintonracket.jpg,spiderweb.jpg,jeep.jpg,73.97392450000007,76.72361829999954,76.44030199999997,None,1,0,11,76.94026899999972,None,76.94026899999972,None,.\resources\cloud.jpg,79.95671969999967,None,1,79.95671969999967,None,left,1.1283462000001236,79.95671969999967,None,81.10659849999956,None,1,right,0.8186313999995036,81.10659849999956,None,81.10659849999956,None,81.97320299999956,None,None,82.97359894999991,None,82.97359894999991,None,,,,,,,,,,,,,,,,,,,,,,,,,,,,,,,,,,,9,001,2021_Apr_08_1357,AB_pic_singleT2,2021.1.2,60.02044296306862,
AB,lag7,7,4,11,0.2,0.05,0.5,,0,7,7,2,,,,,,,,,,,ant.jpg,dartboard.jpg,drumset.jpg,toilet.jpg,foot.jpg,parachute.jpg,stool01.jpg,cloud.jpg,boxingglove01.jpg,chefshat.jpg,skunk.jpg,candycane01a.jpg,lion.jpg,hand01b.jpg,bat.jpg,steeringwheel.jpg,toyanimal05.jpg,82.98980599999959,85.74000830000023,85.45670020000034,None,0,1,13,85.97333640000033,None,85.97333640000033,None,.\resources\skunk.jpg,89.47266390000004,None,1,89.47266390000004,None,right,1.1964098000007652,89.47266390000004,None,90.68924640000023,None,1,left,2.7958385000001726,90.68924640000023,None,90.68924640000023,None,93.50613429999976,None,None,94.50603964999974,None,94.50603964999974,None,,,,,,,,,,,,,,,,,,,,,,,,,,,,,,,,,,,9,001,2021_Apr_08_1357,AB_pic_singleT2,2021.1.2,60.02044296306862,
AB,lag3,3,3,6,0.2,0.05,0.5,,0,8,8,5,,,,,,,,,,,snowboard.jpg,ironingboard01.jpg,foldingchair.jpg,well.jpg,bathtub.jpg,fireplace.jpg,pokerchips.jpg,fortunecookie.jpg,bluejay.jpg,smokingpipe.jpg,mailbox02.jpg,acorn.jpg,cocktailshrimp02.jpg,cloud.jpg,tie02.jpg,toucan.jpg,cork02.jpg,94.5227117000004,97.27249610000035,96.98919690000002,None,1,1,8,97.48875109999972,None,97.48875109999972,None,.\resources\fireplace.jpg,99.75525319999997,None,1,99.75525319999997,None,left,1.5218616999991355,99.75525319999997,None,101.32181750000018,None,1,left,1.0753242999999202,101.32181750000018,None,101.32181750000018,None,102.42171609999968,None,None,103.42163614999973,None,103.42163614999973,None,,,,,,,,,,,,,,,,,,,,,,,,,,,,,,,,,,,9,001,2021_Apr_08_1357,AB_pic_singleT2,2021.1.2,60.02044296306862,
AB,lag6,6,5,11,0.2,0.05,0.5,,0,9,9,8,,,,,,,,,,,birdfeeder.jpg,elbow.jpg,hand01b.jpg,nunchuk.jpg,barrel01.jpg,seal.jpg,lion.jpg,fortunecookie.jpg,beerbottle.jpg,makiroll.jpg,airhockeytable.jpg,eiffeltower.jpg,hockeypuck.jpg,christmastree.jpg,punchingbag.jpg,telescope.jpg,locker.jpg,103.43831959999989,106.18814310000016,105.92155710000043,None,1,0,13,106.42148300000008,None,106.42148300000008,None,.\resources\airhockeytable.jpg,109.9378987,None,1,109.9378987,None,left,1.195136199999979,109.9378987,None,111.17109540000001,None,1,right,0.9459313999996084,111.17109540000001,None,111.17109540000001,None,112.13808040000004,None,None,113.1376152500001,None,113.1376152500001,None,,,,,,,,,,,,,,,,,,,,,,,,,,,,,,,,,,,9,001,2021_Apr_08_1357,AB_pic_singleT2,2021.1.2,60.02044296306862,
AB,lag7,7,5,12,0.2,0.05,0.5,,0,10,10,7,,,,,,,,,,,tortoise01.jpg,mouse.jpg,sledgehammer.jpg,horseshoe.jpg,totempole.jpg,scooter.jpg,snowboard.jpg,electricguitar01.jpg,lizard.jpg,flag.jpg,microphone01.jpg,christmastree.jpg,tennisracket.jpg,humanskeleton.jpg,arrow02.jpg,handcuffs.jpg,safe.jpg,113.13761419999992,115.88781699999981,115.6211688000003,None,1,1,14,116.1207303000001,None,116.1207303000001,None,.\resources\christmastree.jpg,119.88712159999977,None,1,119.88712159999977,None,left,1.2539107000002332,119.88712159999977,None,121.17035880000003,None,1,left,0.7946994000003542,121.17035880000003,None,121.17035880000003,None,122.00363670000024,None,None,123.00358234999968,None,123.00358234999968,None,,,,,,,,,,,,,,,,,,,,,,,,,,,,,,,,,,,9,001,2021_Apr_08_1357,AB_pic_singleT2,2021.1.2,60.02044296306862,
AB,lag4,4,4,8,0.2,0.05,0.5,,0,11,11,13,,,,,,,,,,,foot.jpg,birdnest.jpg,birdhouse.jpg,badmintonracket.jpg,ceilingfan01.jpg,tiger02.jpg,pig.jpg,hockeypuck.jpg,snowshoe.jpg,bull.jpg,frisbee.jpg,polarbear.jpg,dormer.jpg,alligator.jpg,duck01.jpg,doghouse.jpg,statue.jpg,123.02024280000023,125.7704219999996,125.4871936999998,None,1,0,10,126.00334469999962,None,126.00334469999962,None,.\resources\hockeypuck.jpg,128.75314909999997,None,1,128.75314909999997,None,left,1.2359212999999727,128.75314909999997,None,130.03639190000013,None,1,right,0.8166572999998607,130.03639190000013,None,130.03639190000013,None,130.88634459999957,None,None,131.88625914999957,None,131.88625914999957,None,,,,,,,,,,,,,,,,,,,,,,,,,,,,,,,,,,,9,001,2021_Apr_08_1357,AB_pic_singleT2,2021.1.2,60.02044296306862,
AB,lag4,4,3,7,0.2,0.05,0.5,,0,12,12,1,,,,,,,,,,,trumpet.jpg,car.jpg,pig.jpg,pumpkin.jpg,porcupine.jpg,holdfast.jpg,ostrich.jpg,parkingmeter.jpg,baseballbat.jpg,crab01.jpg,bridge.jpg,locker.jpg,lizard.jpg,helicopter.jpg,cannon.jpg,bacon.jpg,lollipop04.jpg,131.88624450000043,134.6364451999998,134.36980529999983,None,1,0,9,134.8693661999996,None,134.8693661999996,None,.\resources\ostrich.jpg,137.38584850000007,None,1,137.38584850000007,None,left,1.0991776999999274,137.38584850000007,None,138.51906979999967,None,1,right,0.8539935999997397,138.51906979999967,None,138.51906979999967,None,139.41901150000012,None,None,140.41896074999968,None,140.41896074999968,None,,,,,,,,,,,,,,,,,,,,,,,,,,,,,,,,,,,9,001,2021_Apr_08_1357,AB_pic_singleT2,2021.1.2,60.02044296306862,
AB,lag6,6,5,11,0.2,0.05,0.5,,0,13,13,0,,,,,,,,,,,discoball.jpg,church.jpg,jeep.jpg,scorpion.jpg,ostrich.jpg,daddylonglegs.jpg,recyclingbin.jpg,seagull.jpg,sledgehammer.jpg,crosscountryski.jpg,pumpkin.jpg,granolabar01.jpg,floorlamp.jpg,bluejay.jpg,spear02.jpg,toad.jpg,cannon.jpg,140.41893979999986,143.16911710000022,142.90250079999987,None,0,1,13,143.41911030000028,None,143.41911030000028,None,.\resources\pumpkin.jpg,146.91847940000025,None,1,146.91847940000025,None,right,1.3825275999997757,146.91847940000025,None,148.31836699999985,None,1,left,1.118711600000097,148.31836699999985,None,148.31836699999985,None,149.46827159999975,None,None,150.4682445499997,None,150.4682445499997,None,,,,,,,,,,,,,,,,,,,,,,,,,,,,,,,,,,,9,001,2021_Apr_08_1357,AB_pic_singleT2,2021.1.2,60.02044296306862,
,,,,,,,,,,,,,,,,,,,,,,,,,,,,,,,,,,,,,,,,,,,,,,,,,,,,,,,,,,,,,,,,,,,,,,,,,,,,,space,14.41537309999967,150.46820639999987,None,,,,,,,,,,,,,,,,,,,,,,,,,,,,,,,9,001,2021_Apr_08_1357,AB_pic_singleT2,2021.1.2,60.02044296306862,
AB,lag6,6,5,11,0.2,0.05,0.5,ramp,,,,,0,0,0,0,,,,,,,pirateflag.jpg,airhockeytable.jpg,toilet.jpg,tank.jpg,stool01.jpg,mailbox02.jpg,leafrake.jpg,uprightpiano01.jpg,parkingmeter.jpg,swordfish.jpg,moose.jpg,motorcycle.jpg,hotdogweiner.jpg,kite.jpg,swing.jpg,polarbear.jpg,key07.jpg,,,,,0,0,13,,,,,.\resources\moose.jpg,,,1,,,,,,,,,1,,,,,,,,,None,173.46701065000016,None,173.46701065000016,None,,,,,150.46820639999987,None,165.01767449999988,167.76705609999954,167.5003741999999,None,0.2,167.9336933000004,None,167.9336933000004,None,171.4500807000004,None,171.4500807000004,None,right,1.3309447999999975,171.4500807000004,None,172.8166428000004,None,right,0.6204907000001185,172.8166428000004,None,172.8166428000004,None,,,,9,001,2021_Apr_08_1357,AB_pic_singleT2,2021.1.2,60.02044296306862,
AB,lag4,4,4,8,0.19066666667,0.048,0.48,ramp,,,,,0,1,1,1,,,,,,,banjo.jpg,foosballtable.jpg,cat.jpg,marble.jpg,scorpion.jpg,wallclock.jpg,crab01.jpg,bullet.jpg,telescope.jpg,holdfast.jpg,flag.jpg,kangaroo.jpg,ceilingfan01.jpg,saxophone.jpg,cocktailshrimp02.jpg,smokingpipe.jpg,tiger02.jpg,,,,,0,1,10,,,,,.\resources\bullet.jpg,,,1,,,,,,,,,1,,,,,,,,,None,181.19973125000016,None,181.19973125000016,None,,,,,,,173.48369139999977,176.23304610000014,175.96640560000014,None,0.19066666667,176.48303870000018,None,176.48303870000018,None,179.11617680000018,None,179.11617680000018,None,right,1.1849501000006057,179.11617680000018,None,180.3660614999999,None,left,0.8069586999999956,180.3660614999999,None,180.3660614999999,None,-10.001360791690049,150.0000000424746,,9,001,2021_Apr_08_1357,AB_pic_singleT2,2021.1.2,60.02044296306862,
AB,lag7,7,4,11,0.18133333334,0.046,0.45999999999999996,ramp,,,,,0,2,2,2,,,,,,,snowboard.jpg,urinal.jpg,saltshaker03a.jpg,brownsugar.jpg,mailbox02.jpg,ant.jpg,totempole.jpg,toyanimal05.jpg,stool01.jpg,lizard.jpg,xylophone.jpg,fingerprint.jpg,bowtie.jpg,panda.jpg,surfboard.jpg,masquerademask01.jpg,beerbottle.jpg,,,,,1,1,13,,,,,.\resources\xylophone.jpg,,,1,,,,,,,,,1,,,,,,,,,None,189.4653948500003,None,189.4653948500003,None,,,,,,,181.21642640000027,183.96625310000036,183.69954919999964,None,0.18133333334,184.21578190000037,None,184.21578190000037,None,187.4155424999999,None,187.4155424999999,None,left,1.2535457999993014,187.4155424999999,None,188.74879239999973,None,left,0.6962163999996847,188.74879239999973,None,188.74879239999973,None,-10.002719446389834,150.00000013655824,,9,001,2021_Apr_08_1357,AB_pic_singleT2,2021.1.2,60.02044296306862,
AB,lag5,5,5,10,0.17200000001000001,0.044,0.43999999999999995,ramp,,,,,0,3,3,3,,,,,,,badmintonracket.jpg,punchingbag.jpg,acousticguitar02.jpg,xylophone.jpg,parkingmeter.jpg,parrot01.jpg,pokerchips.jpg,fingerprint.jpg,urinal.jpg,popcorn.jpg,marble.jpg,flag.jpg,trampoline.jpg,fridge.jpg,jellyfish.jpg,windmill.jpg,greywolf.jpg,,,,,1,1,12,,,,,.\resources\popcorn.jpg,,,1,,,,,,,,,1,,,,,,,,,None,197.44815785000029,None,197.44815785000029,None,,,,,,,189.4824711000001,192.23229660000015,191.96561310000016,None,0.17200000001000001,192.46518430000015,None,192.46518430000015,None,195.29830250000032,None,195.29830250000032,None,left,1.4586918000004516,195.29830250000032,None,196.83153459999994,None,left,0.5814400000008391,196.83153459999994,None,196.83153459999994,None,-10.004075333761547,150.00000038823157,,9,001,2021_Apr_08_1357,AB_pic_singleT2,2021.1.2,60.02044296306862,
AB,lag2,2,3,5,0.16266666668000002,0.041999999999999996,0.41999999999999993,ramp,,,,,0,4,4,4,,,,,,,horseshoe.jpg,dromedary.jpg,bowtie.jpg,frisbee.jpg,squirrel.jpg,beerbottle.jpg,magneticcompass.jpg,dartboard.jpg,electricguitar01.jpg,drumstick.jpg,banjo.jpg,tree.jpg,bench01.jpg,ironingboard01.jpg,pokerchips.jpg,waterfountain02.jpg,porcupine.jpg,,,,,0,0,7,,,,,.\resources\squirrel.jpg,,,1,,,,,,,,,1,,,,,,,,,None,203.9644015500002,None,203.9644015500002,None,,,,,,,197.46484979999968,200.21466260000034,199.94802100000015,None,0.16266666668000002,200.46466409999994,None,200.46466409999994,None,202.11453059999985,None,202.11453059999985,None,right,1.2504362999998193,202.11453059999985,None,203.43110890000025,None,right,0.4859273000001849,203.43110890000025,None,203.43110890000025,None,-10.005426297173447,150.0000011389316,,9,001,2021_Apr_08_1357,AB_pic_singleT2,2021.1.2,60.02044296306862,
AB,lag3,3,5,8,0.15333333335000002,0.039999999999999994,0.3999999999999999,ramp,,,,,0,5,5,5,,,,,,,giraffe.jpg,telescope.jpg,guitarcase.jpg,parkingmeter.jpg,cobra.jpg,mrpotatohead.jpg,cow.jpg,waterfall.jpg,bull.jpg,rose.jpg,ladybug03.jpg,cymbal.jpg,trophy01.jpg,leafblower01.jpg,football.jpg,redfox.jpg,fishskeleton.jpg,,,,,1,0,10,,,,,.\resources\waterfall.jpg,,,1,,,,,,,,,1,,,,,,,,,None,210.91386945000013,None,210.91386945000013,None,,,,,,,203.9815265999996,206.73086499999954,206.4642127999996,None,0.15333333335000002,206.98085319999973,None,206.98085319999973,None,209.11399270000038,None,209.11399270000038,None,left,1.1789555000004839,209.11399270000038,None,210.36390870000014,None,right,0.5130221999997957,210.36390870000014,None,210.36390870000014,None,-10.006764806001751,150.00000351094027,,9,001,2021_Apr_08_1357,AB_pic_singleT2,2021.1.2,60.02044296306862,
AB,lag1,1,4,5,0.14400000002000002,0.03799999999999999,0.3799999999999999,ramp,,,,,0,6,6,6,,,,,,,acorn.jpg,firehydrant.jpg,bowlingball.jpg,snowboard.jpg,foot.jpg,bed.jpg,skippingrope.jpg,bumpercar.jpg,athleticsock.jpg,tent.jpg,pigeon.jpg,sheep.jpg,dolphin01.jpg,hockeypuck.jpg,armadillo.jpg,raccoon.jpg,skunk.jpg,,,,,0,0,7,,,,,.\resources\foot.jpg,,,1,,,,,,,,,1,,,,,,,,,None,217.16386354999977,None,217.16386354999977,None,,,,,,,210.9305291999999,213.68033730000025,213.4136853,None,0.14400000002000002,213.91364609999982,None,213.91364609999982,None,215.39687070000036,None,215.39687070000036,None,right,1.2321130999998786,215.39687070000036,None,216.69678180000028,None,right,0.42026159999932133,216.69678180000028,None,216.69678180000028,None,-10.008064094004647,150.00001124737665,,9,001,2021_Apr_08_1357,AB_pic_singleT2,2021.1.2,60.02044296306862,
AB,lag6,6,5,11,0.13466666669000002,0.03599999999999999,0.3599999999999999,ramp,,,,,0,7,7,7,,,,,,,bullet.jpg,electrictoothbrush01c.jpg,mouse.jpg,bench01.jpg,rose.jpg,rubikcube.jpg,tire.jpg,dromedary.jpg,steeringwheel.jpg,jellybean.jpg,spiderweb.jpg,firehydrant.jpg,horseshoe.jpg,frisbee.jpg,tree.jpg,sink.jpg,africanelephant.jpg,,,,,1,1,13,,,,,.\resources\spiderweb.jpg,,,1,,,,,,,,,1,,,,,,,,,None,224.37997874999965,None,224.37997874999965,None,,,,,,,217.18050159999984,219.92987470000025,219.6632294000001,None,0.13466666669000002,220.1632313,None,220.1632313,None,222.57968340000025,None,222.57968340000025,None,left,1.161232800000107,222.57968340000025,None,223.79625730000043,None,left,0.5527733999997508,223.79625730000043,None,223.79625730000043,None,-10.009227634136485,150.00003695987715,,9,001,2021_Apr_08_1357,AB_pic_singleT2,2021.1.2,60.02044296306862,
AB,lag3,3,4,7,0.12533333336000002,0.03399999999999999,0.33999999999999986,ramp,,,,,0,8,8,8,,,,,,,telescope.jpg,locker.jpg,whiteout.jpg,cork02.jpg,honeybee.jpg,bumpercar.jpg,tank.jpg,cannon.jpg,snowman.jpg,mattress.jpg,bluejay.jpg,beaver.jpg,tulip02.jpg,well.jpg,volleyball.jpg,hammerheadshark.jpg,toad.jpg,,,,,0,0,9,,,,,.\resources\tank.jpg,,,1,,,,,,,,,1,,,,,,,,,None,230.4791226499996,None,230.4791226499996,None,,,,,,,224.3966601000002,227.1460205000003,226.87937650000003,None,0.12533333336000002,227.37934219999988,None,227.37934219999988,None,228.9958888000001,None,228.9958888000001,None,right,0.8011251999996603,228.9958888000001,None,229.8624909,None,right,0.5984442999997555,229.8624909,None,229.8624909,None,-10.009903325668345,150.00012340554508,,9,001,2021_Apr_08_1357,AB_pic_singleT2,2021.1.2,60.02044296306862,
AB,lag4,4,4,8,0.11600000003000002,0.03199999999999999,0.31999999999999984,ramp,,,,,0,9,9,9,,,,,,,foldingchair.jpg,barrel01.jpg,volleyball.jpg,jeep.jpg,rooster.jpg,firehydrant.jpg,fridge.jpg,nose.jpg,tortoise01.jpg,moon.jpg,cocktailshrimp02.jpg,birthdaycandle.jpg,lizard.jpg,honeybee.jpg,christmaslights.jpg,daddylonglegs.jpg,mouse.jpg,,,,,0,1,10,,,,,.\resources\nose.jpg,,,1,,,,,,,,,1,,,,,,,,,None,236.6952984499998,None,236.6952984499998,None,,,,,,,230.49578139999994,233.24558439999964,232.97892909999973,None,0.11600000003000002,233.49556409999968,None,233.49556409999968,None,235.1287758999997,None,235.1287758999997,None,right,1.0202447000001484,235.1287758999997,None,236.2286677000002,None,left,0.44821609999962675,236.2286677000002,None,236.2286677000002,None,-10.0087969897031,150.00041576432758,,9,001,2021_Apr_08_1357,AB_pic_singleT2,2021.1.2,60.02044296306862,
AB,lag5,5,4,9,0.10666666670000002,0.029999999999999985,0.2999999999999998,ramp,,,,,0,10,10,10,,,,,,,skippingrope.jpg,sink.jpg,windmill.jpg,toolbox02.jpg,microphone01.jpg,kiwi03.jpg,treadmill.jpg,mummy.jpg,spicerack.jpg,brownsugar.jpg,surfboard.jpg,ipad02.jpg,fishskeleton.jpg,hulahoop.jpg,handcuffs.jpg,whiteout.jpg,witchhat.jpg,,,,,0,0,11,,,,,.\resources\spicerack.jpg,,,1,,,,,,,,,1,,,,,,,,,None,242.9448218499996,None,242.9448218499996,None,,,,,,,236.7119687000004,239.46179550000033,239.17845370000032,None,0.10666666670000002,239.67846180000015,None,239.67846180000015,None,241.34496789999957,None,241.34496789999957,None,right,0.9159371999994619,241.34496789999957,None,242.3281949000002,None,right,0.5887321000000156,242.3281949000002,None,242.3281949000002,None,-10.001153334151129,150.00140318068046,,9,001,2021_Apr_08_1357,AB_pic_singleT2,2021.1.2,60.02044296306862,
AB,lag2,2,3,5,0.09733333337000002,0.027999999999999983,0.3,ramp,,,,,0,11,11,11,,,,,,,penguin.jpg,paperairplane.jpg,daddylonglegs.jpg,hockeystick.jpg,boxingglove01.jpg,squid.jpg,fridge.jpg,jeep.jpg,greatwhiteshark.jpg,pig.jpg,fireplace.jpg,turnstile.jpg,tank.jpg,locker.jpg,candycane01a.jpg,football.jpg,basketball01.jpg,,,,,0,0,7,,,,,.\resources\boxingglove01.jpg,,,1,,,,,,,,,1,,,,,,,,,None,248.22821005000006,None,248.22821005000006,None,,,,,,,242.96149049999985,245.7117618000002,245.44506920000003,None,0.09733333337000002,245.9446426000004,None,245.9446426000004,None,246.9778924000002,None,246.9778924000002,None,right,0.7790355999995882,246.9778924000002,None,247.82783039999958,None,right,0.3530885000000126,247.82783039999958,None,247.82783039999958,None,-9.969929362530102,150.00467706564078,,9,001,2021_Apr_08_1357,AB_pic_singleT2,2021.1.2,60.02044296306862,
AB,lag1,1,4,5,0.08800000004000003,0.02599999999999998,0.3,ramp,,,,,0,12,12,12,,,,,,,swordfish.jpg,tulip02.jpg,table01.jpg,hulahoop.jpg,tiger02.jpg,slug.jpg,parrot01.jpg,candycane01a.jpg,foosballtable.jpg,beerbottle.jpg,grizzly.jpg,cymbal.jpg,holdfast.jpg,dreamcatcher.jpg,soccerball.jpg,ipad02.jpg,uprightpiano01.jpg,,,,,0,0,7,,,,,.\resources\tiger02.jpg,,,1,,,,,,,,,1,,,,,,,,,None,253.61079705000012,None,253.61079705000012,None,,,,,,,248.2448999999997,250.99432239999987,250.72811920000004,None,0.08800000004000003,251.22763829999985,None,251.22763829999985,None,252.16089610000017,None,252.16089610000017,None,right,1.0440447999999378,252.16089610000017,None,253.2941539000003,None,right,0.2787813000004462,253.2941539000003,None,253.2941539000003,None,-9.860203419559875,150.01481140263897,,9,001,2021_Apr_08_1357,AB_pic_singleT2,2021.1.2,60.02044296306862,
AB,lag7,7,5,12,0.07866666671000003,0.02399999999999998,0.3,ramp,,,,,0,13,13,13,,,,,,,cork02.jpg,bull.jpg,birdhouse.jpg,doghouse.jpg,bowtie.jpg,fortunecookie.jpg,pingpongtable.jpg,athleticsock.jpg,dormer.jpg,mailbox02.jpg,witchhat.jpg,licenseplate.jpg,tire.jpg,ipad02.jpg,polarbear.jpg,scorpion.jpg,christmastree.jpg,,,,,1,0,14,,,,,.\resources\licenseplate.jpg,,,1,,,,,,,,,1,,,,,,,,,None,261.84398304999957,None,261.84398304999957,None,,,,,,,253.62746779999998,256.3772835,256.1106179999997,None,0.07866666671000003,256.61057600000004,None,256.61057600000004,None,258.1771324000001,None,258.1771324000001,None,left,3.043736099999478,258.1771324000001,None,261.2940146000001,None,right,0.5188643000001321,261.2940146000001,None,261.2940146000001,None,-9.545471510334263,150.0407565987997,,9,001,2021_Apr_08_1357,AB_pic_singleT2,2021.1.2,60.02044296306862,
AB,lag1,1,3,4,0.06933333338000003,0.021999999999999978,0.3,ramp,,,,,0,14,14,14,,,,,,,cross01.jpg,lily.jpg,cocktailshrimp02.jpg,tiger02.jpg,ladder.jpg,eiffeltower.jpg,peacock.jpg,waterfall.jpg,smokingpipe.jpg,frisbee.jpg,birthdaycandle.jpg,jellyfish.jpg,vacuumcleaner01.jpg,makiroll.jpg,honeybee.jpg,dartboard.jpg,lollipop04.jpg,,,,,1,1,6,,,,,.\resources\tiger02.jpg,,,1,,,,,,,,,1,,,,,,,,,None,267.4435803499995,None,267.4435803499995,None,,,,,,,261.8606559,264.61000390000027,264.34334899999976,None,0.06933333338000003,264.85998240000026,None,264.85998240000026,None,265.5099276000001,None,265.5099276000001,None,left,1.1910775000005742,265.5099276000001,None,266.7936271999997,None,left,0.6272758000004615,266.7936271999997,None,266.7936271999997,None,-8.899309494850606,150.0881144916348,,9,001,2021_Apr_08_1357,AB_pic_singleT2,2021.1.2,60.02044296306862,
AB,lag6,6,5,11,0.06000000005000003,0.02,0.3,main,,,,,0,15,15,15,,,,,,,ceilingfan01.jpg,rollerblade.jpg,kite.jpg,knee.jpg,parkfountain.jpg,magneticcompass.jpg,snowshoe.jpg,peacock.jpg,acorn.jpg,handcuffs.jpg,tortoise01.jpg,tent.jpg,tree.jpg,hammerheadshark.jpg,bat.jpg,butterfly.jpg,cow.jpg,,,,,1,0,13,,,,,.\resources\tortoise01.jpg,,,1,,,,,,,,,0,,,,,,,,,None,274.9429424499998,None,274.9429424499998,None,,,,,,,267.4602511000003,270.2095916999997,269.9429438999996,None,0.0685304355432073,270.45953980000013,None,270.45953980000013,None,271.70946319999985,None,271.70946319999985,None,left,2.5993704000002253,271.70946319999985,None,274.3596392999998,None,left,0.5652021999994759,274.3596392999998,None,274.3596392999998,None,-8.269196012479734,150.1331603653032,,9,001,2021_Apr_08_1357,AB_pic_singleT2,2021.1.2,60.02044296306862,
AB,lag1,1,5,6,0.06000000005000003,0.02,0.3,main,,,,,0,16,16,16,,,,,,,wheelbarrow01.jpg,giraffe.jpg,cashregister01.jpg,eyepatch.jpg,jeep.jpg,cobra.jpg,skunk.jpg,porcupine.jpg,safe.jpg,doghouse.jpg,tiger02.jpg,witchhat.jpg,lion.jpg,jackrabbit.jpg,brownsugar.jpg,smokingpipe.jpg,kiwi03.jpg,,,,,1,1,8,,,,,.\resources\cobra.jpg,,,1,,,,,,,,,1,,,,,,,,,None,280.17589284999974,None,280.17589284999974,None,,,,,,,274.95962789999976,277.70899199999985,277.4423706999996,None,0.06431284301286895,277.9589765999999,None,277.9589765999999,None,278.7255825000002,None,278.7255825000002,None,left,1.0713349999996353,278.7255825000002,None,279.8755408999996,None,left,0.27331839999988006,279.8755408999996,None,279.8755408999996,None,-7.665963707521319,150.17485493964236,,9,001,2021_Apr_08_1357,AB_pic_singleT2,2021.1.2,60.02044296306862,
AB,lag5,5,3,8,0.06000000005000003,0.02,0.3,main,,,,,0,17,17,17,,,,,,,microphone01.jpg,calendar.jpg,trumpet.jpg,scooter.jpg,bat.jpg,greathornowl.jpg,cactus.jpg,ant.jpg,uprightpiano01.jpg,icecube02.jpg,dandelion.jpg,bumpercar.jpg,badmintonracket.jpg,leafblower01.jpg,parkfountain.jpg,squirrel.jpg,waterfall.jpg,,,,,0,0,10,,,,,.\resources\ant.jpg,,,1,,,,,,,,,1,,,,,,,,,None,285.2584471499998,None,285.2584471499998,None,,,,,,,280.1921647999998,282.9423708000004,282.67570739999974,None,0.06027812094294651,283.1752722000001,None,283.1752722000001,None,284.0918627000001,None,284.0918627000001,None,right,0.8089834000002156,284.0918627000001,None,284.9751475000003,None,right,0.25384830000075453,284.9751475000003,None,284.9751475000003,None,-7.088834590764558,150.21336186874188,,9,001,2021_Apr_08_1357,AB_pic_singleT2,2021.1.2,60.02044296306862,
AB,lag3,3,4,7,0.06000000005000003,0.02,0.3,main,,,,,0,18,18,18,,,,,,,golfball.jpg,seal.jpg,handcuffs.jpg,well.jpg,cymbal.jpg,pigeon.jpg,ostrich.jpg,crab01.jpg,pig.jpg,fishskeleton.jpg,showerhead01.jpg,surfboard.jpg,badmintonracket.jpg,fingerprint.jpg,rollerblade.jpg,arrow02.jpg,ladder.jpg,,,,,0,0,9,,,,,.\resources\ostrich.jpg,,,1,,,,,,,,,1,,,,,,,,,None,290.1747581499998,None,290.1747581499998,None,,,,,,,285.27511289999984,288.0249018000004,287.74205600000005,None,0.05642060630591645,288.25822770000013,None,288.25822770000013,None,289.0415088999998,None,289.0415088999998,None,right,0.7794007000002239,289.0415088999998,None,289.89149110000017,None,right,0.26539560000037454,289.89149110000017,None,289.89149110000017,None,-6.538365079744742,150.24904494292093,,9,001,2021_Apr_08_1357,AB_pic_singleT2,2021.1.2,60.02044296306862,
AB,lag2,2,5,7,0.06000000005000003,0.02,0.3,main,,,,,0,19,19,19,,,,,,,hockeypuck.jpg,ducttape.jpg,masquerademask01.jpg,acorn.jpg,arrow02.jpg,bluejay.jpg,wallclock.jpg,hand01b.jpg,worldmap.jpg,nunchuk.jpg,electrictoothbrush01c.jpg,hotdogweiner.jpg,treadmill.jpg,sink.jpg,ladder.jpg,hulahoop.jpg,tarantula.jpg,,,,,0,1,9,,,,,.\resources\wallclock.jpg,,,1,,,,,,,,,1,,,,,,,,,None,295.8909891500001,None,295.8909891500001,None,,,,,,,290.1914235000004,292.94166589999986,292.6749781999997,None,0.05274349293784318,293.1745442000001,None,293.1745442000001,None,293.9244756999997,None,293.9244756999997,None,right,1.160381800000323,293.9244756999997,None,295.1410715000002,None,left,0.7198085999998511,295.1410715000002,None,295.1410715000002,None,-6.018421216637545,150.28231315625072,,9,001,2021_Apr_08_1357,AB_pic_singleT2,2021.1.2,60.02044296306862,
AB,lag4,4,3,7,0.06000000005000003,0.02,0.3,main,,,,,0,20,20,20,,,,,,,sheep.jpg,greatwhiteshark.jpg,paperairplane.jpg,smokingpipe.jpg,banjo.jpg,pumpkin.jpg,lily.jpg,dalmatian.jpg,electricguitar01.jpg,fingerprint.jpg,seagull.jpg,trumpet.jpg,hulahoop.jpg,microphone01.jpg,bumpercar.jpg,barrel01.jpg,birdfeeder.jpg,,,,,0,1,9,,,,,.\resources\lily.jpg,,,1,,,,,,,,,1,,,,,,,,,None,301.7244230499995,None,301.7244230499995,None,,,,,,,295.9076772999997,298.65754620000007,298.39087329999984,None,0.04927203622463972,298.8908462999998,None,298.8908462999998,None,299.6074544000003,None,299.6074544000003,None,right,1.3573745999992752,299.6074544000003,None,301.0411336999996,None,left,0.651719000000412,301.0411336999996,None,301.0411336999996,None,-5.536044089018904,150.31363181084777,,9,001,2021_Apr_08_1357,AB_pic_singleT2,2021.1.2,60.02044296306862,
AB,lag7,7,5,12,0.06000000005000003,0.02,0.3,main,,,,,0,21,21,21,,,,,,,volleyball.jpg,dromedary.jpg,penguin.jpg,magneticcompass.jpg,funnel.jpg,nosmokingsign.jpg,licenseplate.jpg,pooltable.jpg,ducttape.jpg,tire.jpg,parkingmeter.jpg,tiger02.jpg,knee.jpg,snowboard.jpg,waterfountain02.jpg,christmaslights.jpg,dandelion.jpg,,,,,0,1,14,,,,,.\resources\tiger02.jpg,,,1,,,,,,,,,1,,,,,,,,,None,307.52390555,None,307.52390555,None,,,,,,,301.74108929999966,304.4904435999997,304.2237949999999,None,0.046052632530692576,304.7237488999999,None,304.7237488999999,None,305.74032759999955,None,305.74032759999955,None,right,0.9764775000003283,305.74032759999955,None,306.8068780000003,None,left,0.7019892999996955,306.8068780000003,None,306.8068780000003,None,-5.100422208616391,150.3435458604873,,9,001,2021_Apr_08_1357,AB_pic_singleT2,2021.1.2,60.02044296306862,
AB,lag6,6,5,11,0.06000000005000003,0.02,0.3,main,,,,,0,22,22,22,,,,,,,noparkingsign.jpg,sword01.jpg,waterfountain02.jpg,curtain.jpg,tie02.jpg,greywolf.jpg,leafrake.jpg,slug.jpg,eye.jpg,sledgehammer.jpg,cigar.jpg,microphone01.jpg,jeep.jpg,birthdaycandle.jpg,paperairplane.jpg,cheetah.jpg,porcupine.jpg,,,,,0,0,13,,,,,.\resources\cigar.jpg,,,1,,,,,,,,,1,,,,,,,,,None,313.88968814999987,None,313.88968814999987,None,,,,,,,307.5405810000002,310.2899672000003,310.0233097,None,0.043145959692580955,310.5232718999996,None,310.5232718999996,None,311.43986719999975,None,311.43986719999975,None,right,1.9809392000006483,311.43986719999975,None,313.50639409999985,None,right,0.35438090000025113,313.50639409999985,None,313.50639409999985,None,-4.720449703200007,150.37268186346049,,9,001,2021_Apr_08_1357,AB_pic_singleT2,2021.1.2,60.02044296306862,
AB,lag7,7,5,12,0.06000000005000003,0.02,0.3,main,,,,,0,23,23,23,,,,,,,moose.jpg,sausage.jpg,elbow.jpg,boxingglove01.jpg,saxophone.jpg,foosballtable.jpg,jackrabbit.jpg,tortoise01.jpg,bullet.jpg,cannon.jpg,lip.jpg,kangaroo.jpg,ladybug03.jpg,hand01b.jpg,cigar.jpg,motorcycle.jpg,greatwhiteshark.jpg,,,,,1,0,14,,,,,.\resources\kangaroo.jpg,,,0,,,,,,,,,0,,,,,,,,,None,319.5892829500002,None,319.5892829500002,None,,,,,,,313.90637229999993,316.6566049000003,316.3899209000001,None,0.04061072788383775,316.8894803000003,None,316.8894803000003,None,317.82274249999955,None,317.82274249999955,None,right,1.0300892999994176,317.82274249999955,None,318.92266050000035,None,left,0.6501287999999477,318.92266050000035,None,318.92266050000035,None,-5.211657746765133,150.36577676246839,,9,001,2021_Apr_08_1357,AB_pic_singleT2,2021.1.2,60.02044296306862,
AB,lag5,5,3,8,0.06000000005000003,0.02,0.3,main,,,,,0,24,24,24,,,,,,,church.jpg,tortoise01.jpg,christmastree.jpg,cactus.jpg,magneticcompass.jpg,ear.jpg,baseballbat.jpg,lip.jpg,bowtie.jpg,fishingrod.jpg,peacock.jpg,wallclock.jpg,ironingboard01.jpg,trumpet.jpg,banjo.jpg,redfox.jpg,trophy01.jpg,,,,,0,0,10,,,,,.\resources\lip.jpg,,,1,,,,,,,,,1,,,,,,,,,None,324.5555852499996,None,324.5555852499996,None,,,,,,,319.6059597000003,322.35615080000025,322.08950319999985,None,0.043879347082466484,322.5890638999999,None,322.5890638999999,None,323.3223525000003,None,323.3223525000003,None,right,0.8425028000001475,323.3223525000003,None,324.2389396999997,None,right,0.2858490000007805,324.2389396999997,None,324.2389396999997,None,-5.232876557160388,150.37788427627535,,9,001,2021_Apr_08_1357,AB_pic_singleT2,2021.1.2,60.02044296306862,
AB,lag3,3,3,6,0.06000000005000003,0.02,0.3,main,,,,,0,25,25,25,,,,,,,bed.jpg,bridge.jpg,dalmatian.jpg,whiteout.jpg,icecube02.jpg,tie02.jpg,saxophone.jpg,fortunecookie.jpg,mattress.jpg,cruiseship.jpg,bacon.jpg,holdfast.jpg,apron.jpg,rose.jpg,lollipop04.jpg,footballhelmet.jpg,horse.jpg,,,,,0,0,8,,,,,.\resources\tie02.jpg,,,1,,,,,,,,,1,,,,,,,,,None,329.33857554999975,None,329.33857554999975,None,,,,,,,324.5722606999998,327.3224879999998,327.0558076999996,None,0.04401691744857568,327.55536889999985,None,327.55536889999985,None,328.1553250999996,None,328.1553250999996,None,right,0.8254591000004439,328.1553250999996,None,329.07192769999983,None,right,0.22096909999982017,329.07192769999983,None,329.07192769999983,None,-5.116166395017277,150.39616916811568,,9,001,2021_Apr_08_1357,AB_pic_singleT2,2021.1.2,60.02044296306862,
AB,lag2,2,3,5,0.06000000005000003,0.02,0.3,main,,,,,0,26,26,26,,,,,,,crab01.jpg,triangle.jpg,greywolf.jpg,daddylonglegs.jpg,greathornowl.jpg,cow.jpg,firehydrant.jpg,vacuumcleaner01.jpg,toilet.jpg,golfball.jpg,lighthouse.jpg,dreamcatcher.jpg,safe.jpg,volleyball.jpg,dromedary.jpg,humanskeleton.jpg,anchor.jpg,,,,,0,1,7,,,,,.\resources\greathornowl.jpg,,,1,,,,,,,,,1,,,,,,,,,None,334.4548685499998,None,334.4548685499998,None,,,,,,,329.3552374000001,332.10503849999986,331.8221665000001,None,0.043235547767633595,332.33835949999957,None,332.33835949999957,None,332.8549868,None,332.8549868,None,right,1.1178200000003926,332.8549868,None,334.0382274000003,None,left,0.3905523000003086,334.0382274000003,None,334.0382274000003,None,-4.972827836852318,150.41610165305602,,9,001,2021_Apr_08_1357,AB_pic_singleT2,2021.1.2,60.02044296306862,
AB,lag1,1,5,6,0.06000000005000003,0.02,0.3,main,,,,,0,27,27,27,,,,,,,tent.jpg,hammerheadshark.jpg,foosballtable.jpg,electricguitar01.jpg,tortoise01.jpg,skateboard.jpg,vulture.jpg,popcorn.jpg,smokingpipe.jpg,kangaroo.jpg,sheep.jpg,jeep.jpg,nose.jpg,sink.jpg,triangle.jpg,mouse.jpg,chimney.jpg,,,,,0,0,8,,,,,.\resources\skateboard.jpg,,,0,,,,,,,,,1,,,,,,,,,None,341.93768854999996,None,341.93768854999996,None,,,,,,,334.47157679999964,337.22177660000034,336.95508150000023,None,0.042276871479091475,337.45464639999955,None,337.45464639999955,None,338.0379402999997,None,338.0379402999997,None,left,3.2549053999991884,338.0379402999997,None,341.3543318000002,None,right,0.5545461000001524,341.3543318000002,None,341.3543318000002,None,-5.37057564922395,150.41227495200542,,9,001,2021_Apr_08_1357,AB_pic_singleT2,2021.1.2,60.02044296306862,
AB,lag4,4,5,9,0.06000000005000003,0.02,0.3,main,,,,,0,28,28,28,,,,,,,noparkingsign.jpg,ladybug03.jpg,helicopter.jpg,steeringwheel.jpg,mummy.jpg,bowlingball.jpg,rollerblade.jpg,handcuffs.jpg,acousticguitar02.jpg,bridge.jpg,hockeypuck.jpg,redfox.jpg,cupcake.jpg,slug.jpg,boxingglove01.jpg,dandelion.jpg,vulture.jpg,,,,,0,0,11,,,,,.\resources\acousticguitar02.jpg,,,1,,,,,,,,,1,,,,,,,,,None,346.98735245000023,None,346.98735245000023,None,,,,,,,341.95432400000027,344.7046188000004,344.4379845000003,None,0.04492233105642388,344.95461199999954,None,344.95461199999954,None,345.7374391000003,None,345.7374391000003,None,right,0.8834223999992901,345.7374391000003,None,346.7211553999996,None,right,0.24360559999968245,346.7211553999996,None,346.7211553999996,None,-5.345041287211717,150.4263146982065,,9,001,2021_Apr_08_1357,AB_pic_singleT2,2021.1.2,60.02044296306862,
AB,lag3,3,4,7,0.06000000005000003,0.02,0.3,main,,,,,0,29,29,29,,,,,,,stool01.jpg,tire.jpg,lollipop04.jpg,recyclingbin.jpg,dreamcatcher.jpg,mummy.jpg,ant.jpg,redfox.jpg,basketball01.jpg,horse.jpg,parkingmeter.jpg,dolphin01.jpg,waterfall.jpg,makiroll.jpg,motorcycle.jpg,well.jpg,hand01b.jpg,,,,,0,0,9,,,,,.\resources\ant.jpg,,,1,,,,,,,,,1,,,,,,,,,None,351.6536730499996,None,351.6536730499996,None,,,,,,,347.00445409999975,349.75381649999963,349.48718869999993,None,0.04474839167492989,350.00379350000003,None,350.00379350000003,None,350.6537447999999,None,350.6537447999999,None,right,0.7031447000008484,350.6537447999999,None,351.45368340000005,None,right,0.15913739999996324,351.45368340000005,None,351.45368340000005,None,-5.255774095467311,150.44339900457197,,9,001,2021_Apr_08_1357,AB_pic_singleT2,2021.1.2,60.02044296306862,
AB,lag1,1,4,5,0.06000000005000003,0.02,0.3,main,,,,,0,30,30,30,,,,,,,windshieldwiper02.jpg,ant.jpg,trophy01.jpg,pumpkin.jpg,church.jpg,bumpercar.jpg,tricycle.jpg,wheelchair.jpg,electricguitar01.jpg,foot.jpg,accordion01.jpg,waterfountain02.jpg,grizzly.jpg,tiger02.jpg,swing.jpg,makiroll.jpg,foosballtable.jpg,,,,,0,1,7,,,,,.\resources\church.jpg,,,0,,,,,,,,,0,,,,,,,,,None,357.37036595000006,None,357.37036595000006,None,,,,,,,351.67034280000007,354.42013599999973,354.1534916999999,None,0.04414994941975054,354.67012609999983,None,354.67012609999983,None,355.1867524999998,None,355.1867524999998,None,left,1.2100697999994736,355.1867524999998,None,356.48710370000026,None,right,0.8616468000000168,356.48710370000026,None,356.48710370000026,None,-5.566923111088672,150.44181575958578,,9,001,2021_Apr_08_1357,AB_pic_singleT2,2021.1.2,60.02044296306862,
AB,lag4,4,5,9,0.06000000005000003,0.02,0.3,main,,,,,0,31,31,31,,,,,,,saltshaker03a.jpg,funnel.jpg,chair.jpg,frisbee.jpg,dragonfly01.jpg,humanskeleton.jpg,platypus.jpg,volleyball.jpg,hammerheadshark.jpg,masquerademask01.jpg,horseshoe.jpg,pigeon.jpg,toyanimal05.jpg,trumpet.jpg,wheelchair.jpg,zipper.jpg,microphone01.jpg,,,,,1,0,11,,,,,.\resources\hammerheadshark.jpg,,,0,,,,,,,,,1,,,,,,,,,None,363.7865715499996,None,363.7865715499996,None,,,,,,,357.38703970000006,360.13642419999996,359.8530800999997,None,0.04621864896472788,360.36971600000015,None,360.36971600000015,None,361.16965450000043,None,361.16965450000043,None,right,2.2431313999995837,361.16965450000043,None,363.50325239999984,None,right,0.26151909999953205,363.50325239999984,None,363.50325239999984,None,-5.871231817092427,150.4379787107872,,9,001,2021_Apr_08_1357,AB_pic_singleT2,2021.1.2,60.02044296306862,
AB,lag6,6,3,9,0.06000000005000003,0.02,0.3,main,,,,,0,32,32,32,,,,,,,statue.jpg,microphone01.jpg,bowtie.jpg,electricguitar01.jpg,spear02.jpg,rubikcube.jpg,holdfast.jpg,mummy.jpg,punchingbag.jpg,lip.jpg,cactus.jpg,rollerblade.jpg,anchor.jpg,jellybean.jpg,fingerprint.jpg,bat.jpg,steeringwheel.jpg,,,,,0,0,11,,,,,.\resources\punchingbag.jpg,,,1,,,,,,,,,1,,,,,,,,,None,368.6691060500001,None,368.6691060500001,None,,,,,,,363.8032568999997,366.55259599999954,366.26928210000005,None,0.048242646174904466,366.7692374999997,None,366.7692374999997,None,367.61919409999973,None,367.61919409999973,None,right,0.737532299999657,367.61919409999973,None,368.4357958999999,None,right,0.20891240000037214,368.4357958999999,None,368.4357958999999,None,-5.830936083390383,150.44981686207942,,9,001,2021_Apr_08_1357,AB_pic_singleT2,2021.1.2,60.02044296306862,
AB,lag2,2,3,5,0.06000000005000003,0.02,0.3,main,,,,,0,33,33,33,,,,,,,chefshat.jpg,floorlamp.jpg,swordfish.jpg,skunk.jpg,leafblower01.jpg,horse.jpg,bowlingball.jpg,lip.jpg,nosmokingsign.jpg,totempole.jpg,mummy.jpg,tortoise01.jpg,bed.jpg,barrel01.jpg,drumset.jpg,bullet.jpg,cactus.jpg,,,,,0,1,7,,,,,.\resources\leafblower01.jpg,,,1,,,,,,,,,1,,,,,,,,,None,373.7853937499998,None,373.7853937499998,None,,,,,,,368.68578030000026,371.43557039999996,371.1689263999997,None,0.04797101515335485,371.6688852999996,None,371.6688852999996,None,372.2355170999999,None,372.2355170999999,None,right,1.0572068999999829,372.2355170999999,None,373.36876740000025,None,left,0.39600659999996424,373.36876740000025,None,373.36876740000025,None,-5.769664182685081,150.4630822997151,,9,001,2021_Apr_08_1357,AB_pic_singleT2,2021.1.2,60.02044296306862,
AB,lag5,5,4,9,0.06000000005000003,0.02,0.3,main,,,,,0,34,34,34,,,,,,,vacuumcleaner01.jpg,rose.jpg,sandcastle.jpg,scorpion.jpg,birdnest.jpg,mouse.jpg,frenchfries.jpg,lily.jpg,volleyball.jpg,birdfeeder.jpg,ducttape.jpg,ostrich.jpg,shovel01.jpg,snowboard.jpg,parkfountain.jpg,donut.jpg,lip.jpg,,,,,1,0,11,,,,,.\resources\volleyball.jpg,,,1,,,,,,,,,1,,,,,,,,,None,381.31864265,None,381.31864265,None,,,,,,,373.80206180000005,376.55186930000036,376.2852217999998,None,0.04755956367789045,376.7851853000002,None,376.7851853000002,None,377.61846009999954,None,377.61846009999954,None,left,2.994340000000193,377.61846009999954,None,380.7020134000004,None,right,0.5747540999991543,380.7020134000004,None,380.7020134000004,None,-5.708697082586455,150.47674971498324,,9,001,2021_Apr_08_1357,AB_pic_singleT2,2021.1.2,60.02044296306862,
AB,lag7,7,5,12,0.06000000005000003,0.02,0.3,main,,,,,0,35,35,35,,,,,,,corn02.jpg,vulture.jpg,electrictoothbrush01c.jpg,bench01.jpg,lightswitch01.jpg,bathtub.jpg,zebra.jpg,pokerchips.jpg,hockeystick.jpg,baseballbat.jpg,horseshoe.jpg,mailbox02.jpg,fishingrod.jpg,football.jpg,greathornowl.jpg,cloud.jpg,wheelbarrow01.jpg,,,,,0,0,14,,,,,.\resources\mailbox02.jpg,,,1,,,,,,,,,1,,,,,,,,,None,386.88444174999984,None,386.88444174999984,None,,,,,,,381.33531140000014,384.0846561999997,383.8180070999997,None,0.04715008436283286,384.3179664999998,None,384.3179664999998,None,385.35122429999956,None,385.35122429999956,None,right,1.1335660999993706,385.35122429999956,None,386.56781279999996,None,right,0.28484110000044893,386.56781279999996,None,386.56781279999996,None,-5.64918648523766,150.4906939592406,,9,001,2021_Apr_08_1357,AB_pic_singleT2,2021.1.2,60.02044296306862,
AB,lag5,5,5,10,0.06000000005000003,0.02,0.3,main,,,,,0,36,36,36,,,,,,,hotdogweiner.jpg,lightswitch01.jpg,parkingmeter.jpg,horseshoe.jpg,daddylonglegs.jpg,pokerchips.jpg,toucan.jpg,bed.jpg,table01.jpg,dragonfly01.jpg,englishcucumber.jpg,redfox.jpg,crab01.jpg,eyepatch.jpg,xylophone.jpg,stubbywrench01a.jpg,granolabar01.jpg,,,,,0,1,12,,,,,.\resources\dragonfly01.jpg,,,1,,,,,,,,,1,,,,,,,,,None,392.38444194999954,None,392.38444194999954,None,,,,,,,386.90112169999975,389.6509169000001,389.384266,None,0.046750271802607705,389.88422720000017,None,389.88422720000017,None,390.78417009999976,None,390.78417009999976,None,right,0.916540499999428,390.78417009999976,None,391.76740470000004,None,left,0.5973337999994328,391.76740470000004,None,391.76740470000004,None,-5.591073593436363,150.50485508047237,,9,001,2021_Apr_08_1357,AB_pic_singleT2,2021.1.2,60.02044296306862,
AB,lag7,7,3,10,0.06000000005000003,0.02,0.3,main,,,,,0,37,37,37,,,,,,,beerbottle.jpg,honeybee.jpg,key07.jpg,boat.jpg,mattress.jpg,cactus.jpg,wheelbarrow01.jpg,jeans01.jpg,christmaslights.jpg,sledgehammer.jpg,tarantula.jpg,football.jpg,candycane01a.jpg,guitarcase.jpg,spear02.jpg,swing.jpg,urinal.jpg,,,,,1,0,12,,,,,.\resources\sledgehammer.jpg,,,1,,,,,,,,,1,,,,,,,,,None,399.05015095000033,None,399.05015095000033,None,,,,,,,392.4011085000002,395.15048879999995,394.8671787000003,None,0.04635975331709781,395.3838034999999,None,395.3838034999999,None,396.2504054000001,None,396.2504054000001,None,left,2.2103643000000375,396.2504054000001,None,398.5335415999998,None,right,0.4951780000001236,398.5335415999998,None,398.5335415999998,None,-5.534246363452885,150.51918565402278,,9,001,2021_Apr_08_1357,AB_pic_singleT2,2021.1.2,60.02044296306862,
AB,lag4,4,3,7,0.06000000005000003,0.02,0.3,main,,,,,0,38,38,38,,,,,,,stubbywrench01a.jpg,snowman.jpg,beerbottle.jpg,lightswitch01.jpg,scooter.jpg,flamingo.jpg,windmill.jpg,moon.jpg,locker.jpg,dromedary.jpg,knee.jpg,nosmokingsign.jpg,daddylonglegs.jpg,chair.jpg,masquerademask01.jpg,bowlingball.jpg,pigeon.jpg,,,,,0,1,9,,,,,.\resources\windmill.jpg,,,0,,,,,,,,,1,,,,,,,,,None,405.4163496499999,None,405.4163496499999,None,,,,,,,399.06682399999954,401.8169958999997,401.55032759999995,None,0.04597779807605422,402.04993230000036,None,402.04993230000036,None,402.73359379999965,None,402.73359379999965,None,left,1.527168000000529,402.73359379999965,None,404.3331165999998,None,left,1.0636616000001595,404.3331165999998,None,404.3331165999998,None,-5.735887242873168,150.52075734042182,,9,001,2021_Apr_08_1357,AB_pic_singleT2,2021.1.2,60.02044296306862,
AB,lag3,3,5,8,0.06000000005000003,0.02,0.3,main,,,,,0,39,39,39,,,,,,,skunk.jpg,scorpion.jpg,rollerblade.jpg,pumpkin.jpg,ladder.jpg,microwave.jpg,curtain.jpg,golfball.jpg,nosmokingsign.jpg,pokerchips.jpg,smokingpipe.jpg,lawnmower.jpg,paperairplane.jpg,banjo.jpg,vulture.jpg,skippingrope.jpg,cigar.jpg,,,,,0,0,10,,,,,.\resources\golfball.jpg,,,1,,,,,,,,,1,,,,,,,,,None,412.23255955,None,412.23255955,None,,,,,,,405.4330173999997,408.1832033999999,407.89988559999983,None,0.04731693973533059,408.3994676000002,None,408.3994676000002,None,409.16607699999986,None,409.16607699999986,None,right,2.5267061000004105,409.16607699999986,None,411.7658959999999,None,right,0.4389125999996395,411.7658959999999,None,411.7658959999999,None,-5.699936798586399,150.53312184057708,,9,001,2021_Apr_08_1357,AB_pic_singleT2,2021.1.2,60.02044296306862,
AB,lag2,2,4,6,0.06000000005000003,0.02,0.3,main,,,,,0,40,40,40,,,,,,,locker.jpg,bat.jpg,eye.jpg,totempole.jpg,cloud.jpg,funnel.jpg,urinal.jpg,moon.jpg,safe.jpg,bacon.jpg,greatwhiteshark.jpg,golfball.jpg,xylophone.jpg,skunk.jpg,cheetah.jpg,smokingpipe.jpg,saltshaker03a.jpg,,,,,1,0,8,,,,,.\resources\funnel.jpg,,,1,,,,,,,,,1,,,,,,,,,None,418.3821198500003,None,418.3821198500003,None,,,,,,,412.24919469999986,414.99936909999997,414.7327286,None,0.04707423238861014,415.23235659999955,None,415.23235659999955,None,415.86598330000015,None,415.86598330000015,None,left,1.9549269999997705,415.86598330000015,None,417.89879420000034,None,right,0.45795410000027914,417.89879420000034,None,417.89879420000034,None,-5.653125194946764,150.54621275654497,,9,001,2021_Apr_08_1357,AB_pic_singleT2,2021.1.2,60.02044296306862,
AB,lag1,1,4,5,0.06000000005000003,0.02,0.3,main,,,,,0,41,41,41,,,,,,,fortunecookie.jpg,chimney.jpg,lighthouse.jpg,saltshaker03a.jpg,zebra.jpg,badmintonracket.jpg,birdhouse.jpg,kangaroo.jpg,coffeemaker.jpg,exitsign.jpg,scooter.jpg,leafblower01.jpg,bat.jpg,handcuffs.jpg,mattress.jpg,mrpotatohead.jpg,fridge.jpg,,,,,1,0,7,,,,,.\resources\zebra.jpg,,,1,,,,,,,,,1,,,,,,,,,None,426.2815524499996,None,426.2815524499996,None,,,,,,,418.39874750000035,421.1489276000002,420.8823123000002,None,0.04675919391908195,421.3989207000004,None,421.3989207000004,None,421.94887110000036,None,421.94887110000036,None,left,3.671954999999798,421.94887110000036,None,425.69822810000005,None,right,0.5625294999999824,425.69822810000005,None,425.69822810000005,None,-5.606604637666558,150.5594932056721,,9,001,2021_Apr_08_1357,AB_pic_singleT2,2021.1.2,60.02044296306862,
AB,lag6,6,5,11,0.06000000005000003,0.02,0.3,main,,,,,0,42,42,42,,,,,,,slug.jpg,ant.jpg,christmastree.jpg,tie02.jpg,key07.jpg,masquerademask01.jpg,lollipop04.jpg,hockeystick.jpg,treadmill.jpg,parrot01.jpg,motorcycle.jpg,pigeon.jpg,bumpercar.jpg,hand01b.jpg,helicopter.jpg,stubbywrench01a.jpg,uprightpiano01.jpg,,,,,0,0,13,,,,,.\resources\motorcycle.jpg,,,1,,,,,,,,,1,,,,,,,,,None,431.46448474999977,None,431.46448474999977,None,,,,,,,426.2981711000002,429.0479922000004,428.78203180000037,None,0.04644608486582632,429.2979733000002,None,429.2979733000002,None,430.23124519999965,None,430.23124519999965,None,right,0.8774843000001056,430.23124519999965,None,431.1978491,None,right,0.23882320000029722,431.1978491,None,431.1978491,None,-5.560850264055276,150.5729055990825,,9,001,2021_Apr_08_1357,AB_pic_singleT2,2021.1.2,60.02044296306862,
AB,lag5,5,5,10,0.06000000005000003,0.02,0.3,main,,,,,0,43,43,43,,,,,,,bacon.jpg,ant.jpg,skippingrope.jpg,callbell.jpg,eiffeltower.jpg,cruiseship.jpg,waterfall.jpg,windmill.jpg,athleticsock.jpg,mrpotatohead.jpg,greywolf.jpg,locker.jpg,jellyfish.jpg,key07.jpg,surfboard.jpg,zipper.jpg,panda.jpg,,,,,0,0,12,,,,,.\resources\mrpotatohead.jpg,,,1,,,,,,,,,1,,,,,,,,,None,436.3807917500002,None,436.3807917500002,None,,,,,,,431.4811513000004,434.2314078999998,433.9480504000003,None,0.046138079075612244,434.4475986999996,None,434.4475986999996,None,435.3308704000001,None,435.3308704000001,None,right,0.6978309999994963,435.3308704000001,None,436.0974845999999,None,right,0.25131450000026234,436.0974845999999,None,436.0974845999999,None,-5.515838566017237,150.5864196481041,,9,001,2021_Apr_08_1357,AB_pic_singleT2,2021.1.2,60.02044296306862,
AB,lag7,7,5,12,0.06000000005000003,0.02,0.3,main,,,,,0,44,44,44,,,,,,,cloud.jpg,discoball.jpg,spicerack.jpg,pirateflag.jpg,firehydrant.jpg,bluejay.jpg,swordfish.jpg,sword01.jpg,arrow02.jpg,pumpkin.jpg,mattress.jpg,popcorn.jpg,sheep.jpg,rubikcube.jpg,mummy.jpg,jeep.jpg,brownsugar.jpg,,,,,1,1,14,,,,,.\resources\popcorn.jpg,,,1,,,,,,,,,1,,,,,,,,,None,442.1303788500003,None,442.1303788500003,None,,,,,,,436.39746579999974,439.1476716999996,438.8810174,None,0.04583502910333007,439.3976517000001,None,439.3976517000001,None,440.39717420000034,None,440.39717420000034,None,left,1.279527099999541,440.39717420000034,None,441.7470685999997,None,left,0.36158479999994597,441.7470685999997,None,441.7470685999997,None,-5.471527961443683,150.6000104748463,,9,001,2021_Apr_08_1357,AB_pic_singleT2,2021.1.2,60.02044296306862,
AB,lag3,3,4,7,0.06000000005000003,0.02,0.3,main,,,,,0,45,45,45,,,,,,,cheetah.jpg,safe.jpg,cactus.jpg,handcuffs.jpg,christmaslights.jpg,sausage.jpg,jellybean.jpg,granolabar01.jpg,foosballtable.jpg,marble.jpg,fridge.jpg,squid.jpg,uprightpiano01.jpg,cashregister01.jpg,scooter.jpg,motorcycle.jpg,nunchuk.jpg,,,,,1,0,9,,,,,.\resources\jellybean.jpg,,,1,,,,,,,,,1,,,,,,,,,None,448.0799162500001,None,448.0799162500001,None,,,,,,,442.14704429999983,444.8972445999998,444.6306021999999,None,0.045536665641261624,445.13016340000013,None,445.13016340000013,None,445.81344480000007,None,445.81344480000007,None,left,1.759265300000152,445.81344480000007,None,447.6632932000002,None,right,0.3893506999993406,447.6632932000002,None,447.6632932000002,None,-5.42788113388298,150.61365710176628,,9,001,2021_Apr_08_1357,AB_pic_singleT2,2021.1.2,60.02044296306862,
AB,lag2,2,5,7,0.06000000005000003,0.02,0.3,main,,,,,0,46,46,46,,,,,,,toad.jpg,showerhead01.jpg,cross01.jpg,barrel01.jpg,electricguitar01.jpg,bed.jpg,firehydrant.jpg,ceilingfan01.jpg,africanelephant.jpg,paperairplane.jpg,microwave.jpg,chainsaw.jpg,rooster.jpg,whiteout.jpg,birthdaycandle.jpg,panda.jpg,turnstile.jpg,,,,,0,0,9,,,,,.\resources\firehydrant.jpg,,,1,,,,,,,,,0,,,,,,,,,None,453.5295190499995,None,453.5295190499995,None,,,,,,,448.0965858999998,450.8468350000003,450.5634603999997,None,0.045242746415742933,451.06303449999996,None,451.06303449999996,None,451.7467125000003,None,451.7467125000003,None,right,1.3139364000007845,451.7467125000003,None,453.14622150000014,None,left,0.36240819999966334,453.14622150000014,None,453.14622150000014,None,-5.384865460972992,150.627341978649,,9,001,2021_Apr_08_1357,AB_pic_singleT2,2021.1.2,60.02044296306862,
AB,lag6,6,5,11,0.06000000005000003,0.02,0.3,main,,,,,0,47,47,47,,,,,,,volleyball.jpg,hammerheadshark.jpg,tiger02.jpg,cigar.jpg,tire.jpg,parachute.jpg,toolbox02.jpg,golfball.jpg,lily.jpg,knee.jpg,kangaroo.jpg,fishingrod.jpg,windshieldwiper02.jpg,bridge.jpg,witchhat.jpg,africanelephant.jpg,toucan.jpg,,,,,0,1,13,,,,,.\resources\kangaroo.jpg,,,1,,,,,,,,,1,,,,,,,,,None,458.96247164999966,None,458.96247164999966,None,,,,,,,453.54619569999977,456.2964198999998,456.0297244000003,None,0.04495305920655942,456.5293044,None,456.5293044,None,457.4625709000002,None,457.4625709000002,None,right,0.9900762999996005,457.4625709000002,None,458.5458402000004,None,left,0.37090270000044256,458.5458402000004,None,458.5458402000004,None,-5.342452470199991,150.6410506101,,9,001,2021_Apr_08_1357,AB_pic_singleT2,2021.1.2,60.02044296306862,
AB,lag1,1,4,5,0.06000000005000003,0.02,0.3,main,,,,,0,48,48,48,,,,,,,cruiseship.jpg,anchor.jpg,humanskeleton.jpg,skateboard.jpg,moon.jpg,parachute.jpg,bed.jpg,acousticguitar02.jpg,lizard.jpg,jackrabbit.jpg,hand01b.jpg,cat.jpg,frisbee.jpg,toilet.jpg,electricguitar01.jpg,parkingmeter.jpg,kangaroo.jpg,,,,,1,1,7,,,,,.\resources\moon.jpg,,,1,,,,,,,,,1,,,,,,,,,None,464.6287458499995,None,464.6287458499995,None,,,,,,,458.97912819999965,461.72931679999965,461.4460508000002,None,0.04466741837014738,461.9626314999996,None,461.9626314999996,None,462.49593040000036,None,462.49593040000036,None,left,1.7967382999995607,462.49593040000036,None,464.3787609000001,None,left,0.2338992999993934,464.3787609000001,None,464.3787609000001,None,-5.300617330025391,150.65477123014398,,9,001,2021_Apr_08_1357,AB_pic_singleT2,2021.1.2,60.02044296306862,
AB,lag4,4,3,7,0.06000000005000003,0.02,0.3,main,,,,,0,49,49,49,,,,,,,discoball.jpg,tricycle.jpg,statue.jpg,guitarcase.jpg,waterfountain02.jpg,parkingmeter.jpg,tennisracket.jpg,shower.jpg,cobra.jpg,icecube02.jpg,birthdaycandle.jpg,nunchuk.jpg,rose.jpg,bullet.jpg,jeep.jpg,tree.jpg,swordfish.jpg,,,,,0,0,9,,,,,.\resources\tennisracket.jpg,,,1,,,,,,,,,1,,,,,,,,,None,469.39503315000036,None,469.39503315000036,None,,,,,,,464.64539700000023,467.39557609999974,467.1289243000001,None,0.044385661579414495,467.62849970000025,None,467.62849970000025,None,468.27844600000026,None,468.27844600000026,None,right,0.8062417999999525,468.27844600000026,None,469.1617175000001,None,right,0.2030432000001383,469.1617175000001,None,469.1617175000001,None,-5.2593384112603525,150.6684945150708,,9,001,2021_Apr_08_1357,AB_pic_singleT2,2021.1.2,60.02044296306862,
AB,lag3,3,4,7,0.06000000005000003,0.02,0.3,main,,,,,0,50,50,50,,,,,,,cannon.jpg,sink.jpg,kiwi03.jpg,rose.jpg,tent.jpg,leafrake.jpg,recyclingbin.jpg,squirrel.jpg,hotdogweiner.jpg,bullet.jpg,fishskeleton.jpg,dragonfly01.jpg,mailbox02.jpg,mummy.jpg,bow.jpg,tennisracket.jpg,worldmap.jpg,,,,,1,0,9,,,,,.\resources\recyclingbin.jpg,,,1,,,,,,,,,0,,,,,,,,,None,475.4279411499996,None,475.4279411499996,None,,,,,,,469.41170619999957,472.1619158000003,471.89524299999994,None,0.04410764701518609,472.3948155999997,None,472.3948155999997,None,473.04476479999994,None,473.04476479999994,None,left,2.0559739000000263,473.04476479999994,None,475.1946147999997,None,left,0.1860391999998683,475.1946147999997,None,475.1946147999997,None,-5.218596908092527,150.6822133288909,,9,001,2021_Apr_08_1357,AB_pic_singleT2,2021.1.2,60.02044296306862,
AB,lag7,7,5,12,0.06000000005000003,0.02,0.3,main,,,,,0,51,51,51,,,,,,,bluecheese.jpg,sledgehammer.jpg,helicopter.jpg,bowtie.jpg,bumpercar.jpg,eyepatch.jpg,xylophone.jpg,bullet.jpg,discoball.jpg,daddylonglegs.jpg,sausage.jpg,swing.jpg,horse.jpg,scooter.jpg,windmill.jpg,grizzly.jpg,car.jpg,,,,,0,0,14,,,,,.\resources\swing.jpg,,,0,,,,,,,,,1,,,,,,,,,None,481.07791835000023,None,481.07791835000023,None,,,,,,,475.4446250000001,478.1948289000002,477.9281847000002,None,0.043833250941145,478.4277367000004,None,478.4277367000004,None,479.4110026999997,None,479.4110026999997,None,left,1.2656815999998798,479.4110026999997,None,480.76092009999957,None,right,0.2997519000000466,480.76092009999957,None,480.76092009999957,None,-5.368307350785484,150.68729978661668,,9,001,2021_Apr_08_1357,AB_pic_singleT2,2021.1.2,60.02044296306862,
AB,lag1,1,5,6,0.06000000005000003,0.02,0.3,main,,,,,0,52,52,52,,,,,,,skunk.jpg,hockeystick.jpg,chainsaw.jpg,church.jpg,athleticsock.jpg,witchhat.jpg,toilet.jpg,crown.jpg,fingerprint.jpg,magneticcompass.jpg,dolphin01.jpg,accordion01.jpg,fridge.jpg,key07.jpg,bow.jpg,beerbottle.jpg,dreamcatcher.jpg,,,,,1,1,8,,,,,.\resources\witchhat.jpg,,,1,,,,,,,,,1,,,,,,,,,None,488.0441210499997,None,488.0441210499997,None,,,,,,,481.09460690000014,483.8444446000003,483.57777160000023,None,0.04482528867044763,484.0940042000002,None,484.0940042000002,None,484.69396380000035,None,484.69396380000035,None,left,1.6626709000001938,484.69396380000035,None,486.4438200000004,None,left,1.5688004000003275,486.4438200000004,None,486.4438200000004,None,-5.341469975252954,150.70008950124745,,9,001,2021_Apr_08_1357,AB_pic_singleT2,2021.1.2,60.02044296306862,
AB,lag4,4,4,8,0.06000000005000003,0.02,0.3,main,,,,,0,53,53,53,,,,,,,dartboard.jpg,seagull.jpg,coffeemaker.jpg,skateboard.jpg,bed.jpg,schoolbus.jpg,car.jpg,barrel01.jpg,foot.jpg,cymbal.jpg,kite.jpg,locker.jpg,pingpongtable.jpg,zebra.jpg,airhockeytable.jpg,key07.jpg,bridge.jpg,,,,,0,0,10,,,,,.\resources\barrel01.jpg,,,0,,,,,,,,,1,,,,,,,,,None,493.39332305000005,None,493.39332305000005,None,,,,,,,488.0607903,490.8105673,490.54393640000035,None,0.04464339973943515,491.04349660000025,None,491.04349660000025,None,491.7767684999999,None,491.7767684999999,None,left,1.0598192999996172,491.7767684999999,None,492.9100344999997,None,right,0.43868490000022575,492.9100344999997,None,492.9100344999997,None,-5.476275222537389,150.70525548858575,,9,001,2021_Apr_08_1357,AB_pic_singleT2,2021.1.2,60.02044296306862,
AB,lag6,6,5,11,0.06000000005000003,0.02,0.3,main,,,,,0,54,54,54,,,,,,,accordion01.jpg,crosscountryski.jpg,xylophone.jpg,sledgehammer.jpg,lizard.jpg,skateboard.jpg,bed.jpg,pig.jpg,golfball.jpg,rooster.jpg,sheep.jpg,masquerademask01.jpg,safe.jpg,mailbox02.jpg,lollipop04.jpg,kiwi03.jpg,elbow.jpg,,,,,1,0,13,,,,,.\resources\sheep.jpg,,,1,,,,,,,,,0,,,,,,,,,None,499.6928656499998,None,499.6928656499998,None,,,,,,,493.40999809999994,496.16018350000013,495.89353969999956,None,0.04553636541346127,496.41017159999956,None,496.41017159999956,None,497.3430360000002,None,497.3430360000002,None,left,1.9736001999999644,497.3430360000002,None,499.39288000000033,None,left,0.2516829999995025,499.39288000000033,None,499.39288000000033,None,-5.450578543824732,150.71752451973634,,9,001,2021_Apr_08_1357,AB_pic_singleT2,2021.1.2,60.02044296306862,
AB,lag2,2,4,6,0.06000000005000003,0.02,0.3,main,,,,,0,55,55,55,,,,,,,ladder.jpg,calendar.jpg,spear02.jpg,vulture.jpg,horse.jpg,snowshoe.jpg,steeringwheel.jpg,chimney.jpg,bacon.jpg,windshieldwiper02.jpg,platypus.jpg,englishcucumber.jpg,alligator.jpg,fingerprint.jpg,recyclingbin.jpg,schoolbus.jpg,toucan.jpg,,,,,0,0,8,,,,,.\resources\snowshoe.jpg,,,1,,,,,,,,,0,,,,,,,,,None,505.79240094999966,None,505.79240094999966,None,,,,,,,499.7095368999999,502.4597299999996,502.1930838999997,None,0.04536216293845338,502.7097106000001,None,502.7097106000001,None,503.30927210000027,None,503.30927210000027,None,right,1.9514429000000746,503.30927210000027,None,505.34244109999963,None,left,0.42218810000031226,505.34244109999963,None,505.34244109999963,None,-5.419236124527295,150.7301142383576,,9,001,2021_Apr_08_1357,AB_pic_singleT2,2021.1.2,60.02044296306862,
AB,lag5,5,4,9,0.06000000005000003,0.02,0.3,main,,,,,0,56,56,56,,,,,,,birdfeeder.jpg,horseshoe.jpg,skippingrope.jpg,hotdogweiner.jpg,sausage.jpg,bow.jpg,electrictoothbrush01c.jpg,redfox.jpg,nose.jpg,tree.jpg,showerhead01.jpg,ladybug03.jpg,ceilingfan01.jpg,saxophone.jpg,seagull.jpg,daddylonglegs.jpg,peacock.jpg,,,,,1,0,11,,,,,.\resources\nose.jpg,,,1,,,,,,,,,1,,,,,,,,,None,511.40903285,None,511.40903285,None,,,,,,,505.8090635999997,508.5592415000001,508.29259060000004,None,0.045150436726168974,508.79221979999966,None,508.79221979999966,None,509.60878440000033,None,509.60878440000033,None,left,1.259780999999748,509.60878440000033,None,510.95868080000037,None,right,0.4060591999996177,510.95868080000037,None,510.95868080000037,None,-5.388006989144172,150.74275955100947,,9,001,2021_Apr_08_1357,AB_pic_singleT2,2021.1.2,60.02044296306862,
AB,lag2,2,3,5,0.06000000005000003,0.02,0.3,main,,,,,0,57,57,57,,,,,,,windmill.jpg,lip.jpg,surfboard.jpg,urinal.jpg,birdfeeder.jpg,leafrake.jpg,ipad02.jpg,leafblower01.jpg,table01.jpg,sausage.jpg,horse.jpg,apron.jpg,ladybug03.jpg,tank.jpg,jeep.jpg,sword01.jpg,marble.jpg,,,,,1,0,7,,,,,.\resources\birdfeeder.jpg,,,1,,,,,,,,,1,,,,,,,,,None,516.5583011499997,None,516.5583011499997,None,,,,,,,511.42571450000014,514.1754971999999,513.9088485000002,None,0.04493948081116111,514.4084333999999,None,514.4084333999999,None,514.9587717000004,None,514.9587717000004,None,left,1.109875600000123,514.9587717000004,None,516.1416539000002,None,right,0.3910084999997707,516.1416539000002,None,516.1416539000002,None,-5.357090014243312,150.7554403230667,,9,001,2021_Apr_08_1357,AB_pic_singleT2,2021.1.2,60.02044296306862,
AB,lag6,6,5,11,0.06000000005000003,0.02,0.3,main,,,,,0,58,58,58,,,,,,,mummy.jpg,kneepad01c.jpg,cat.jpg,pumpkin.jpg,shovel01.jpg,surfboard.jpg,dormer.jpg,sandcastle.jpg,pokerchips.jpg,jellyfish.jpg,bowtie.jpg,foldingchair.jpg,arrow02.jpg,nose.jpg,kangaroo.jpg,fishingrod.jpg,table01.jpg,,,,,0,0,13,,,,,.\resources\bowtie.jpg,,,1,,,,,,,,,0,,,,,,,,,space,522.2245591999999,None,522.2245591999999,None,,,,,,,516.5749550999999,519.3251217999996,519.0584790000003,None,0.04473062040688037,519.5580578999998,None,519.5580578999998,None,520.474647,None,520.474647,None,right,1.2180225000001883,520.474647,None,521.7912261000001,None,left,0.3973609000004217,521.7912261000001,None,521.7912261000001,None,-5.326482381031185,150.7681467079717,10.468062200000531,9,001,2021_Apr_08_1357,AB_pic_singleT2,2021.1.2,60.02044296306862,
AB,lag7,7,4,11,0.06000000005000003,0.02,0.3,main,,,,,0,59,59,59,,,,,,,masquerademask01.jpg,pig.jpg,flag.jpg,horse.jpg,chainsaw.jpg,hand01b.jpg,horseshoe.jpg,birdnest.jpg,bowlingball.jpg,electrictoothbrush01c.jpg,snowshovel.jpg,magneticcompass.jpg,barrel01.jpg,moose.jpg,airhockeytable.jpg,witchhat.jpg,toilet.jpg,,,,,0,0,13,,,,,.\resources\snowshovel.jpg,,,0,,,,,,,,,1,,,,,,,,,None,539.6237988500001,None,539.6237988500001,None,,,,,,,532.7409868000004,535.4903133999996,535.2236664000002,None,0.04452383934355376,535.7236266999998,None,535.7236266999998,None,536.6568939999997,None,536.6568939999997,None,left,2.187857200000508,536.6568939999997,None,538.9571904000004,None,right,0.6394104999999399,538.9571904000004,None,538.9571904000004,None,-5.443495030014417,150.77394242260127,,9,001,2021_Apr_08_1357,AB_pic_singleT2,2021.1.2,60.02044296306862,
AB,lag5,5,3,8,0.06000000005000003,0.02,0.3,main,,,,,0,60,60,60,,,,,,,lawnmower.jpg,crab01.jpg,honeybee.jpg,sausage.jpg,bumpercar.jpg,fortunecookie.jpg,seal.jpg,cigar.jpg,lip.jpg,masquerademask01.jpg,lollipop04.jpg,swing.jpg,raccoon.jpg,cymbal.jpg,skateboard.jpg,firehydrant.jpg,nose.jpg,,,,,0,0,10,,,,,.\resources\cigar.jpg,,,1,,,,,,,,,1,,,,,,,,,None,544.3896400500001,None,544.3896400500001,None,,,,,,,539.6404620000003,542.3898079,542.1231618000002,None,0.045298207909104264,542.6231237000002,None,542.6231237000002,None,543.3730435999996,None,543.3730435999996,None,right,0.7435245000006034,543.3730435999996,None,544.2063194000002,None,right,0.15818939999917347,544.2063194000002,None,544.2063194000002,None,-5.42056235226012,150.78591438994093,,9,001,2021_Apr_08_1357,AB_pic_singleT2,2021.1.2,60.02044296306862,
AB,lag3,3,5,8,0.06000000005000003,0.02,0.3,main,,,,,0,61,61,61,,,,,,,beerbottle.jpg,scorpion.jpg,tent.jpg,jeans01.jpg,wheelbarrow01.jpg,scooter.jpg,greatwhiteshark.jpg,wheelchair.jpg,englishcucumber.jpg,waterfall.jpg,snowboard.jpg,tulip02.jpg,tennisracket.jpg,lawnmower.jpg,pigeon.jpg,arrow02.jpg,stubbywrench01a.jpg,,,,,0,0,10,,,,,.\resources\wheelchair.jpg,,,1,,,,,,,,,0,,,,,,,,,None,550.3396266499998,None,550.3396266499998,None,,,,,,,544.4063077000001,547.1561369000001,546.8894598999996,None,0.045142523696060186,547.3894147999999,None,547.3894147999999,None,548.1393619999999,None,548.1393619999999,None,right,1.7132118999998056,548.1393619999999,None,549.9392430999997,None,left,0.3692875999995522,549.9392430999997,None,549.9392430999997,None,-5.393253157856834,150.79813493532555,,9,001,2021_Apr_08_1357,AB_pic_singleT2,2021.1.2,60.02044296306862,
AB,lag4,4,5,9,0.06000000005000003,0.02,0.3,main,,,,,0,62,62,62,,,,,,,dandelion.jpg,apron.jpg,soccerball.jpg,foosballtable.jpg,fridge.jpg,tiger02.jpg,electricguitar01.jpg,christmaslights.jpg,lawnmower.jpg,coffeemaker.jpg,pig.jpg,humanskeleton.jpg,church.jpg,whiteout.jpg,raccoon.jpg,motorcycle.jpg,armadillo.jpg,,,,,0,1,11,,,,,.\resources\lawnmower.jpg,,,0,,,,,,,,,0,,,,,,,,,None,556.5053979500002,None,556.5053979500002,None,,,,,,,550.3563347999998,553.1056656999999,552.8390222999997,None,0.04495776769311068,553.3389901999999,None,553.3389901999999,None,554.1389314999997,None,554.1389314999997,None,left,1.809661999999662,554.1389314999997,None,556.0387815000004,None,right,0.4377694999993764,556.0387815000004,None,556.0387815000004,None,-5.499615457250907,150.80395934956024,,9,001,2021_Apr_08_1357,AB_pic_singleT2,2021.1.2,60.02044296306862,
AB,lag1,1,3,4,0.06000000005000003,0.02,0.3,main,,,,,0,63,63,63,,,,,,,soccerball.jpg,bull.jpg,table01.jpg,snowman.jpg,toilet.jpg,marble.jpg,steeringwheel.jpg,turnstile.jpg,bluejay.jpg,calendar.jpg,knee.jpg,shower.jpg,toad.jpg,holdfast.jpg,drumset.jpg,birdnest.jpg,snowboard.jpg,,,,,0,0,6,,,,,.\resources\snowman.jpg,,,0,,,,,,,,,1,,,,,,,,,None,562.1049900499996,None,562.1049900499996,None,,,,,,,556.5220579999996,559.2722695000002,558.9889616,None,0.045661333084825784,559.4885119,None,559.4885119,None,559.9722165000003,None,559.9722165000003,None,left,1.5523449000002074,559.9722165000003,None,561.6216863999998,None,right,0.46285729999999603,561.6216863999998,None,561.6216863999998,None,-5.602441667622939,150.8092187911366,,9,001,2021_Apr_08_1357,AB_pic_singleT2,2021.1.2,60.02044296306862,
AB,lag5,5,4,9,0.06000000005000003,0.02,0.3,main,,,,,0,64,64,64,,,,,,,horseshoe.jpg,skippingrope.jpg,crab01.jpg,discoball.jpg,lion.jpg,worldmap.jpg,firehydrant.jpg,parachute.jpg,pigeon.jpg,badmintonracket.jpg,eye.jpg,cocktailshrimp02.jpg,bowlingpin.jpg,hotdogweiner.jpg,steeringwheel.jpg,cigar.jpg,funnel.jpg,,,,,0,0,11,,,,,.\resources\pigeon.jpg,,,1,,,,,,,,,1,,,,,,,,,None,567.0046343500002,None,567.0046343500002,None,,,,,,,562.1216520999997,564.8714805,564.6048049999999,None,0.04634157039445903,565.1047749999998,None,565.1047749999998,None,565.9213840000002,None,565.9213840000002,None,right,0.7872758000003159,565.9213840000002,None,566.7879818000001,None,right,0.1686891999997897,566.7879818000001,None,566.7879818000001,None,-5.581840828966057,150.82004557658948,,9,001,2021_Apr_08_1357,AB_pic_singleT2,2021.1.2,60.02044296306862,
AB,lag4,4,3,7,0.06000000005000003,0.02,0.3,main,,,,,0,65,65,65,,,,,,,mailbox02.jpg,pooltable.jpg,shower.jpg,skateboard.jpg,greathornowl.jpg,eiffeltower.jpg,bowtie.jpg,snowman.jpg,skunk.jpg,sandcastle.jpg,cymbal.jpg,windshieldwiper02.jpg,foot.jpg,totempole.jpg,dromedary.jpg,sword01.jpg,cloud.jpg,,,,,0,1,9,,,,,.\resources\bowtie.jpg,,,0,,,,,,,,,1,,,,,,,,,None,572.90420175,None,572.90420175,None,,,,,,,567.0213586999998,569.7715478,569.4881943999999,None,0.04620165153409523,569.9877453999998,None,569.9877453999998,None,570.6710417000004,None,570.6710417000004,None,left,1.8856283000004623,570.6710417000004,None,572.6375521999998,None,left,0.24698840000019118,572.6375521999998,None,572.6375521999998,None,-5.674127163863552,150.8250864478441,,9,001,2021_Apr_08_1357,AB_pic_singleT2,2021.1.2,60.02044296306862,
AB,lag7,7,3,10,0.06000000005000003,0.02,0.3,main,,,,,0,66,66,66,,,,,,,spiderweb.jpg,jellybean.jpg,lighthouse.jpg,daddylonglegs.jpg,telescope.jpg,moose.jpg,trumpet.jpg,magneticcompass.jpg,banjo.jpg,bullet.jpg,hand01b.jpg,cactus.jpg,mailbox02.jpg,calendar.jpg,escalator.jpg,basketball01.jpg,witchhat.jpg,,,,,0,1,12,,,,,.\resources\bullet.jpg,,,1,,,,,,,,,1,,,,,,,,,None,578.3542713499995,None,578.3542713499995,None,,,,,,,572.9208784000002,575.6711646000003,575.4045212999999,None,0.04681198394290306,575.9211531999999,None,575.9211531999999,None,576.8039414000004,None,576.8039414000004,None,right,1.072593599999891,576.8039414000004,None,577.9538645000002,None,left,0.37869510000018636,577.9538645000002,None,577.9538645000002,None,-5.654487633497523,150.83523615799558,,9,001,2021_Apr_08_1357,AB_pic_singleT2,2021.1.2,60.02044296306862,
AB,lag2,2,3,5,0.06000000005000003,0.02,0.3,main,,,,,0,67,67,67,,,,,,,well.jpg,horseshoe.jpg,whiteout.jpg,tent.jpg,hand01b.jpg,lollipop04.jpg,toolbox02.jpg,bench01.jpg,treadmill.jpg,wheelbarrow01.jpg,xylophone.jpg,humanskeleton.jpg,sink.jpg,pumpkin.jpg,ladder.jpg,moon.jpg,tank.jpg,,,,,1,0,7,,,,,.\resources\hand01b.jpg,,,1,,,,,,,,,0,,,,,,,,,None,583.4034665499997,None,583.4034665499997,None,,,,,,,578.3709390000004,581.1203001000003,580.8536565000004,None,0.04667862877373293,581.3536115999996,None,581.3536115999996,None,581.9202379999997,None,581.9202379999997,None,left,1.0364381999997931,581.9202379999997,None,583.0534891999996,None,left,0.30317050000030576,583.0534891999996,None,583.0534891999996,None,-5.632922804004304,150.84560795849183,,9,001,2021_Apr_08_1357,AB_pic_singleT2,2021.1.2,60.02044296306862,
AB,lag6,6,4,10,0.06000000005000003,0.02,0.3,main,,,,,0,68,68,68,,,,,,,wheelbarrow01.jpg,handcuffs.jpg,saltshaker03a.jpg,horse.jpg,fortunecookie.jpg,mouse.jpg,waterfountain02.jpg,moon.jpg,toad.jpg,bull.jpg,tiger02.jpg,cow.jpg,jellybean.jpg,bluecheese.jpg,anchor.jpg,trampoline.jpg,noparkingsign.jpg,,,,,0,1,12,,,,,.\resources\bull.jpg,,,1,,,,,,,,,1,,,,,,,,,None,588.85305955,None,588.85305955,None,,,,,,,583.4201289000002,586.1699355999999,585.9032842999995,None,0.04653245964612819,586.4032533999998,None,586.4032533999998,None,587.3031816000002,None,587.3031816000002,None,right,0.9973571999998967,587.3031816000002,None,588.3864096999996,None,left,0.4341067000004841,588.3864096999996,None,588.3864096999996,None,-5.611493814214075,150.85609701392522,,9,001,2021_Apr_08_1357,AB_pic_singleT2,2021.1.2,60.02044296306862,
AB,lag1,1,4,5,0.06000000005000003,0.02,0.3,main,,,,,0,69,69,69,,,,,,,exitsign.jpg,surfboard.jpg,squid.jpg,kangaroo.jpg,saxophone.jpg,statue.jpg,windshieldwiper02.jpg,humanskeleton.jpg,ladder.jpg,bluejay.jpg,parkingmeter.jpg,cupcake.jpg,arrow02.jpg,hammerheadshark.jpg,well.jpg,cloud.jpg,squirrel.jpg,,,,,1,0,7,,,,,.\resources\saxophone.jpg,,,1,,,,,,,,,1,,,,,,,,,None,594.5526455499997,None,594.5526455499997,None,,,,,,,588.8697357000001,591.6195066,591.3528426000003,None,0.046387175022087536,591.8528259000004,None,591.8528259000004,None,592.4027858999998,None,592.4027858999998,None,left,1.51374289999967,592.4027858999998,None,594.0026638999998,None,right,0.5219228000005387,594.0026638999998,None,594.0026638999998,None,-5.5902335115440955,150.86668940792634,,9,001,2021_Apr_08_1357,AB_pic_singleT2,2021.1.2,60.02044296306862,
AB,lag3,3,5,8,0.06000000005000003,0.02,0.3,main,,,,,0,70,70,70,,,,,,,dandelion.jpg,toyanimal05.jpg,table01.jpg,lightswitch01.jpg,jeep.jpg,parkfountain.jpg,baseballbat.jpg,birdnest.jpg,basketball01.jpg,helicopter.jpg,chair.jpg,trumpet.jpg,bat.jpg,wheelchair.jpg,drumstick.jpg,nosmokingsign.jpg,slug.jpg,,,,,0,0,10,,,,,.\resources\birdnest.jpg,,,1,,,,,,,,,1,,,,,,,,,None,599.5189352499996,None,599.5189352499996,None,,,,,,,594.5693035000004,597.3194964000004,597.0528617,None,0.046242997046221715,597.5524087000003,None,597.5524087000003,None,598.3023578000002,None,598.3023578000002,None,right,0.8222871999996642,598.3023578000002,None,599.2022870000001,None,right,0.28223930000058317,599.2022870000001,None,599.2022870000001,None,-5.569137020152296,150.87737381790683,,9,001,2021_Apr_08_1357,AB_pic_singleT2,2021.1.2,60.02044296306862,
AB,lag4,4,3,7,0.06000000005000003,0.02,0.3,main,,,,,0,71,71,71,,,,,,,nunchuk.jpg,noparkingsign.jpg,shower.jpg,snowman.jpg,popcorn.jpg,parkingmeter.jpg,squirrel.jpg,dandelion.jpg,horseshoe.jpg,rubikcube.jpg,well.jpg,footballhelmet.jpg,uprightpiano01.jpg,sandcastle.jpg,firehydrant.jpg,corn02.jpg,skateboard.jpg,,,,,0,1,9,,,,,.\resources\squirrel.jpg,,,1,,,,,,,,,1,,,,,,,,,None,605.86846955,None,605.86846955,None,,,,,,,599.5356142999999,602.2858450000003,602.0024931999997,None,0.046099896924681784,602.5020424000004,None,602.5020424000004,None,603.1853396999995,None,603.1853396999995,None,right,1.8431820000005246,603.1853396999995,None,605.1185022,None,left,0.7341113999991649,605.1185022,None,605.1185022,None,-5.548199088458831,150.88813979792545,,9,001,2021_Apr_08_1357,AB_pic_singleT2,2021.1.2,60.02044296306862,
AB,lag1,1,3,4,0.06000000005000003,0.02,0.3,main,,,,,0,72,72,72,,,,,,,tank.jpg,jellyfish.jpg,dartboard.jpg,nose.jpg,scooter.jpg,jeans01.jpg,accordion01.jpg,africanelephant.jpg,surfboard.jpg,vulture.jpg,kiwi03.jpg,popcorn.jpg,butterfly.jpg,tricycle.jpg,duck01.jpg,fridge.jpg,worldmap.jpg,,,,,1,1,6,,,,,.\resources\nose.jpg,,,1,,,,,,,,,1,,,,,,,,,None,611.6180457499999,None,611.6180457499999,None,,,,,,,605.8851091999995,608.6352966000004,608.3686451000003,None,0.045957843067491136,608.8682322000004,None,608.8682322000004,None,609.3515309000004,None,609.3515309000004,None,left,1.6049292999996396,609.3515309000004,None,611.0514008,None,left,0.5451075999999375,611.0514008,None,611.0514008,None,-5.5274147864869265,150.89897769081173,,9,001,2021_Apr_08_1357,AB_pic_singleT2,2021.1.2,60.02044296306862,
AB,lag2,2,3,5,0.06000000005000003,0.02,0.3,main,,,,,0,73,73,73,,,,,,,hotdogweiner.jpg,birthdaycandle.jpg,fridge.jpg,harmonica.jpg,ladder.jpg,car.jpg,snowshoe.jpg,ladybug03.jpg,safe.jpg,volleyball.jpg,witchhat.jpg,mouse.jpg,sink.jpg,kiwi03.jpg,spiderweb.jpg,candycane01a.jpg,spicerack.jpg,,,,,1,0,7,,,,,.\resources\ladder.jpg,,,1,,,,,,,,,1,,,,,,,,,None,617.3176497500002,None,617.3176497500002,None,,,,,,,611.6346937999997,614.3848674000001,614.1182298000003,None,0.045816805742533495,614.6178135999999,None,614.6178135999999,None,615.1677675999999,None,615.1677675999999,None,left,1.4367594000004829,615.1677675999999,None,616.6843277999997,None,right,0.6161789999996472,616.6843277999997,None,616.6843277999997,None,-5.5067794978621585,150.90987857597355,,9,001,2021_Apr_08_1357,AB_pic_singleT2,2021.1.2,60.02044296306862,
AB,lag5,5,5,10,0.06000000005000003,0.02,0.3,main,,,,,0,74,74,74,,,,,,,table01.jpg,tennisracket.jpg,christmastree.jpg,crab01.jpg,granolabar01.jpg,wheelbarrow01.jpg,vulture.jpg,rubikcube.jpg,cupcake.jpg,trumpet.jpg,ostrich.jpg,sword01.jpg,corn02.jpg,spicerack.jpg,kiwi03.jpg,horseshoe.jpg,mailbox02.jpg,,,,,0,0,12,,,,,.\resources\trumpet.jpg,,,1,,,,,,,,,1,,,,,,,,,None,622.21730255,None,622.21730255,None,,,,,,,617.3342814999996,620.0844643,619.8178254000004,None,0.045676757042196044,620.3174403000003,None,620.3174403000003,None,621.2006782999997,None,621.2006782999997,None,right,0.7558283000007577,621.2006782999997,None,622.0506077,None,right,0.13793619999978546,622.0506077,None,622.0506077,None,-5.486288899613787,150.92083422177942,,9,001,2021_Apr_08_1357,AB_pic_singleT2,2021.1.2,60.02044296306862,
AB,lag6,6,4,10,0.06000000005000003,0.02,0.3,main,,,,,0,75,75,75,,,,,,,mummy.jpg,jellyfish.jpg,witchhat.jpg,ostrich.jpg,brownsugar.jpg,crosscountryski.jpg,sandcastle.jpg,rooster.jpg,toyanimal05.jpg,shovel01.jpg,floorlamp.jpg,vulture.jpg,flamingo.jpg,daddylonglegs.jpg,barrel01.jpg,cloud.jpg,treadmill.jpg,,,,,0,0,12,,,,,.\resources\shovel01.jpg,,,1,,,,,,,,,1,,,,,,,,,None,627.0502694499995,None,627.0502694499995,None,,,,,,,622.2339210999999,624.9841534999996,624.7175082000003,None,0.045537670767406176,625.2341328000002,None,625.2341328000002,None,626.1003332999999,None,626.1003332999999,None,right,0.6801755999995294,626.1003332999999,None,626.8669507000004,None,right,0.16150939999988623,626.8669507000004,None,626.8669507000004,None,-5.465938943349826,150.93183704155777,,9,001,2021_Apr_08_1357,AB_pic_singleT2,2021.1.2,60.02044296306862,
AB,lag7,7,3,10,0.06000000005000003,0.02,0.3,main,,,,,0,76,76,76,,,,,,,noparkingsign.jpg,bow.jpg,bluecheese.jpg,kneepad01c.jpg,alligator.jpg,ceilingfan01.jpg,toyanimal05.jpg,humanskeleton.jpg,electricguitar01.jpg,cat.jpg,guitarcase.jpg,chefshat.jpg,parachute.jpg,tortoise01.jpg,ant.jpg,drumstick.jpg,marble.jpg,,,,,1,0,12,,,,,.\resources\cat.jpg,,,1,,,,,,,,,1,,,,,,,,,None,632.5337132500002,None,632.5337132500002,None,,,,,,,627.0669366000002,629.817239,629.5339111000003,None,0.04539952231935675,630.0501076999999,None,630.0501076999999,None,630.9166998999999,None,630.9166998999999,None,left,1.0637769000004482,630.9166998999999,None,632.0670688,None,right,0.4334326999996847,632.0670688,None,632.0670688,None,-5.445725837919669,150.94288005286228,,9,001,2021_Apr_08_1357,AB_pic_singleT2,2021.1.2,60.02044296306862,
AB,lag3,3,4,7,0.06000000005000003,0.02,0.3,main,,,,,0,77,77,77,,,,,,,footballhelmet.jpg,curtain.jpg,tank.jpg,sheep.jpg,seagull.jpg,trophy01.jpg,cloud.jpg,moon.jpg,windshieldwiper02.jpg,toad.jpg,showerhead01.jpg,basketball01.jpg,hand01b.jpg,daddylonglegs.jpg,spiderweb.jpg,flamingo.jpg,football.jpg,,,,,0,1,9,,,,,.\resources\cloud.jpg,,,1,,,,,,,,,1,,,,,,,,,None,637.8833203500002,None,637.8833203500002,None,,,,,,,632.5503632,635.2997206,635.0330764999999,None,0.04526228859981267,635.5497069000003,None,635.5497069000003,None,636.2163283,None,636.2163283,None,right,1.140184599999884,636.2163283,None,637.4666791,None,left,0.36989290000019537,637.4666791,None,637.4666791,None,-5.425646033423277,150.95395683973467,,9,001,2021_Apr_08_1357,AB_pic_singleT2,2021.1.2,60.02044296306862,
AB,lag4,4,4,8,0.06000000005000003,0.02,0.3,main,,,,,0,78,78,78,,,,,,,well.jpg,tent.jpg,soccerball.jpg,fireplace.jpg,drumstick.jpg,parrot01.jpg,ipad02.jpg,horse.jpg,cow.jpg,ladder.jpg,snowshovel.jpg,lion.jpg,handcuffs.jpg,knee.jpg,bull.jpg,lawnmower.jpg,corn02.jpg,,,,,0,0,10,,,,,.\resources\horse.jpg,,,1,,,,,,,,,1,,,,,,,,,None,643.3828195500004,None,643.3828195500004,None,,,,,,,637.8999777999998,640.6493326,640.3826835999998,None,0.0451259479191744,640.8993146000003,None,640.8993146000003,None,641.6325634000004,None,641.6325634000004,None,right,1.3878752000000532,641.6325634000004,None,643.1161657000002,None,right,0.24825330000021495,643.1161657000002,None,643.1161657000002,None,-5.405696206435662,150.96506151769293,,9,001,2021_Apr_08_1357,AB_pic_singleT2,2021.1.2,60.02044296306862,
AB,lag5,5,3,8,0.06000000005000003,0.02,0.3,main,,,,,0,79,79,79,,,,,,,exitsign.jpg,swordfish.jpg,tent.jpg,humanskeleton.jpg,showerhead01.jpg,soccerball.jpg,pooltable.jpg,table01.jpg,coffeemaker.jpg,bluecheese.jpg,cow.jpg,dandelion.jpg,bowtie.jpg,pig.jpg,acousticguitar02.jpg,urinal.jpg,hockeystick.jpg,,,,,1,0,10,,,,,.\resources\table01.jpg,,,1,,,,,,,,,1,,,,,,,,,None,649.0824188499995,None,649.0824188499995,None,,,,,,,643.3994757,646.1488753000003,645.8826381999997,None,0.04499047991153595,646.3821952999997,None,646.3821952999997,None,647.1154737999996,None,647.1154737999996,None,left,1.2570311999998012,647.1154737999996,None,648.4487403000003,None,right,0.6116934000001493,648.4487403000003,None,648.4487403000003,None,-5.385873246331169,150.9761887012129,,9,001,2021_Apr_08_1357,AB_pic_singleT2,2021.1.2,60.02044296306862,
AB,lag6,6,3,9,0.06000000005000003,0.02,0.3,main,,,,,0,80,80,80,,,,,,,waterfall.jpg,peacock.jpg,moose.jpg,waterfountain02.jpg,cobra.jpg,kite.jpg,bathtub.jpg,bowlingpin.jpg,wheelchair.jpg,rollerblade.jpg,nose.jpg,armadillo.jpg,acorn.jpg,foldingchair.jpg,dolphin01.jpg,frenchfries.jpg,skunk.jpg,,,,,0,0,11,,,,,.\resources\wheelchair.jpg,,,1,,,,,,,,,1,,,,,,,,,None,653.89831765,None,653.89831765,None,,,,,,,649.0990978999998,651.8484614999998,651.5818175000004,None,0.044855865456064827,652.0984476000003,None,652.0984476000003,None,652.8817221999998,None,652.8817221999998,None,right,0.6827292999996644,652.8817221999998,None,653.6483289999996,None,right,0.22010929999942164,653.6483289999996,None,653.6483289999996,None,-5.366174242603224,150.987333473498,,9,001,2021_Apr_08_1357,AB_pic_singleT2,2021.1.2,60.02044296306862,
AB,lag3,3,5,8,0.06000000005000003,0.02,0.3,main,,,,,0,81,81,81,,,,,,,lightswitch01.jpg,jellybean.jpg,turnstile.jpg,hockeystick.jpg,marble.jpg,jeans01.jpg,nose.jpg,acousticguitar02.jpg,sink.jpg,eyepatch.jpg,mrpotatohead.jpg,greathornowl.jpg,donut.jpg,callbell.jpg,parrot01.jpg,pooltable.jpg,tarantula.jpg,,,,,1,0,10,,,,,.\resources\acousticguitar02.jpg,,,1,,,,,,,,,1,,,,,,,,,None,659.06457515,None,659.06457515,None,,,,,,,653.9149819000004,656.6651912999996,656.3985418000002,None,0.04472208660409476,656.8980948999997,None,656.8980948999997,None,657.6313724000001,None,657.6313724000001,None,left,0.9891876000001503,657.6313724000001,None,658.6979425999998,None,right,0.33846449999964534,658.6979425999998,None,658.6979425999998,None,-5.346596473088064,150.99849135833662,,9,001,2021_Apr_08_1357,AB_pic_singleT2,2021.1.2,60.02044296306862,
AB,lag7,7,5,12,0.06000000005000003,0.02,0.3,main,,,,,0,82,82,82,,,,,,,hulahoop.jpg,nose.jpg,leafblower01.jpg,waterfall.jpg,snowboard.jpg,nosmokingsign.jpg,popcorn.jpg,parkfountain.jpg,ironingboard01.jpg,snowman.jpg,bumpercar.jpg,boat.jpg,accordion01.jpg,table01.jpg,birdfeeder.jpg,athleticsock.jpg,ipad02.jpg,,,,,0,0,14,,,,,.\resources\boat.jpg,,,1,,,,,,,,,1,,,,,,,,,None,664.11421585,None,664.11421585,None,,,,,,,659.0812634000004,661.8314633999998,661.5647681,None,0.0445891265114036,662.0643677999997,None,662.0643677999997,None,663.0642980000002,None,663.0642980000002,None,right,0.7801047000002654,663.0642980000002,None,663.9309215000003,None,right,0.16152929999952903,663.9309215000003,None,663.9309215000003,None,-5.3271373930091945,151.00965829388167,,9,001,2021_Apr_08_1357,AB_pic_singleT2,2021.1.2,60.02044296306862,
AB,lag1,1,3,4,0.06000000005000003,0.02,0.3,main,,,,,0,83,83,83,,,,,,,humanskeleton.jpg,well.jpg,footballhelmet.jpg,sheep.jpg,parrot01.jpg,licenseplate.jpg,locker.jpg,worldmap.jpg,vulture.jpg,spear02.jpg,trophy01.jpg,vacuumcleaner01.jpg,table01.jpg,ostrich.jpg,spiderweb.jpg,helicopter.jpg,mummy.jpg,,,,,0,0,6,,,,,.\resources\sheep.jpg,,,1,,,,,,,,,1,,,,,,,,,None,669.8138192499995,None,669.8138192499995,None,,,,,,,664.1308909999998,666.8810940000003,666.597753,None,0.04445696937519054,667.0973267999998,None,667.0973267999998,None,667.5810152000004,None,667.5810152000004,None,right,1.9194484999998167,667.5810152000004,None,669.5804906000003,None,right,0.21593339999981254,669.5804906000003,None,669.5804906000003,None,-5.30779462476945,151.02083060819703,,9,001,2021_Apr_08_1357,AB_pic_singleT2,2021.1.2,60.02044296306862,
AB,lag2,2,3,5,0.06000000005000003,0.02,0.3,main,,,,,0,84,84,84,,,,,,,cocktailshrimp02.jpg,holdfast.jpg,beaver.jpg,leafrake.jpg,xylophone.jpg,bullet.jpg,rubikcube.jpg,tank.jpg,hotdogweiner.jpg,humanskeleton.jpg,birdfeeder.jpg,ironingboard01.jpg,snowshoe.jpg,urinal.jpg,baseballbat.jpg,daddylonglegs.jpg,stubbywrench01a.jpg,,,,,0,0,7,,,,,.\resources\xylophone.jpg,,,1,,,,,,,,,1,,,,,,,,,None,674.4968414500003,None,674.4968414500003,None,,,,,,,669.8304735000002,672.5806507999996,672.3140043000003,None,0.04432560037532996,672.8135917,None,672.8135917,None,673.3635358000001,None,673.3635358000001,None,right,0.8570311999992555,673.3635358000001,None,674.3134790000004,None,right,0.16302509999968606,674.3134790000004,None,674.3134790000004,None,-5.2885659484235035,151.03200499641406,,9,001,2021_Apr_08_1357,AB_pic_singleT2,2021.1.2,60.02044296306862,
AB,lag1,1,4,5,0.06000000005000003,0.02,0.3,main,,,,,0,85,85,85,,,,,,,lollipop04.jpg,bench01.jpg,toyanimal05.jpg,bull.jpg,toad.jpg,escalator.jpg,car.jpg,cruiseship.jpg,pingpongtable.jpg,noparkingsign.jpg,dragonfly01.jpg,harmonica.jpg,vulture.jpg,hockeypuck.jpg,acorn.jpg,bridge.jpg,skateboard.jpg,,,,,0,1,7,,,,,.\resources\toad.jpg,,,1,,,,,,,,,0,,,,,,,,,None,679.1298105500003,None,679.1298105500003,None,,,,,,,674.5134582000001,677.2637748999996,676.9967110999996,None,0.044195005619516704,677.5137653000002,None,677.5137653000002,None,678.0299183999996,None,678.0299183999996,None,right,0.7985110000008717,678.0299183999996,None,678.9131545,None,right,0.1952330999993137,678.9131545,None,678.9131545,None,-5.269449292772175,151.04317849939204,,9,001,2021_Apr_08_1357,AB_pic_singleT2,2021.1.2,60.02044296306862,
AB,lag5,5,4,9,0.06000000005000003,0.02,0.3,main,,,,,0,86,86,86,,,,,,,birdfeeder.jpg,ostrich.jpg,vulture.jpg,redfox.jpg,jeans01.jpg,seagull.jpg,eyepatch.jpg,greathornowl.jpg,moose.jpg,swing.jpg,dartboard.jpg,popcorn.jpg,foosballtable.jpg,mrpotatohead.jpg,masquerademask01.jpg,sword01.jpg,motorcycle.jpg,,,,,0,0,11,,,,,.\resources\moose.jpg,,,1,,,,,,,,,1,,,,,,,,,None,684.2127843499997,None,684.2127843499997,None,,,,,,,679.1464765000001,681.8967063999999,681.6133690999995,None,0.04406517209195817,682.1129321999997,None,682.1129321999997,None,682.9128701,None,682.9128701,None,right,1.0115770000002158,682.9128701,None,683.9961254999998,None,right,0.1682738999998037,683.9961254999998,None,683.9961254999998,None,-5.250442727024381,151.05434848374105,,9,001,2021_Apr_08_1357,AB_pic_singleT2,2021.1.2,60.02044296306862,
AB,lag7,7,4,11,0.06000000005000003,0.02,0.3,main,,,,,0,87,87,87,,,,,,,birdfeeder.jpg,rose.jpg,flamingo.jpg,dormer.jpg,dartboard.jpg,microwave.jpg,tree.jpg,bluecheese.jpg,electrictoothbrush01c.jpg,witchhat.jpg,athleticsock.jpg,panda.jpg,worldmap.jpg,foosballtable.jpg,kangaroo.jpg,toad.jpg,golfball.jpg,,,,,1,0,13,,,,,.\resources\athleticsock.jpg,,,1,,,,,,,,,1,,,,,,,,,None,689.61239195,None,689.61239195,None,,,,,,,684.2294658000001,686.9796413000004,686.7129953000003,None,0.043936087605307345,687.2125524000003,None,687.2125524000003,None,688.1291531999996,None,688.1291531999996,None,left,0.9472555999991528,688.1291531999996,None,689.1624339999998,None,right,0.41000220000023546,689.1624339999998,None,689.1624339999998,None,-5.231544452978985,151.06551262311865,,9,001,2021_Apr_08_1357,AB_pic_singleT2,2021.1.2,60.02044296306862,
AB,lag4,4,3,7,0.06000000005000003,0.02,0.3,main,,,,,0,88,88,88,,,,,,,beerbottle.jpg,guitarcase.jpg,tulip02.jpg,waterfountain02.jpg,fridge.jpg,barrel01.jpg,cheetah.jpg,platypus.jpg,rollerblade.jpg,daddylonglegs.jpg,foldingchair.jpg,cork02.jpg,bluejay.jpg,swing.jpg,harmonica.jpg,humanskeleton.jpg,spear02.jpg,,,,,0,0,9,,,,,.\resources\cheetah.jpg,,,1,,,,,,,,,1,,,,,,,,,None,695.3119845499999,None,695.3119845499999,None,,,,,,,689.6290777000004,692.3788562,692.1122115999997,None,0.04380774075555681,692.6121776999998,None,692.6121776999998,None,693.2787791999999,None,693.2787791999999,None,right,1.7495614999997997,693.2787791999999,None,695.0953215999998,None,right,0.1890717999995104,695.0953215999998,None,695.0953215999998,None,-5.212752797682688,151.07666888069164,,9,001,2021_Apr_08_1357,AB_pic_singleT2,2021.1.2,60.02044296306862,
AB,lag6,6,4,10,0.06000000005000003,0.02,0.3,main,,,,,0,89,89,89,,,,,,,foosballtable.jpg,church.jpg,tricycle.jpg,toolbox02.jpg,knee.jpg,vulture.jpg,funnel.jpg,dandelion.jpg,trumpet.jpg,baseballbat.jpg,locker.jpg,pokerchips.jpg,lighthouse.jpg,saxophone.jpg,zebra.jpg,discoball.jpg,bumpercar.jpg,,,,,0,1,12,,,,,.\resources\baseballbat.jpg,,,1,,,,,,,,,1,,,,,,,,,None,700.49489355,None,700.49489355,None,,,,,,,695.3286415000002,698.078837,697.8121903000001,None,0.04368012087964411,698.3117537999997,None,698.3117537999997,None,699.1616863999998,None,699.1616863999998,None,right,0.9066833000006227,699.1616863999998,None,700.1449233000003,None,left,0.331488800000443,700.1449233000003,None,700.1449233000003,None,-5.194066206525024,151.08781549267783,,9,001,2021_Apr_08_1357,AB_pic_singleT2,2021.1.2,60.02044296306862,
AB,lag3,3,3,6,0.06000000005000003,0.02,0.3,main,,,,,0,90,90,90,,,,,,,mrpotatohead.jpg,fireplace.jpg,firehydrant.jpg,tricycle.jpg,drumstick.jpg,jellyfish.jpg,cymbal.jpg,eye.jpg,knee.jpg,locker.jpg,candycane01a.jpg,dromedary.jpg,marble.jpg,paperairplane.jpg,toyanimal05.jpg,boat.jpg,chimney.jpg,,,,,0,1,8,,,,,.\resources\jellyfish.jpg,,,1,,,,,,,,,1,,,,,,,,,None,705.4778950499998,None,705.4778950499998,None,,,,,,,700.5115599000001,703.2617729000003,702.9784380000001,None,0.0435532180155442,703.4780274000004,None,703.4780274000004,None,704.0779682000002,None,704.0779682000002,None,right,0.7584446999999273,704.0779682000002,None,704.9279041,None,left,0.5325932000005196,704.9279041,None,704.9279041,None,-5.175483236734602,151.0989509528861,,9,001,2021_Apr_08_1357,AB_pic_singleT2,2021.1.2,60.02044296306862,
AB,lag2,2,3,5,0.06000000005000003,0.02,0.3,main,,,,,0,91,91,91,,,,,,,barrel01.jpg,bowtie.jpg,drumstick.jpg,hulahoop.jpg,moose.jpg,parkfountain.jpg,schoolbus.jpg,pooltable.jpg,recyclingbin.jpg,bow.jpg,corn02.jpg,kneepad01c.jpg,nunchuk.jpg,well.jpg,basketball01.jpg,sink.jpg,car.jpg,,,,,0,0,7,,,,,.\resources\moose.jpg,,,1,,,,,,,,,0,,,,,,,,,None,710.5608790499995,None,710.5608790499995,None,,,,,,,705.4945399999997,708.244721,707.9780725999999,None,0.04342702286464258,708.4776584000001,None,708.4776584000001,None,709.0110782000002,None,709.0110782000002,None,right,0.9214161999998396,709.0110782000002,None,710.0275371999996,None,left,0.5128906999998435,710.0275371999996,None,710.0275371999996,None,-5.157002551245073,151.11007399818155,,9,001,2021_Apr_08_1357,AB_pic_singleT2,2021.1.2,60.02044296306862,
AB,lag4,4,4,8,0.06000000005000003,0.02,0.3,main,,,,,0,92,92,92,,,,,,,sausage.jpg,beerbottle.jpg,lollipop04.jpg,car.jpg,stool01.jpg,holdfast.jpg,panda.jpg,mummy.jpg,knee.jpg,platypus.jpg,hand01b.jpg,makiroll.jpg,uprightpiano01.jpg,leafrake.jpg,englishcucumber.jpg,frenchfries.jpg,cross01.jpg,,,,,0,0,10,,,,,.\resources\mummy.jpg,,,0,,,,,,,,,1,,,,,,,,,None,716.16042005,None,716.16042005,None,,,,,,,710.5775014000001,713.3276821999998,713.0610708000004,None,0.043301526756208894,713.5611024,None,713.5611024,None,714.2772324999996,None,714.2772324999996,None,left,1.3751125999997384,714.2772324999996,None,715.7271540000002,None,right,0.4051956000002974,715.7271540000002,None,715.7271540000002,None,-5.230407513965272,151.11713746767253,,9,001,2021_Apr_08_1357,AB_pic_singleT2,2021.1.2,60.02044296306862,
AB,lag7,7,4,11,0.06000000005000003,0.02,0.3,main,,,,,0,93,93,93,,,,,,,foldingchair.jpg,jeep.jpg,butterfly.jpg,peacock.jpg,trumpet.jpg,kangaroo.jpg,raccoon.jpg,drumset.jpg,firehydrant.jpg,platypus.jpg,fishingrod.jpg,humanskeleton.jpg,safe.jpg,pooltable.jpg,moon.jpg,jellyfish.jpg,recyclingbin.jpg,,,,,0,0,13,,,,,.\resources\fishingrod.jpg,,,1,,,,,,,,,1,,,,,,,,,None,721.0767387500003,None,721.0767387500003,None,,,,,,,716.1771233999998,718.9272794999997,718.6606287000004,None,0.04378525153376882,719.1606825999997,None,719.1606825999997,None,720.0768104999997,None,720.0768104999997,None,right,0.7436023999998724,720.0768104999997,None,720.8934154999997,None,right,0.15895000000000437,720.8934154999997,None,720.8934154999997,None,-5.215834025105537,151.12799631695327,,9,001,2021_Apr_08_1357,AB_pic_singleT2,2021.1.2,60.02044296306862,
AB,lag1,1,5,6,0.06000000005000003,0.02,0.3,main,,,,,0,94,94,94,,,,,,,snowshovel.jpg,sheep.jpg,well.jpg,hockeystick.jpg,treadmill.jpg,triangle.jpg,beaver.jpg,ladybug03.jpg,jellybean.jpg,turnstile.jpg,seal.jpg,schoolbus.jpg,toilet.jpg,squid.jpg,butterfly.jpg,sausage.jpg,waterfall.jpg,,,,,1,0,8,,,,,.\resources\triangle.jpg,,,0,,,,,,,,,1,,,,,,,,,None,726.3430443499996,None,726.3430443499996,None,,,,,,,721.0934131000004,723.8436365999996,723.5603203999999,None,0.043685674045324537,724.0598958,None,724.0598958,None,724.6598340999999,None,724.6598340999999,None,right,1.2725868999996237,724.6598340999999,None,726.0263981999997,None,right,0.27407359999961045,726.0263981999997,None,726.0263981999997,None,-5.2852289125001874,151.13506691010429,,9,001,2021_Apr_08_1357,AB_pic_singleT2,2021.1.2,60.02044296306862,
AB,lag5,5,4,9,0.06000000005000003,0.02,0.3,main,,,,,0,95,95,95,,,,,,,skippingrope.jpg,noparkingsign.jpg,church.jpg,tie02.jpg,lizard.jpg,mrpotatohead.jpg,exitsign.jpg,toilet.jpg,saxophone.jpg,worldmap.jpg,triangle.jpg,toucan.jpg,panda.jpg,slug.jpg,brownsugar.jpg,ducttape.jpg,wallclock.jpg,,,,,0,1,11,,,,,.\resources\saxophone.jpg,,,1,,,,,,,,,1,,,,,,,,,None,732.5597609499995,None,732.5597609499995,None,,,,,,,726.3597227999999,729.1095598000002,728.8433642,None,0.04414278836815764,729.3428801,None,729.3428801,None,730.1428232999997,None,730.1428232999997,None,right,1.7815130999997564,730.1428232999997,None,731.9926890999996,None,left,0.5396450000007462,731.9926890999996,None,731.9926890999996,None,-5.2711712681502885,151.1457616647687,,9,001,2021_Apr_08_1357,AB_pic_singleT2,2021.1.2,60.02044296306862,
AB,lag2,2,5,7,0.06000000005000003,0.02,0.3,main,,,,,0,96,96,96,,,,,,,golfball.jpg,lighthouse.jpg,mrpotatohead.jpg,mattress.jpg,calendar.jpg,spiderweb.jpg,electricguitar01.jpg,cow.jpg,holdfast.jpg,stool01.jpg,honeybee.jpg,ladybug03.jpg,volleyball.jpg,drumstick.jpg,butterfly.jpg,foosballtable.jpg,mailbox02.jpg,,,,,1,0,9,,,,,.\resources\electricguitar01.jpg,,,1,,,,,,,,,0,,,,,,,,,None,738.0425962499997,None,738.0425962499997,None,,,,,,,732.5764337,735.3258180000003,735.0591353,None,0.04404665771598675,735.5590976000003,None,735.5590976000003,None,736.2257251000001,None,736.2257251000001,None,left,1.4667571999998472,736.2257251000001,None,737.7755414000003,None,left,0.2368851999999606,737.7755414000003,None,737.7755414000003,None,-5.255004764457188,151.15655847771293,,9,001,2021_Apr_08_1357,AB_pic_singleT2,2021.1.2,60.02044296306862,
AB,lag6,6,3,9,0.06000000005000003,0.02,0.3,main,,,,,0,97,97,97,,,,,,,acorn.jpg,icecube02.jpg,candycane01a.jpg,cactus.jpg,fridge.jpg,sledgehammer.jpg,eye.jpg,funnel.jpg,trophy01.jpg,exitsign.jpg,tire.jpg,leafblower01.jpg,daddylonglegs.jpg,bacon.jpg,polarbear.jpg,granolabar01.jpg,wallclock.jpg,,,,,0,0,11,,,,,.\resources\trophy01.jpg,,,1,,,,,,,,,1,,,,,,,,,None,742.8918417500003,None,742.8918417500003,None,,,,,,,738.0592786999996,740.8086641999998,740.5420174999999,None,0.0439365595013616,741.0419837,None,741.0419837,None,741.8423246000002,None,741.8423246000002,None,right,0.7861361000004763,741.8423246000002,None,742.7085263999998,None,right,0.16788359999918612,742.7085263999998,None,742.7085263999998,None,-5.238862280852475,151.1673626722205,,9,001,2021_Apr_08_1357,AB_pic_singleT2,2021.1.2,60.02044296306862,
AB,lag3,3,3,6,0.06000000005000003,0.02,0.3,main,,,,,0,98,98,98,,,,,,,armadillo.jpg,rubikcube.jpg,pumpkin.jpg,peacock.jpg,donut.jpg,frenchfries.jpg,tarantula.jpg,knee.jpg,waterfountain02.jpg,worldmap.jpg,cigar.jpg,beerbottle.jpg,fridge.jpg,locker.jpg,birdnest.jpg,lip.jpg,barrel01.jpg,,,,,0,1,8,,,,,.\resources\frenchfries.jpg,,,1,,,,,,,,,1,,,,,,,,,None,748.0081413499996,None,748.0081413499996,None,,,,,,,742.9085103999996,745.6583066000003,745.3749943000003,None,0.043826633771059685,745.8749529999996,None,745.8749529999996,None,746.4749184000002,None,746.4749184000002,None,right,1.0094632000000274,746.4749184000002,None,747.5748420999998,None,left,0.3975288999999975,747.5748420999998,None,747.5748420999998,None,-5.222798341432205,151.1781697442603,,9,001,2021_Apr_08_1357,AB_pic_singleT2,2021.1.2,60.02044296306862,
AB,lag1,1,3,4,0.06000000005000003,0.02,0.3,main,,,,,0,99,99,99,,,,,,,fishingrod.jpg,masquerademask01.jpg,statue.jpg,tie02.jpg,car.jpg,armadillo.jpg,dromedary.jpg,elbow.jpg,firehydrant.jpg,rubikcube.jpg,beaver.jpg,smokingpipe.jpg,flag.jpg,greywolf.jpg,uprightpiano01.jpg,nosmokingsign.jpg,curtain.jpg,,,,,1,1,6,,,,,.\resources\tie02.jpg,,,1,,,,,,,,,1,,,,,,,,,None,754.7576555500003,None,754.7576555500003,None,,,,,,,748.0252160999999,750.7745943999998,750.5079556999999,None,0.043717242467826746,751.0079532,None,751.0079532,None,751.4745547000002,None,751.4745547000002,None,left,1.7698890000001484,751.4745547000002,None,753.3410596000003,None,left,1.399330700000064,753.3410596000003,None,753.3410596000003,None,-5.2068132914633125,151.18897773678722,,9,001,2021_Apr_08_1357,AB_pic_singleT2,2021.1.2,60.02044296306862,
AB,lag2,2,4,6,0.06000000005000003,0.02,0.3,main,,,,,0,100,100,100,,,,,,,snowshoe.jpg,lily.jpg,drumset.jpg,stool01.jpg,dalmatian.jpg,acorn.jpg,tent.jpg,baseballbat.jpg,hockeystick.jpg,funnel.jpg,elbow.jpg,bowlingpin.jpg,scorpion.jpg,chefshat.jpg,trophy01.jpg,bathtub.jpg,parkfountain.jpg,,,,,0,1,8,,,,,.\resources\acorn.jpg,,,1,,,,,,,,,1,,,,,,,,,None,761.0738336500002,None,761.0738336500002,None,,,,,,,754.7742864000002,757.5244653999998,757.2578218999997,None,0.04360838833146612,757.7574519999998,None,757.7574519999998,None,758.3573568000002,None,758.3573568000002,None,right,2.0389587999998184,758.3573568000002,None,760.4738765000002,None,left,0.5703999000006661,760.4738765000002,None,760.4738765000002,None,-5.190906098961686,151.19978494705086,,9,001,2021_Apr_08_1357,AB_pic_singleT2,2021.1.2,60.02044296306862,
AB,lag3,3,5,8,0.06000000005000003,0.02,0.3,main,,,,,0,101,101,101,,,,,,,jeep.jpg,crab01.jpg,nunchuk.jpg,pigeon.jpg,football.jpg,toyanimal05.jpg,paperairplane.jpg,icecube02.jpg,escalator.jpg,bowlingball.jpg,handcuffs.jpg,englishcucumber.jpg,elbow.jpg,frisbee.jpg,fortunecookie.jpg,trophy01.jpg,tiger02.jpg,,,,,0,0,10,,,,,.\resources\icecube02.jpg,,,1,,,,,,,,,1,,,,,,,,,None,766.15682925,None,766.15682925,None,,,,,,,761.0904889000003,763.8406742999996,763.5573629,None,0.04350006491335201,764.0569440999998,None,764.0569440999998,None,764.7906186999999,None,764.7906186999999,None,right,1.1257065999998304,764.7906186999999,None,765.9901405999999,None,right,0.1503309999998237,765.9901405999999,None,765.9901405999999,None,-5.175075757442956,151.21058985636586,,9,001,2021_Apr_08_1357,AB_pic_singleT2,2021.1.2,60.02044296306862,
AB,lag5,5,3,8,0.06000000005000003,0.02,0.3,main,,,,,0,102,102,102,,,,,,,bridge.jpg,eiffeltower.jpg,frenchfries.jpg,flag.jpg,moon.jpg,steeringwheel.jpg,beaver.jpg,arrow02.jpg,cloud.jpg,sink.jpg,lip.jpg,crown.jpg,saltshaker03a.jpg,squid.jpg,icecube02.jpg,soccerball.jpg,drumset.jpg,,,,,1,1,10,,,,,.\resources\arrow02.jpg,,,1,,,,,,,,,0,,,,,,,,,None,771.82307325,None,771.82307325,None,,,,,,,766.1734876999999,768.9236369999999,768.6570197000001,None,0.04339226587764427,769.1736242999996,None,769.1736242999996,None,769.8902509999998,None,769.8902509999998,None,left,1.4820481999995536,769.8902509999998,None,771.4397347000004,None,right,0.3646750999996584,771.4397347000004,None,771.4397347000004,None,-5.15932132107654,151.22139111944284,,9,001,2021_Apr_08_1357,AB_pic_singleT2,2021.1.2,60.02044296306862,
AB,lag6,6,5,11,0.06000000005000003,0.02,0.3,main,,,,,0,103,103,103,,,,,,,tire.jpg,crab01.jpg,sink.jpg,toad.jpg,hockeystick.jpg,tarantula.jpg,parrot01.jpg,sandcastle.jpg,shovel01.jpg,table01.jpg,armadillo.jpg,parkingmeter.jpg,cloud.jpg,stubbywrench01a.jpg,chimney.jpg,dormer.jpg,birdfeeder.jpg,,,,,1,0,13,,,,,.\resources\armadillo.jpg,,,1,,,,,,,,,1,,,,,,,,,None,778.9725572499996,None,778.9725572499996,None,,,,,,,771.8397154000004,774.5900234999999,774.3235510000004,None,0.04328498523748105,774.8400259999999,None,774.8400259999999,None,775.7394806000002,None,775.7394806000002,None,left,2.7128420999997616,775.7394806000002,None,778.5225929999997,None,right,0.40975040000012086,778.5225929999997,None,778.5225929999997,None,-5.143641902828232,151.23218755578674,,9,001,2021_Apr_08_1357,AB_pic_singleT2,2021.1.2,60.02044296306862,
