consent1.started,consent1.stopped,key_resp_8.keys,key_resp_8.rt,key_resp_8.duration,PROLIFIC_PID,STUDY_ID,SESSION_ID,age,sex,native language,date,expName,psychopyVersion,OS,frameRate,consent2.started,consent2.stopped,key_resp_9.keys,key_resp_9.rt,key_resp_9.duration,consent3.started,consent3.stopped,key_resp_10.keys,key_resp_10.rt,key_resp_10.duration,consent4.started,consent4.stopped,key_resp_11.keys,key_resp_11.rt,key_resp_11.duration,consent5.started,consent5.stopped,key_resp_12.keys,key_resp_12.rt,key_resp_12.duration,bonusInstruct.started,bonusInstruct.stopped,key_resp_14.keys,key_resp_14.rt,key_resp_14.duration,practiceInstruct.started,practiceInstruct.stopped,key_resp.keys,key_resp.rt,key_resp.duration,cueWord_2.started,cueWord_2.stopped,fix.started,frameTarget,fix.stopped,trial.started,img1Add,trial.stopped,img2Add,img3Add,img4Add,img5Add,img6Add,img7Add,img8Add,img9Add,img10Add,img11Add,img12Add,prompt1.started,prompt1.stopped,key_resp_2.keys,key_resp_2.rt,key_resp_2.duration,prompt2.started,prompt2.stopped,key_resp_3.keys,key_resp_3.rt,key_resp_3.duration,runningAcc_AB,runningTotal,runningCount_AB,feedback.started,feedback.stopped,trials.thisRepN,trials.thisTrialN,trials.thisN,trials.thisIndex,trials.ran,TrialType,CondType,Lag,T1_PA,T2_PA,T1Loc,T2Loc,PreDistractor,PostDistractor,TotalImg,cueWord,T1cue,StimLength,isi,PicFolder,Img1,Img2,Img3,Img4,Img5,Img6,Img7,Img8,Img9,Img10,Img11,Img12,Img13,Img14,Img15,Img16,Img17,T1_Identity,trialID,img13Add,img14Add,img15Add,ABfeedback.started,ABfeedback.stopped,key_resp_13.keys,key_resp_13.rt,key_resp_13.duration,MemPracticeInstruction.started,MemPracticeInstruction.stopped,key_resp_5.keys,key_resp_5.rt,key_resp_5.duration,memTrial.started,memTrial.stopped,Mem_runningPoints,key_resp_4.keys,key_resp_4.rt,key_resp_4.duration,memTrialFeedback.started,memTrialFeedback.stopped,trials_2.thisRepN,trials_2.thisTrialN,trials_2.thisN,trials_2.thisIndex,trials_2.ran,ABtrialID,priorLag,image,memFeedback.started,memFeedback.frame,memFeedback.ended,memFeedback.stopped,bonus.started,bonus.stopped,memoryBlockABInstruct.started,memoryBlockABInstruct.stopped,key_resp_6.keys,key_resp_6.rt,key_resp_6.duration,AB_block_1.thisRepN,AB_block_1.thisTrialN,AB_block_1.thisN,AB_block_1.thisIndex,AB_block_1.ran,img16Add,img17Add,AB_break1.started,AB_break1.stopped,PerceiveBlockABInstruct.started,PerceiveBlockABInstruct.stopped,key_resp_7.keys,key_resp_7.rt,key_resp_7.duration,AB_block_2.thisRepN,AB_block_2.thisTrialN,AB_block_2.thisN,AB_block_2.thisIndex,AB_block_2.ran,AB_break2.started,AB_break2.stopped,AB_block_3.thisRepN,AB_block_3.thisTrialN,AB_block_3.thisN,AB_block_3.thisIndex,AB_block_3.ran,AB_break3.started,AB_break3.stopped,AB_block_4.thisRepN,AB_block_4.thisTrialN,AB_block_4.thisN,AB_block_4.thisIndex,AB_block_4.ran,AB_break4.started,AB_break4.stopped,AB_block_5.thisRepN,AB_block_5.thisTrialN,AB_block_5.thisN,AB_block_5.thisIndex,AB_block_5.ran,AB_break5.started,AB_break5.stopped,AB_block_6.thisRepN,AB_block_6.thisTrialN,AB_block_6.thisN,AB_block_6.thisIndex,AB_block_6.ran,AB_break6.started,AB_break6.stopped,MemInstructionSURPRISE.started,MemInstructionSURPRISE.stopped,MemInstruction.started,MemInstruction.stopped,memBreak.started,memBreak.stopped,Mem_block_1.thisRepN,Mem_block_1.thisTrialN,Mem_block_1.thisN,Mem_block_1.thisIndex,Mem_block_1.ran
0.0002,64.6149,space,64.595,,666b178876f7dc389a2c5c32,6682b41eeb79ab8215dff63d,6682b9e2394c61feb913b243,52,male,english,2024-07-01_09h21.16.590,ABmemTask3,2023.2.3,Win32,60.24096386,,,,,,,,,,,,,,,,,,,,,,,,,,,,,,,,,,,,,,,,,,,,,,,,,,,,,,,,,,,,,,,,,,,,,,,,,,,,,,,,,,,,,,,,,,,,,,,,,,,,,,,,,,,,,,,,,,,,,,,,,,,,,,,,,,,,,,,,,,,,,,,,,,,,,,,,,,,,,,,,,,,,,,,,,,,,,,,,,,,,,,,,,,,,,,,,,,,,,,,,,,,
,,,,,666b178876f7dc389a2c5c32,6682b41eeb79ab8215dff63d,6682b9e2394c61feb913b243,52,male,english,2024-07-01_09h21.16.590,ABmemTask3,2023.2.3,Win32,60.24096386,64.615,74.9915,space,10.3393,,,,,,,,,,,,,,,,,,,,,,,,,,,,,,,,,,,,,,,,,,,,,,,,,,,,,,,,,,,,,,,,,,,,,,,,,,,,,,,,,,,,,,,,,,,,,,,,,,,,,,,,,,,,,,,,,,,,,,,,,,,,,,,,,,,,,,,,,,,,,,,,,,,,,,,,,,,,,,,,,,,,,,,,,,,,,,,,,,,,,,,,,,,,,,,,,,,,,,,
,,,,,666b178876f7dc389a2c5c32,6682b41eeb79ab8215dff63d,6682b9e2394c61feb913b243,52,male,english,2024-07-01_09h21.16.590,ABmemTask3,2023.2.3,Win32,60.24096386,,,,,,74.9918,87.5072,space,12.4875,,,,,,,,,,,,,,,,,,,,,,,,,,,,,,,,,,,,,,,,,,,,,,,,,,,,,,,,,,,,,,,,,,,,,,,,,,,,,,,,,,,,,,,,,,,,,,,,,,,,,,,,,,,,,,,,,,,,,,,,,,,,,,,,,,,,,,,,,,,,,,,,,,,,,,,,,,,,,,,,,,,,,,,,,,,,,,,,,,,,,,,,,,,,,,,,,,
,,,,,666b178876f7dc389a2c5c32,6682b41eeb79ab8215dff63d,6682b9e2394c61feb913b243,52,male,english,2024-07-01_09h21.16.590,ABmemTask3,2023.2.3,Win32,60.24096386,,,,,,,,,,,87.5074,89.3734,space,1.8436,,,,,,,,,,,,,,,,,,,,,,,,,,,,,,,,,,,,,,,,,,,,,,,,,,,,,,,,,,,,,,,,,,,,,,,,,,,,,,,,,,,,,,,,,,,,,,,,,,,,,,,,,,,,,,,,,,,,,,,,,,,,,,,,,,,,,,,,,,,,,,,,,,,,,,,,,,,,,,,,,,,,,,,,,,,,,,,,,,,,,,,,,,,,,
,,,,,666b178876f7dc389a2c5c32,6682b41eeb79ab8215dff63d,6682b9e2394c61feb913b243,52,male,english,2024-07-01_09h21.16.590,ABmemTask3,2023.2.3,Win32,60.24096386,,,,,,,,,,,,,,,,89.3735,116.3056,space,26.9115,,,,,,,,,,,,,,,,,,,,,,,,,,,,,,,,,,,,,,,,,,,,,,,,,,,,,,,,,,,,,,,,,,,,,,,,,,,,,,,,,,,,,,,,,,,,,,,,,,,,,,,,,,,,,,,,,,,,,,,,,,,,,,,,,,,,,,,,,,,,,,,,,,,,,,,,,,,,,,,,,,,,,,,,,,,,,,,,,,,,,,,,
,,,,,666b178876f7dc389a2c5c32,6682b41eeb79ab8215dff63d,6682b9e2394c61feb913b243,52,male,english,2024-07-01_09h21.16.590,ABmemTask3,2023.2.3,Win32,60.24096386,,,,,,,,,,,,,,,,,,,,,116.3057,122.0219,space,5.6908,,,,,,,,,,,,,,,,,,,,,,,,,,,,,,,,,,,,,,,,,,,,,,,,,,,,,,,,,,,,,,,,,,,,,,,,,,,,,,,,,,,,,,,,,,,,,,,,,,,,,,,,,,,,,,,,,,,,,,,,,,,,,,,,,,,,,,,,,,,,,,,,,,,,,,,,,,,,,,,,,,,,,,,,,,,,,,,,,,,
,,,,,666b178876f7dc389a2c5c32,6682b41eeb79ab8215dff63d,6682b9e2394c61feb913b243,52,male,english,2024-07-01_09h21.16.590,ABmemTask3,2023.2.3,Win32,60.24096386,,,,,,,,,,,,,,,,,,,,,,,,,,122.0221,180.8854,space,58.8404,,,,,,,,,,,,,,,,,,,,,,,,,,,,,,,,,,,,,,,,,,,,,,,,,,,,,,,,,,,,,,,,,,,,,,,,,,,,,,,,,,,,,,,,,,,,,,,,,,,,,,,,,,,,,,,,,,,,,,,,,,,,,,,,,,,,,,,,,,,,,,,,,,,,,,,,,,,,,,,,,,,,,,,,,,,,,,
,,,,,666b178876f7dc389a2c5c32,6682b41eeb79ab8215dff63d,6682b9e2394c61feb913b243,52,male,english,2024-07-01_09h21.16.590,ABmemTask3,2023.2.3,Win32,60.24096386,,,,,,,,,,,,,,,,,,,,,,,,,,,,,,,180.8975,181.9007,181.9011,15,182.4013,185.1511,0.0029,185.4003,0.2475,0.2497,0.25,0.25,0.25,0.2499,0.25,0.2502,0.2498,0.25,0.25,185.4014,188.5341,right,3.1127,,188.5342,191.9008,right,3.3448,,-2,0,2,191.901,192.9005,0,0,0,0,1,prac_AB,L1_T1P_T2A,1,1,0,6,7,5,5,12,cat,Did you see the cat,0.25,0,resources/,pics/shipinabottle.jpg,pics/table01.jpg,pics/dustpan.jpg,pics/golfball.jpg,pics/giraffe.jpg,pics/cat.jpg,pics/peanut01.jpg,pics/pictureframe04.jpg,pics/fanblades.jpg,pics/laptop01a.jpg,pics/ball02.jpg,pics/blender.jpg,blankImage,blankImage,blankImage,blankImage,blankImage,cat,8,,,,,,,,,,,,,,,,,,,,,,,,,,,,,,,,,,,,,,,,,,,,,,,,,,,,,,,,,,,,,,,,,,,,,,,,,,,,,,,,,,,,,,,,,,,,,,,,,,,,
,,,,,666b178876f7dc389a2c5c32,6682b41eeb79ab8215dff63d,6682b9e2394c61feb913b243,52,male,english,2024-07-01_09h21.16.590,ABmemTask3,2023.2.3,Win32,60.24096386,,,,,,,,,,,,,,,,,,,,,,,,,,,,,,,192.9076,193.8997,193.8998,14,194.4,196.5004,0.0011,196.7333,0.233,0.2335,0.2331,0.2333,0.2334,0.2335,0.2331,0.2336,0.2332,,,196.7335,197.6164,right,0.8702,,197.6167,198.267,right,0.6347,,0,0,4,198.267,199.2666,0,1,1,1,1,prac_AB,L1_T1P_T2P,1,1,1,5,6,4,4,10,tree,Did you see the tree,0.24,0,resources/,pics/carrot01.jpg,pics/hammerheadshark.jpg,pics/kangaroo.jpg,pics/proboscismonkey.jpg,pics/tree.jpg,pics/stapler07.jpg,pics/siamesecat.jpg,pics/ball02.jpg,pics/pictureframe04.jpg,pics/mummy.jpg,blankImage,blankImage,blankImage,blankImage,blankImage,blankImage,blankImage,tree,1,,,,,,,,,,,,,,,,,,,,,,,,,,,,,,,,,,,,,,,,,,,,,,,,,,,,,,,,,,,,,,,,,,,,,,,,,,,,,,,,,,,,,,,,,,,,,,,,,,,,
,,,,,666b178876f7dc389a2c5c32,6682b41eeb79ab8215dff63d,6682b9e2394c61feb913b243,52,male,english,2024-07-01_09h21.16.590,ABmemTask3,2023.2.3,Win32,60.24096386,,,,,,,,,,,,,,,,,,,,,,,,,,,,,,,199.2732,200.2661,200.2663,14,200.7665,203.3332,0.0012,203.5661,0.2327,0.2334,0.2332,0.2334,0.2333,0.2333,0.2332,0.2333,0.2334,0.2333,0.2333,203.5664,204.6166,left,1.0303,,204.6166,205.3163,right,0.6835,,2,0,6,205.3164,206.3162,0,2,2,2,1,prac_AB,L1_T1A_T2P,1,0,1,7,8,6,4,12,grapes,Did you see the grapes,0.23,0,resources/,pics/sailboat.jpg,pics/butterfly.jpg,pics/giraffe.jpg,pics/spoon01.jpg,pics/hose.jpg,pics/nutcracker01.jpg,pics/table01.jpg,pics/stapler13.jpg,pics/pencil01.jpg,pics/football.jpg,pics/triangle.jpg,pics/hairdryer02a.jpg,blankImage,blankImage,blankImage,blankImage,blankImage,grape01,6,,,,,,,,,,,,,,,,,,,,,,,,,,,,,,,,,,,,,,,,,,,,,,,,,,,,,,,,,,,,,,,,,,,,,,,,,,,,,,,,,,,,,,,,,,,,,,,,,,,,
,,,,,666b178876f7dc389a2c5c32,6682b41eeb79ab8215dff63d,6682b9e2394c61feb913b243,52,male,english,2024-07-01_09h21.16.590,ABmemTask3,2023.2.3,Win32,60.24096386,,,,,,,,,,,,,,,,,,,,,,,,,,,,,,,206.3166,207.3163,207.3164,13,207.8163,210.8495,0.0014,211.0653,0.2155,0.2166,0.2167,0.2167,0.2164,0.217,0.2164,0.2167,0.2167,0.2166,0.2166,211.0657,211.8994,right,0.8144,,211.8995,212.799,right,0.884,,4,0,8,212.7991,213.7989,0,3,3,3,1,prac_AB,L5_T1P_T2P,5,1,1,7,12,6,3,15,Human skull,Did you see the Human skull,0.22,0,resources/,pics/peach01.jpg,pics/proboscismonkey.jpg,pics/hose.jpg,pics/laptop01a.jpg,pics/hammerheadshark.jpg,pics/nutcracker01.jpg,pics/humanskull.jpg,pics/table01.jpg,pics/icecube01.jpg,pics/boot02b.jpg,pics/calendar.jpg,pics/stapler03a.jpg,pics/ashtray01.jpg,pics/giraffe.jpg,pics/dromedary.jpg,blankImage,blankImage,humanskull,12,0.2167,0.2166,0.2167,,,,,,,,,,,,,,,,,,,,,,,,,,,,,,,,,,,,,,,,,,,,,,,,,,,,,,,,,,,,,,,,,,,,,,,,,,,,,,,,,,,,,,,,,,,,,,,,,
,,,,,666b178876f7dc389a2c5c32,6682b41eeb79ab8215dff63d,6682b9e2394c61feb913b243,52,male,english,2024-07-01_09h21.16.590,ABmemTask3,2023.2.3,Win32,60.24096386,,,,,,,,,,,,,,,,,,,,,,,,,,,,,,,213.8055,214.799,214.7991,13,215.2989,217.4657,0.0013,217.6815,0.216,0.2166,0.2167,0.2166,0.2168,0.2165,0.2167,0.2166,0.2166,0.2167,,217.6816,218.5824,left,0.8814,,218.5824,219.4658,right,0.8664,,6,0,10,219.4658,220.4651,0,4,4,4,1,prac_AB,L1_T1A_T2P,1,0,1,7,8,6,3,11,dog,Did you see the dog,0.21,0,resources/,pics/ball02.jpg,pics/binder03b.jpg,pics/dromedary.jpg,pics/shipinabottle.jpg,pics/proboscismonkey.jpg,pics/laptop01a.jpg,pics/chainsaw.jpg,pics/stapler13.jpg,pics/nutcracker01.jpg,pics/carrot01.jpg,pics/calendar.jpg,blankImage,blankImage,blankImage,blankImage,blankImage,blankImage,saintbernard,7,,,,,,,,,,,,,,,,,,,,,,,,,,,,,,,,,,,,,,,,,,,,,,,,,,,,,,,,,,,,,,,,,,,,,,,,,,,,,,,,,,,,,,,,,,,,,,,,,,,,
,,,,,666b178876f7dc389a2c5c32,6682b41eeb79ab8215dff63d,6682b9e2394c61feb913b243,52,male,english,2024-07-01_09h21.16.590,ABmemTask3,2023.2.3,Win32,60.24096386,,,,,,,,,,,,,,,,,,,,,,,,,,,,,,,220.4657,221.4649,221.4652,12,221.9652,224.7656,0.0011,224.9648,0.1994,0.1999,0.2001,0.2001,0.1999,0.2,0.1999,0.1999,0.2,0.2001,0.2002,224.9651,225.715,right,0.7379,,225.7152,226.4152,right,0.6845,,8,0,12,226.4153,227.4146,0,5,5,5,1,prac_AB,L5_T1P_T2P,5,1,1,5,10,4,5,15,grater,Did you see the grater,0.2,0,resources/,pics/pencil01.jpg,pics/laptop01a.jpg,pics/hammerheadshark.jpg,pics/cork02.jpg,pics/grater01a.jpg,pics/shipinabottle.jpg,pics/binder03b.jpg,pics/dromedary.jpg,pics/pictureframe04.jpg,pics/stapler04b.jpg,pics/fanblades.jpg,pics/aquarium.jpg,pics/hairdryer02a.jpg,pics/lightswitch01.jpg,pics/piggybank.jpg,blankImage,blankImage,grater01a,11,0.1998,0.1999,0.2002,,,,,,,,,,,,,,,,,,,,,,,,,,,,,,,,,,,,,,,,,,,,,,,,,,,,,,,,,,,,,,,,,,,,,,,,,,,,,,,,,,,,,,,,,,,,,,,,,
,,,,,666b178876f7dc389a2c5c32,6682b41eeb79ab8215dff63d,6682b9e2394c61feb913b243,52,male,english,2024-07-01_09h21.16.590,ABmemTask3,2023.2.3,Win32,60.24096386,,,,,,,,,,,,,,,,,,,,,,,,,,,,,,,227.4234,228.4149,228.4151,11,228.915,230.3817,0.001,230.5641,0.1825,0.1836,0.1833,0.1832,0.1834,0.1834,0.1834,0.1831,,,,230.5643,232.1479,right,1.5712,,232.1481,232.8148,left,0.657,,10,0,14,232.8148,233.8143,0,6,6,6,1,prac_AB,L1_T1P_T2A,1,1,0,4,5,3,4,9,chalk,Did you see the chalk,0.19,0,resources/,pics/necklace.jpg,pics/starfish01.jpg,pics/safetypin.jpg,pics/chalk.jpg,pics/candleholder01.jpg,pics/bowtie.jpg,pics/match.jpg,pics/candle01.jpg,pics/pencilsharpener02a.jpg,blankImage,blankImage,blankImage,blankImage,blankImage,blankImage,blankImage,blankImage,chalk,9,,,,,,,,,,,,,,,,,,,,,,,,,,,,,,,,,,,,,,,,,,,,,,,,,,,,,,,,,,,,,,,,,,,,,,,,,,,,,,,,,,,,,,,,,,,,,,,,,,,,
,,,,,666b178876f7dc389a2c5c32,6682b41eeb79ab8215dff63d,6682b9e2394c61feb913b243,52,male,english,2024-07-01_09h21.16.590,ABmemTask3,2023.2.3,Win32,60.24096386,,,,,,,,,,,,,,,,,,,,,,,,,,,,,,,233.8213,234.8139,234.814,11,235.3146,236.9647,0.0012,237.1476,0.1826,0.1834,0.1833,0.1832,0.1834,0.1834,0.1833,0.1832,0.1835,,,237.1477,237.9974,right,0.8324,,237.9977,238.5805,right,0.5666,,12,0,16,238.5809,239.5806,0,7,7,7,1,prac_AB,L1_T1P_T2P,1,1,1,5,6,4,4,10,pants,Did you see the pants,0.18,0,resources/,pics/kangaroo.jpg,pics/safetypin.jpg,pics/salmon.jpg,pics/sandbarshark.jpg,pics/pants.jpg,pics/stapler03a.jpg,pics/sink.jpg,pics/calendar.jpg,pics/butterfly.jpg,pics/fanblades.jpg,blankImage,blankImage,blankImage,blankImage,blankImage,blankImage,blankImage,pants,2,,,,,,,,,,,,,,,,,,,,,,,,,,,,,,,,,,,,,,,,,,,,,,,,,,,,,,,,,,,,,,,,,,,,,,,,,,,,,,,,,,,,,,,,,,,,,,,,,,,,
,,,,,666b178876f7dc389a2c5c32,6682b41eeb79ab8215dff63d,6682b9e2394c61feb913b243,52,male,english,2024-07-01_09h21.16.590,ABmemTask3,2023.2.3,Win32,60.24096386,,,,,,,,,,,,,,,,,,,,,,,,,,,,,,,239.5813,240.581,240.5811,10,241.0806,243.4144,0.0012,243.5801,0.1661,0.1667,0.1666,0.1665,0.1667,0.1666,0.1668,0.1667,0.1667,0.1666,0.1666,243.5805,244.6476,left,1.0492,,244.6477,244.9465,right,0.2871,,14,0,18,244.9469,245.9473,0,8,8,8,1,prac_AB,L5_T1A_T2P,5,0,1,7,12,6,3,15,shirt,Did you see the shirt,0.17,0,resources/,pics/banjo.jpg,pics/chainsaw.jpg,pics/sailboat.jpg,pics/shipinabottle.jpg,pics/lightswitch01.jpg,pics/starfish01.jpg,pics/hen.jpg,pics/ball02.jpg,pics/bowlingpin.jpg,pics/hammerheadshark.jpg,pics/footballhelmet.jpg,pics/stapler10.jpg,pics/laptop01a.jpg,pics/cannon.jpg,pics/golfball.jpg,blankImage,blankImage,shirt02,13,0.1666,0.1668,0.1666,,,,,,,,,,,,,,,,,,,,,,,,,,,,,,,,,,,,,,,,,,,,,,,,,,,,,,,,,,,,,,,,,,,,,,,,,,,,,,,,,,,,,,,,,,,,,,,,,
,,,,,666b178876f7dc389a2c5c32,6682b41eeb79ab8215dff63d,6682b9e2394c61feb913b243,52,male,english,2024-07-01_09h21.16.590,ABmemTask3,2023.2.3,Win32,60.24096386,,,,,,,,,,,,,,,,,,,,,,,,,,,,,,,245.9477,246.9468,246.947,10,247.4469,249.1139,0.0013,249.2803,0.166,0.1667,0.1669,0.1662,0.1669,0.1666,0.1666,0.1667,0.1666,0.1667,,249.2805,250.8802,right,1.581,,250.8804,251.3971,right,0.499,,16,0,20,251.3971,252.3962,0,9,9,9,1,prac_AB,L1_T1P_T2P,1,1,1,7,8,6,3,11,tongs,Did you see the tongs,0.16,0,resources/,pics/sewingmachine01a.jpg,pics/shovel01.jpg,pics/football.jpg,pics/hen.jpg,pics/banjo.jpg,pics/zebra.jpg,pics/tongs01b.jpg,pics/stapler11.jpg,pics/shipinabottle.jpg,pics/match.jpg,pics/candle01.jpg,blankImage,blankImage,blankImage,blankImage,blankImage,blankImage,tongs01b,5,,,,,,,,,,,,,,,,,,,,,,,,,,,,,,,,,,,,,,,,,,,,,,,,,,,,,,,,,,,,,,,,,,,,,,,,,,,,,,,,,,,,,,,,,,,,,,,,,,,,
,,,,,666b178876f7dc389a2c5c32,6682b41eeb79ab8215dff63d,6682b9e2394c61feb913b243,52,male,english,2024-07-01_09h21.16.590,ABmemTask3,2023.2.3,Win32,60.24096386,,,,,,,,,,,,,,,,,,,,,,,,,,,,,,,252.3972,253.3965,253.3967,9,253.8963,255.5468,0.0011,255.696,0.1496,0.1502,0.1499,0.1501,0.1499,0.1499,0.1502,0.1498,0.1502,0.1499,0.1499,255.6964,256.9632,left,1.251,,256.9634,257.5796,left,0.6082,,18,0,22,257.5797,258.5799,0,10,10,10,1,prac_AB,L1_T1A_T2A,1,0,0,7,8,6,4,12,camera,Did you see the camera,0.15,0,resources/,pics/lightswitch01.jpg,pics/table01.jpg,pics/aquarium.jpg,pics/boot02b.jpg,pics/butterfly.jpg,pics/chainsaw.jpg,pics/binoculars01b.jpg,pics/giraffe.jpg,pics/triangle.jpg,pics/microscope.jpg,pics/mummy.jpg,pics/icecube01.jpg,blankImage,blankImage,blankImage,blankImage,blankImage,camera01a,10,,,,,,,,,,,,,,,,,,,,,,,,,,,,,,,,,,,,,,,,,,,,,,,,,,,,,,,,,,,,,,,,,,,,,,,,,,,,,,,,,,,,,,,,,,,,,,,,,,,,
,,,,,666b178876f7dc389a2c5c32,6682b41eeb79ab8215dff63d,6682b9e2394c61feb913b243,52,male,english,2024-07-01_09h21.16.590,ABmemTask3,2023.2.3,Win32,60.24096386,,,,,,,,,,,,,,,,,,,,,,,,,,,,,,,258.5803,259.5793,259.5795,8,260.0796,261.2799,0.0009,261.4128,0.1329,0.1336,0.1331,0.1333,0.1333,0.1336,0.1331,0.1334,0.1332,,,261.413,262.1962,right,0.77,,262.1963,262.5796,right,0.3654,,20,0,24,262.5796,263.5796,0,11,11,11,1,prac_AB,L1_T1P_T2P,1,1,1,6,7,5,3,10,shorts,Did you see the shorts,0.14,0,resources/,pics/snowshoe.jpg,pics/chainsaw.jpg,pics/sailboat.jpg,pics/ball02.jpg,pics/candleholder01.jpg,pics/shorts01.jpg,pics/stapler07.jpg,pics/peach01.jpg,pics/proboscismonkey.jpg,pics/hen.jpg,blankImage,blankImage,blankImage,blankImage,blankImage,blankImage,blankImage,shorts01,4,,,,,,,,,,,,,,,,,,,,,,,,,,,,,,,,,,,,,,,,,,,,,,,,,,,,,,,,,,,,,,,,,,,,,,,,,,,,,,,,,,,,,,,,,,,,,,,,,,,,
,,,,,666b178876f7dc389a2c5c32,6682b41eeb79ab8215dff63d,6682b9e2394c61feb913b243,52,male,english,2024-07-01_09h21.16.590,ABmemTask3,2023.2.3,Win32,60.24096386,,,,,,,,,,,,,,,,,,,,,,,,,,,,,,,263.58,264.5786,264.5787,8,265.0792,266.6796,0.001,266.8121,0.133,0.1331,0.1335,0.1332,0.1335,0.1331,0.1335,0.1332,0.1336,0.1332,0.1333,266.8123,268.1786,right,1.3487,,268.1788,268.5623,left,0.3657,,22,0,26,268.5625,269.5619,0,12,12,12,1,prac_AB,L5_T1P_T2A,5,1,0,5,10,4,3,13,fish,Did you see the fish,0.13,0,resources/,pics/football.jpg,pics/safetypin.jpg,pics/shovel01.jpg,pics/sink.jpg,pics/holdfast.jpg,pics/nutcracker01.jpg,pics/starfish01.jpg,pics/onion.jpg,pics/footballhelmet.jpg,pics/boot02b.jpg,pics/sewingmachine01a.jpg,pics/kangaroo.jpg,pics/banjo.jpg,blankImage,blankImage,blankImage,blankImage,holdfast,14,0.1334,,,,,,,,,,,,,,,,,,,,,,,,,,,,,,,,,,,,,,,,,,,,,,,,,,,,,,,,,,,,,,,,,,,,,,,,,,,,,,,,,,,,,,,,,,,,,,,,,,,
,,,,,666b178876f7dc389a2c5c32,6682b41eeb79ab8215dff63d,6682b9e2394c61feb913b243,52,male,english,2024-07-01_09h21.16.590,ABmemTask3,2023.2.3,Win32,60.24096386,,,,,,,,,,,,,,,,,,,,,,,,,,,,,,,269.5713,270.5625,270.5626,7,271.0621,272.1128,0.001,272.2287,0.1162,0.1167,0.1168,0.1166,0.1168,0.1165,0.1166,0.1167,0.1169,,,272.2288,273.7619,right,1.5174,,273.7621,274.7456,left,0.9677,,22,0,28,274.7457,275.7452,0,13,13,13,1,prac_AB,L1_T1P_T2P,1,1,1,5,6,4,4,10,fish,Did you see the fish,0.12,0,resources/,pics/butterfly.jpg,pics/banjo.jpg,pics/leaf02a.jpg,pics/dustpan.jpg,pics/sturgeon.jpg,pics/stapler02.jpg,pics/necklace.jpg,pics/shovel01.jpg,pics/starfish01.jpg,pics/chainsaw.jpg,blankImage,blankImage,blankImage,blankImage,blankImage,blankImage,blankImage,sturgeon,3,,,,,,,,,,,,,,,,,,,,,,,,,,,,,,,,,,,,,,,,,,,,,,,,,,,,,,,,,,,,,,,,,,,,,,,,,,,,,,,,,,,,,,,,,,,,,,,,,,,,
,,,,,666b178876f7dc389a2c5c32,6682b41eeb79ab8215dff63d,6682b9e2394c61feb913b243,52,male,english,2024-07-01_09h21.16.590,ABmemTask3,2023.2.3,Win32,60.24096386,,,,,,,,,,,,,,,,,,,,,,,,,,,,,,,,,,,,,,,,,,,,,,,,,,,,,,,,,,,,,,,,,,,,,,,,,,,,,,,,,,,,,,,,,,,,,,,,,,,,,,,,,,,275.7462,281.0458,space,5.2816,,,,,,,,,,,,,,,,,,,,,,,,,,,,,,,,,,,,,,,,,,,,,,,,,,,,,,,,,,,,,,,,,,,,,,,,,,,,,,,,,,,,,,,,,,,,,
,,,,,666b178876f7dc389a2c5c32,6682b41eeb79ab8215dff63d,6682b9e2394c61feb913b243,52,male,english,2024-07-01_09h21.16.590,ABmemTask3,2023.2.3,Win32,60.24096386,,,,,,,,,,,,,,,,,,,,,,,,,,,,,,,,,,,,,,,,,,,,,,,,,,,,,,,,,,,,,,,,,,,,,,,,,,,,,,,,,,,,,,,,,,,,,,,,,,,,,,,,,,,281.0569,281.0599,,,,,,,,,,,,,,,,,,,,,,,,,,,,,,,,,,,,,,,,,,,,,,,,,,,,,,,,,,,,,,,,,,,,,,,,,,,,,,,,,,,,,,,,,,,,,,,
,,,,,666b178876f7dc389a2c5c32,6682b41eeb79ab8215dff63d,6682b9e2394c61feb913b243,52,male,english,2024-07-01_09h21.16.590,ABmemTask3,2023.2.3,Win32,60.24096386,,,,,,,,,,,,,,,,,,,,,,,,,,,,,,,,,,,,,,,,,,,,,,,,,,,,,,,,,,,,,,,,,,,,,,,,,,,,,,,,,,,,,,,,,,,,,,,,,,,,,,,,,,,281.0627,281.0628,,,,,,,,,,,,,,,,,,,,,,,,,,,,,,,,,,,,,,,,,,,,,,,,,,,,,,,,,,,,,,,,,,,,,,,,,,,,,,,,,,,,,,,,,,,,,,,
,,,,,666b178876f7dc389a2c5c32,6682b41eeb79ab8215dff63d,6682b9e2394c61feb913b243,52,male,english,2024-07-01_09h21.16.590,ABmemTask3,2023.2.3,Win32,60.24096386,,,,,,,,,,,,,,,,,,,,,,,,,,,,,,,,,,,,,,,,,,,,,,,,,,,,,,,,,,,,,,,,,,,,,,,,,,,,,,,,,,,,,,,,,,,,,,,,,,,,,,,,,,,281.0646,281.0646,,,,,,,,,,,,,,,,,,,,,,,,,,,,,,,,,,,,,,,,,,,,,,,,,,,,,,,,,,,,,,,,,,,,,,,,,,,,,,,,,,,,,,,,,,,,,,,
,,,,,666b178876f7dc389a2c5c32,6682b41eeb79ab8215dff63d,6682b9e2394c61feb913b243,52,male,english,2024-07-01_09h21.16.590,ABmemTask3,2023.2.3,Win32,60.24096386,,,,,,,,,,,,,,,,,,,,,,,,,,,,,,,,,,,,,,,,,,,,,,,,,,,,,,,,,,,,,,,,,,,,,,,,,,,,,,,,,,,,,,,,,,,,,,,,,,,,,,,,,,,281.0655,281.0655,,,,,,,,,,,,,,,,,,,,,,,,,,,,,,,,,,,,,,,,,,,,,,,,,,,,,,,,,,,,,,,,,,,,,,,,,,,,,,,,,,,,,,,,,,,,,,,
,,,,,666b178876f7dc389a2c5c32,6682b41eeb79ab8215dff63d,6682b9e2394c61feb913b243,52,male,english,2024-07-01_09h21.16.590,ABmemTask3,2023.2.3,Win32,60.24096386,,,,,,,,,,,,,,,,,,,,,,,,,,,,,,,,,,,,,,,,,,,,,,,,,,,,,,,,,,,,,,,,,,,,,,,,,,,,,,,,,,,,,,,,,,,,,,,,,,,,,,,,,,,281.0665,281.0665,,,,,,,,,,,,,,,,,,,,,,,,,,,,,,,,,,,,,,,,,,,,,,,,,,,,,,,,,,,,,,,,,,,,,,,,,,,,,,,,,,,,,,,,,,,,,,,
,,,,,666b178876f7dc389a2c5c32,6682b41eeb79ab8215dff63d,6682b9e2394c61feb913b243,52,male,english,2024-07-01_09h21.16.590,ABmemTask3,2023.2.3,Win32,60.24096386,,,,,,,,,,,,,,,,,,,,,,,,,,,,,,,,,,,,,,,,,,,,,,,,,,,,,,,,,,,,,,,,,,,,,,,,,,,,,,,,,,,,,,,,,,,,,,,,,,,,,,,,,,,281.0679,281.0679,,,,,,,,,,,,,,,,,,,,,,,,,,,,,,,,,,,,,,,,,,,,,,,,,,,,,,,,,,,,,,,,,,,,,,,,,,,,,,,,,,,,,,,,,,,,,,,
,,,,,666b178876f7dc389a2c5c32,6682b41eeb79ab8215dff63d,6682b9e2394c61feb913b243,52,male,english,2024-07-01_09h21.16.590,ABmemTask3,2023.2.3,Win32,60.24096386,,,,,,,,,,,,,,,,,,,,,,,,,,,,,,,,,,,,,,,,,,,,,,,,,,,,,,,,,,,,,,,,,,,,,,,,,,,,,,,,,,,,,,,,,,,,,,,,,,,,,,,,,,,281.0688,281.0689,,,,,,,,,,,,,,,,,,,,,,,,,,,,,,,,,,,,,,,,,,,,,,,,,,,,,,,,,,,,,,,,,,,,,,,,,,,,,,,,,,,,,,,,,,,,,,,
,,,,,666b178876f7dc389a2c5c32,6682b41eeb79ab8215dff63d,6682b9e2394c61feb913b243,52,male,english,2024-07-01_09h21.16.590,ABmemTask3,2023.2.3,Win32,60.24096386,,,,,,,,,,,,,,,,,,,,,,,,,,,,,,,,,,,,,,,,,,,,,,,,,,,,,,,,,,,,,,,,,,,,,,,,,,,,,,,,,,,,,,,,,,,,,,,,,,,,,,,,,,,281.0696,281.0696,,,,,,,,,,,,,,,,,,,,,,,,,,,,,,,,,,,,,,,,,,,,,,,,,,,,,,,,,,,,,,,,,,,,,,,,,,,,,,,,,,,,,,,,,,,,,,,
,,,,,666b178876f7dc389a2c5c32,6682b41eeb79ab8215dff63d,6682b9e2394c61feb913b243,52,male,english,2024-07-01_09h21.16.590,ABmemTask3,2023.2.3,Win32,60.24096386,,,,,,,,,,,,,,,,,,,,,,,,,,,,,,,,,,,,,,,,,,,,,,,,,,,,,,,,,,,,,,,,,,,,,,,,,,,,,,,,,,,,,,,,,,,,,,,,,,,,,,,,,,,281.0703,281.0703,,,,,,,,,,,,,,,,,,,,,,,,,,,,,,,,,,,,,,,,,,,,,,,,,,,,,,,,,,,,,,,,,,,,,,,,,,,,,,,,,,,,,,,,,,,,,,,
,,,,,666b178876f7dc389a2c5c32,6682b41eeb79ab8215dff63d,6682b9e2394c61feb913b243,52,male,english,2024-07-01_09h21.16.590,ABmemTask3,2023.2.3,Win32,60.24096386,,,,,,,,,,,,,,,,,,,,,,,,,,,,,,,,,,,,,,,,,,,,,,,,,,,,,,,,,,,,,,,,,,,,,,,,,,,,,,,,,,,,,,,,,,,,,,,,,,,,,,,,,,,281.0715,281.0716,,,,,,,,,,,,,,,,,,,,,,,,,,,,,,,,,,,,,,,,,,,,,,,,,,,,,,,,,,,,,,,,,,,,,,,,,,,,,,,,,,,,,,,,,,,,,,,
,,,,,666b178876f7dc389a2c5c32,6682b41eeb79ab8215dff63d,6682b9e2394c61feb913b243,52,male,english,2024-07-01_09h21.16.590,ABmemTask3,2023.2.3,Win32,60.24096386,,,,,,,,,,,,,,,,,,,,,,,,,,,,,,,,,,,,,,,,,,,,,,,,,,,,,,,,,,,,,,,,,,,,,,,,,,,,,,,,,,,,,,,,,,,,,,,,,,,,,,,,,,,281.0723,281.0723,,,,,,,,,,,,,,,,,,,,,,,,,,,,,,,,,,,,,,,,,,,,,,,,,,,,,,,,,,,,,,,,,,,,,,,,,,,,,,,,,,,,,,,,,,,,,,,
,,,,,666b178876f7dc389a2c5c32,6682b41eeb79ab8215dff63d,6682b9e2394c61feb913b243,52,male,english,2024-07-01_09h21.16.590,ABmemTask3,2023.2.3,Win32,60.24096386,,,,,,,,,,,,,,,,,,,,,,,,,,,,,,,,,,,,,,,,,,,,,,,,,,,,,,,,,,,,,,,,,,,,,,,,,,,,,,,,,,,,,,,,,,,,,,,,,,,,,,,,,,,281.0731,281.0731,,,,,,,,,,,,,,,,,,,,,,,,,,,,,,,,,,,,,,,,,,,,,,,,,,,,,,,,,,,,,,,,,,,,,,,,,,,,,,,,,,,,,,,,,,,,,,,
,,,,,666b178876f7dc389a2c5c32,6682b41eeb79ab8215dff63d,6682b9e2394c61feb913b243,52,male,english,2024-07-01_09h21.16.590,ABmemTask3,2023.2.3,Win32,60.24096386,,,,,,,,,,,,,,,,,,,,,,,,,,,,,,,,,,,,,,,,,,,,,,,,,,,,,,,,,,,,,,,,,,,,,,,,,,,,,,,,,,,,,,,,,,,,,,,,,,,,,,,,,,,281.0738,281.0738,,,,,,,,,,,,,,,,,,,,,,,,,,,,,,,,,,,,,,,,,,,,,,,,,,,,,,,,,,,,,,,,,,,,,,,,,,,,,,,,,,,,,,,,,,,,,,,
,,,,,666b178876f7dc389a2c5c32,6682b41eeb79ab8215dff63d,6682b9e2394c61feb913b243,52,male,english,2024-07-01_09h21.16.590,ABmemTask3,2023.2.3,Win32,60.24096386,,,,,,,,,,,,,,,,,,,,,,,,,,,,,,,,,,,,,,,,,,,,,,,,,,,,,,,,,,,,,,,,,,,,,,,,,,,,,,,,,,,,,,,,,,,,,,,,,,,,,,,,,,,281.075,281.075,,,,,,,,,,,,,,,,,,,,,,,,,,,,,,,,,,,,,,,,,,,,,,,,,,,,,,,,,,,,,,,,,,,,,,,,,,,,,,,,,,,,,,,,,,,,,,,
,,,,,666b178876f7dc389a2c5c32,6682b41eeb79ab8215dff63d,6682b9e2394c61feb913b243,52,male,english,2024-07-01_09h21.16.590,ABmemTask3,2023.2.3,Win32,60.24096386,,,,,,,,,,,,,,,,,,,,,,,,,,,,,,,,,,,,,,,,,,,,,,,,,,,,,,,,,,,,,,,,,,,,,,,,,,,,,,,,,,,,,,,,,,,,,,,,,,,,,,,,,,,281.0757,281.0758,,,,,,,,,,,,,,,,,,,,,,,,,,,,,,,,,,,,,,,,,,,,,,,,,,,,,,,,,,,,,,,,,,,,,,,,,,,,,,,,,,,,,,,,,,,,,,,
,,,,,666b178876f7dc389a2c5c32,6682b41eeb79ab8215dff63d,6682b9e2394c61feb913b243,52,male,english,2024-07-01_09h21.16.590,ABmemTask3,2023.2.3,Win32,60.24096386,,,,,,,,,,,,,,,,,,,,,,,,,,,,,,,,,,,,,,,,,,,,,,,,,,,,,,,,,,,,,,,,,,,,,,,,,,,,,,,,,,,,,,,,,,,,,,,,,,,,,,,,,,,281.0766,281.0767,,,,,,,,,,,,,,,,,,,,,,,,,,,,,,,,,,,,,,,,,,,,,,,,,,,,,,,,,,,,,,,,,,,,,,,,,,,,,,,,,,,,,,,,,,,,,,,
,,,,,666b178876f7dc389a2c5c32,6682b41eeb79ab8215dff63d,6682b9e2394c61feb913b243,52,male,english,2024-07-01_09h21.16.590,ABmemTask3,2023.2.3,Win32,60.24096386,,,,,,,,,,,,,,,,,,,,,,,,,,,,,,,,,,,,,,,,,,,,,,,,,,,,,,,,,,,,,,,,,,,,,,,,,,,,,,,,,,,,,,,,,,,,,,,,,,,,,,,,,,,281.0793,281.0793,,,,,,,,,,,,,,,,,,,,,,,,,,,,,,,,,,,,,,,,,,,,,,,,,,,,,,,,,,,,,,,,,,,,,,,,,,,,,,,,,,,,,,,,,,,,,,,
,,,,,666b178876f7dc389a2c5c32,6682b41eeb79ab8215dff63d,6682b9e2394c61feb913b243,52,male,english,2024-07-01_09h21.16.590,ABmemTask3,2023.2.3,Win32,60.24096386,,,,,,,,,,,,,,,,,,,,,,,,,,,,,,,,,,,,,,,,,,,,,,,,,,,,,,,,,,,,,,,,,,,,,,,,,,,,,,,,,,,,,,,,,,,,,,,,,,,,,,,,,,,281.0803,281.0804,,,,,,,,,,,,,,,,,,,,,,,,,,,,,,,,,,,,,,,,,,,,,,,,,,,,,,,,,,,,,,,,,,,,,,,,,,,,,,,,,,,,,,,,,,,,,,,
,,,,,666b178876f7dc389a2c5c32,6682b41eeb79ab8215dff63d,6682b9e2394c61feb913b243,52,male,english,2024-07-01_09h21.16.590,ABmemTask3,2023.2.3,Win32,60.24096386,,,,,,,,,,,,,,,,,,,,,,,,,,,,,,,,,,,,,,,,,,,,,,,,,,,,,,,,,,,,,,,,,,,,,,,,,,,,,,,,,,,,,,,,,,,,,,,,,,,,,,,,,,,281.0813,281.0813,,,,,,,,,,,,,,,,,,,,,,,,,,,,,,,,,,,,,,,,,,,,,,,,,,,,,,,,,,,,,,,,,,,,,,,,,,,,,,,,,,,,,,,,,,,,,,,
,,,,,666b178876f7dc389a2c5c32,6682b41eeb79ab8215dff63d,6682b9e2394c61feb913b243,52,male,english,2024-07-01_09h21.16.590,ABmemTask3,2023.2.3,Win32,60.24096386,,,,,,,,,,,,,,,,,,,,,,,,,,,,,,,,,,,,,,,,,,,,,,,,,,,,,,,,,,,,,,,,,,,,,,,,,,,,,,,,,,,,,,,,,,,,,,,,,,,,,,,,,,,281.0822,281.0822,,,,,,,,,,,,,,,,,,,,,,,,,,,,,,,,,,,,,,,,,,,,,,,,,,,,,,,,,,,,,,,,,,,,,,,,,,,,,,,,,,,,,,,,,,,,,,,
,,,,,666b178876f7dc389a2c5c32,6682b41eeb79ab8215dff63d,6682b9e2394c61feb913b243,52,male,english,2024-07-01_09h21.16.590,ABmemTask3,2023.2.3,Win32,60.24096386,,,,,,,,,,,,,,,,,,,,,,,,,,,,,,,,,,,,,,,,,,,,,,,,,,,,,,,,,,,,,,,,,,,,,,,,,,,,,,,,,,,,,,,,,,,,,,,,,,,,,,,,,,,281.0833,281.0833,,,,,,,,,,,,,,,,,,,,,,,,,,,,,,,,,,,,,,,,,,,,,,,,,,,,,,,,,,,,,,,,,,,,,,,,,,,,,,,,,,,,,,,,,,,,,,,
,,,,,666b178876f7dc389a2c5c32,6682b41eeb79ab8215dff63d,6682b9e2394c61feb913b243,52,male,english,2024-07-01_09h21.16.590,ABmemTask3,2023.2.3,Win32,60.24096386,,,,,,,,,,,,,,,,,,,,,,,,,,,,,,,,,,,,,,,,,,,,,,,,,,,,,,,,,,,,,,,,,,,,,,,,,,,,,,,,,,,,,,,,,,,,,,,,,,,,,,,,,,,,,,,,281.0834,289.7286,space,8.6191,,,,,,,,,,,,,,,,,,,,,,,,,,,,,,,,,,,,,,,,,,,,,,,,,,,,,,,,,,,,,,,,,,,,,,,,,,,,,,,,,,,,,,,,
,,,,,666b178876f7dc389a2c5c32,6682b41eeb79ab8215dff63d,6682b9e2394c61feb913b243,52,male,english,2024-07-01_09h21.16.590,ABmemTask3,2023.2.3,Win32,60.24096386,,,,,,,,,,,,,,,,,,,,,,,,,,,,,,,,,289.7371,602,290.2272,,,,,,,,,,,,,,,,,,,,,,,,,,0,,,,,,,,,prac_MEM,new,,,,,,,,,,,10,,,,,,,,,,,,,,,,,,,,,,,,,,,,,,,,,,,290.2279,298.3112,-9,6,8.065,,298.3124,299.3108,0,0,0,8,1,999,999,pics/thread02.jpg,,,,,,,,,,,,,,,,,,,,,,,,,,,,,,,,,,,,,,,,,,,,,,,,,,,,,,,,,,,,,,,,,,,,,,,
,,,,,666b178876f7dc389a2c5c32,6682b41eeb79ab8215dff63d,6682b9e2394c61feb913b243,52,male,english,2024-07-01_09h21.16.590,ABmemTask3,2023.2.3,Win32,60.24096386,,,,,,,,,,,,,,,,,,,,,,,,,,,,,,,,,299.3182,602,299.8103,,,,,,,,,,,,,,,,,,,,,,,,,,0,,,,,,,,,prac_MEM,old,,,,,,,,,,,10,,,,,,,,,,,,,,,,,,,,,,,,,,,,,,,,,,,299.8105,302.4436,-6,6,2.6197,,302.4443,303.4436,0,1,1,6,1,12,5,pics/humanskull.jpg,,,,,,,,,,,,,,,,,,,,,,,,,,,,,,,,,,,,,,,,,,,,,,,,,,,,,,,,,,,,,,,,,,,,,,,
,,,,,666b178876f7dc389a2c5c32,6682b41eeb79ab8215dff63d,6682b9e2394c61feb913b243,52,male,english,2024-07-01_09h21.16.590,ABmemTask3,2023.2.3,Win32,60.24096386,,,,,,,,,,,,,,,,,,,,,,,,,,,,,,,,,303.4511,602,303.943,,,,,,,,,,,,,,,,,,,,,,,,,,0,,,,,,,,,prac_MEM,old,,,,,,,,,,,10,,,,,,,,,,,,,,,,,,,,,,,,,,,,,,,,,,,303.943,305.8598,-3,6,1.906,,305.8604,306.86,0,2,2,2,1,3,1,pics/sturgeon.jpg,,,,,,,,,,,,,,,,,,,,,,,,,,,,,,,,,,,,,,,,,,,,,,,,,,,,,,,,,,,,,,,,,,,,,,,
,,,,,666b178876f7dc389a2c5c32,6682b41eeb79ab8215dff63d,6682b9e2394c61feb913b243,52,male,english,2024-07-01_09h21.16.590,ABmemTask3,2023.2.3,Win32,60.24096386,,,,,,,,,,,,,,,,,,,,,,,,,,,,,,,,,306.8671,602,307.3599,,,,,,,,,,,,,,,,,,,,,,,,,,0,,,,,,,,,prac_MEM,old,,,,,,,,,,,10,,,,,,,,,,,,,,,,,,,,,,,,,,,,,,,,,,,307.3601,308.41,0,6,1.0402,,308.4106,309.4092,0,3,3,0,1,1,1,pics/tree.jpg,,,,,,,,,,,,,,,,,,,,,,,,,,,,,,,,,,,,,,,,,,,,,,,,,,,,,,,,,,,,,,,,,,,,,,,
,,,,,666b178876f7dc389a2c5c32,6682b41eeb79ab8215dff63d,6682b9e2394c61feb913b243,52,male,english,2024-07-01_09h21.16.590,ABmemTask3,2023.2.3,Win32,60.24096386,,,,,,,,,,,,,,,,,,,,,,,,,,,,,,,,,309.4101,602,309.9096,,,,,,,,,,,,,,,,,,,,,,,,,,0,,,,,,,,,prac_MEM,old,,,,,,,,,,,10,,,,,,,,,,,,,,,,,,,,,,,,,,,,,,,,,,,309.9098,310.9929,3,6,1.0725,,310.9934,311.9925,0,4,4,5,1,11,5,pics/grater01a.jpg,,,,,,,,,,,,,,,,,,,,,,,,,,,,,,,,,,,,,,,,,,,,,,,,,,,,,,,,,,,,,,,,,,,,,,,
,,,,,666b178876f7dc389a2c5c32,6682b41eeb79ab8215dff63d,6682b9e2394c61feb913b243,52,male,english,2024-07-01_09h21.16.590,ABmemTask3,2023.2.3,Win32,60.24096386,,,,,,,,,,,,,,,,,,,,,,,,,,,,,,,,,311.9933,602,312.4927,,,,,,,,,,,,,,,,,,,,,,,,,,0,,,,,,,,,prac_MEM,old,,,,,,,,,,,10,,,,,,,,,,,,,,,,,,,,,,,,,,,,,,,,,,,312.4929,313.5427,6,6,1.041,,313.5432,314.543,0,5,5,1,1,2,1,pics/pants.jpg,,,,,,,,,,,,,,,,,,,,,,,,,,,,,,,,,,,,,,,,,,,,,,,,,,,,,,,,,,,,,,,,,,,,,,,
,,,,,666b178876f7dc389a2c5c32,6682b41eeb79ab8215dff63d,6682b9e2394c61feb913b243,52,male,english,2024-07-01_09h21.16.590,ABmemTask3,2023.2.3,Win32,60.24096386,,,,,,,,,,,,,,,,,,,,,,,,,,,,,,,,,314.5434,602,315.0427,,,,,,,,,,,,,,,,,,,,,,,,,,0,,,,,,,,,prac_MEM,new,,,,,,,,,,,10,,,,,,,,,,,,,,,,,,,,,,,,,,,,,,,,,,,315.043,316.1757,-3,6,1.1197,,316.1761,317.1759,0,6,6,9,1,999,999,pics/moth.jpg,,,,,,,,,,,,,,,,,,,,,,,,,,,,,,,,,,,,,,,,,,,,,,,,,,,,,,,,,,,,,,,,,,,,,,,
,,,,,666b178876f7dc389a2c5c32,6682b41eeb79ab8215dff63d,6682b9e2394c61feb913b243,52,male,english,2024-07-01_09h21.16.590,ABmemTask3,2023.2.3,Win32,60.24096386,,,,,,,,,,,,,,,,,,,,,,,,,,,,,,,,,317.1767,602,317.6757,,,,,,,,,,,,,,,,,,,,,,,,,,0,,,,,,,,,prac_MEM,new,,,,,,,,,,,10,,,,,,,,,,,,,,,,,,,,,,,,,,,,,,,,,,,317.6757,321.1092,0,1,3.4242,,321.11,322.1088,0,7,7,10,1,999,999,pics/tomato01.jpg,,,,,,,,,,,,,,,,,,,,,,,,,,,,,,,,,,,,,,,,,,,,,,,,,,,,,,,,,,,,,,,,,,,,,,,
,,,,,666b178876f7dc389a2c5c32,6682b41eeb79ab8215dff63d,6682b9e2394c61feb913b243,52,male,english,2024-07-01_09h21.16.590,ABmemTask3,2023.2.3,Win32,60.24096386,,,,,,,,,,,,,,,,,,,,,,,,,,,,,,,,,322.1161,602,322.6091,,,,,,,,,,,,,,,,,,,,,,,,,,0,,,,,,,,,prac_MEM,old,,,,,,,,,,,10,,,,,,,,,,,,,,,,,,,,,,,,,,,,,,,,,,,322.6092,323.859,3,6,1.2325,,323.8595,324.8591,0,8,8,4,1,5,1,pics/tongs01b.jpg,,,,,,,,,,,,,,,,,,,,,,,,,,,,,,,,,,,,,,,,,,,,,,,,,,,,,,,,,,,,,,,,,,,,,,,
,,,,,666b178876f7dc389a2c5c32,6682b41eeb79ab8215dff63d,6682b9e2394c61feb913b243,52,male,english,2024-07-01_09h21.16.590,ABmemTask3,2023.2.3,Win32,60.24096386,,,,,,,,,,,,,,,,,,,,,,,,,,,,,,,,,324.8596,602,325.3588,,,,,,,,,,,,,,,,,,,,,,,,,,0,,,,,,,,,prac_MEM,new,,,,,,,,,,,10,,,,,,,,,,,,,,,,,,,,,,,,,,,,,,,,,,,325.3589,327.2754,6,1,1.8987,,327.2764,328.2751,0,9,9,7,1,999,999,pics/cherry01.jpg,,,,,,,,,,,,,,,,,,,,,,,,,,,,,,,,,,,,,,,,,,,,,,,,,,,,,,,,,,,,,,,,,,,,,,,
,,,,,666b178876f7dc389a2c5c32,6682b41eeb79ab8215dff63d,6682b9e2394c61feb913b243,52,male,english,2024-07-01_09h21.16.590,ABmemTask3,2023.2.3,Win32,60.24096386,,,,,,,,,,,,,,,,,,,,,,,,,,,,,,,,,328.276,602,328.7749,,,,,,,,,,,,,,,,,,,,,,,,,,0,,,,,,,,,prac_MEM,old,,,,,,,,,,,10,,,,,,,,,,,,,,,,,,,,,,,,,,,,,,,,,,,328.775,330.0084,9,6,1.2128,,330.009,331.0082,0,10,10,3,1,4,1,pics/shorts01.jpg,,,,,,,,,,,,,,,,,,,,,,,,,,,,,,,,,,,,,,,,,,,,,,,,,,,,,,,,,,,,,,,,,,,,,,,
,,,,,666b178876f7dc389a2c5c32,6682b41eeb79ab8215dff63d,6682b9e2394c61feb913b243,52,male,english,2024-07-01_09h21.16.590,ABmemTask3,2023.2.3,Win32,60.24096386,,,,,,,,,,,,,,,,,,,,,,,,,,,,,,,,,,,,,,,,,,,,,,,,,,,,,,,,,,,,,,,,,,,,,,,,,,,,,,,,,,,,,,,,,,,,,,,,,,,,,,,,,,,,,,,,,,,,,,,,,,,,,,,,,,,,,331.009,342.0412,342.0416,342.0423,,,,,,,,,,,,,,,,,,,,,,,,,,,,,,,,,,,,,,,,,,,,,,,,,,,,,,,,,,,,,,,,,,,
,,,,,666b178876f7dc389a2c5c32,6682b41eeb79ab8215dff63d,6682b9e2394c61feb913b243,52,male,english,2024-07-01_09h21.16.590,ABmemTask3,2023.2.3,Win32,60.24096386,,,,,,,,,,,,,,,,,,space,20.6948,,,,,,,,,,,,,,,,,,,,,,,,,,,,,,,,,,,,,,,,,,,,,,,,,,,,,,,,,,,,,,,,,,,,,,,,,,,,,,,,,,,,,,,,,,,,,,,,,,,,,,,,,,,,,,,,,,,,,,342.0424,362.7579,,,,,,,,,,,,,,,,,,,,,,,,,,,,,,,,,,,,,,,,,,,,,,,,,,,,,,,,,,,,,,,,,
,,,,,666b178876f7dc389a2c5c32,6682b41eeb79ab8215dff63d,6682b9e2394c61feb913b243,52,male,english,2024-07-01_09h21.16.590,ABmemTask3,2023.2.3,Win32,60.24096386,,,,,,,,,,,,,,,,,,,,,,,,,,,,,,,,,,,,,,,,,,,,,,,,,,,,,,,,,,,,,,,,,,,,,,,,,,,,,,,,,,,,,,,,,,,,,,,,,,,,,,,,,,,,,,,,,,,,,,,,,,,,,,,,,,,,,,,,,,,362.7582,371.3735,space,8.5742,,,,,,,,,,,,,,,,,,,,,,,,,,,,,,,,,,,,,,,,,,,,,,,,,,,,,,,,,,,,,
,,,,,666b178876f7dc389a2c5c32,6682b41eeb79ab8215dff63d,6682b9e2394c61feb913b243,52,male,english,2024-07-01_09h21.16.590,ABmemTask3,2023.2.3,Win32,60.24096386,,,,,,,,,,,,,,,,,,,,,,,,,,,,,,,371.3799,372.3723,372.3726,7,372.8724,374.0397,0.0015,374.1558,0.1161,0.1168,0.1166,0.1164,0.1171,0.1164,0.1166,0.1166,0.1168,0.1165,,374.1564,375.106,right,0.9319,,375.1063,375.706,left,0.5843,,2,0,2,375.7062,376.7054,,,,,,1_AB,L1_T1P_T2A,1,1,0,7,8,6,3,11,garlic,Did you see the garlic,0.12,0,resources/,pics/zebra.jpg,pics/banjo.jpg,pics/pencilsharpener02a.jpg,pics/football.jpg,pics/candle01.jpg,pics/footballhelmet.jpg,pics/garlic01a.jpg,pics/birdhouse.jpg,pics/peach01.jpg,pics/pictureframe04.jpg,pics/binder03b.jpg,blankImage,blankImage,blankImage,blankImage,blankImage,blankImage,garlic01a,33,,,,,,,,,,,,,,,,,,,,,,,,,,,,,,,,,,,,,,,,,0,0,0,32,1,,,,,,,,,,,,,,,,,,,,,,,,,,,,,,,,,,,,,,,,,,,,,,,,,,,,,,,
,,,,,666b178876f7dc389a2c5c32,6682b41eeb79ab8215dff63d,6682b9e2394c61feb913b243,52,male,english,2024-07-01_09h21.16.590,ABmemTask3,2023.2.3,Win32,60.24096386,,,,,,,,,,,,,,,,,,,,,,,,,,,,,,,376.7065,377.7057,377.706,7,378.2058,379.606,0.0011,379.7223,0.116,0.1167,0.1169,0.1165,0.1167,0.1166,0.1168,0.1164,0.1168,0.1167,0.1166,379.7226,380.8559,left,1.1153,,380.8561,381.4721,right,0.6095,,4,0,4,381.4722,382.4719,,,,,,1_AB,L1_T1A_T2P,1,0,1,7,8,6,5,13,statue,Did you see the statue,0.12,0,resources/,pics/giraffe.jpg,pics/seaturtle.jpg,pics/peach01.jpg,pics/boot02b.jpg,pics/backpack01a.jpg,pics/sandbarshark.jpg,pics/microscope.jpg,pics/stapler07.jpg,pics/snowshoe.jpg,pics/laptop01a.jpg,pics/necklace.jpg,pics/zebra.jpg,pics/carrot01.jpg,blankImage,blankImage,blankImage,blankImage,statue,27,0.1166,,,,,,,,,,,,,,,,,,,,,,,,,,,,,,,,,,,,,,,,0,1,1,26,1,,,,,,,,,,,,,,,,,,,,,,,,,,,,,,,,,,,,,,,,,,,,,,,,,,,,,,,
,,,,,666b178876f7dc389a2c5c32,6682b41eeb79ab8215dff63d,6682b9e2394c61feb913b243,52,male,english,2024-07-01_09h21.16.590,ABmemTask3,2023.2.3,Win32,60.24096386,,,,,,,,,,,,,,,,,,,,,,,,,,,,,,,382.4727,383.4718,383.472,7,383.9723,385.4891,0.0005,385.6052,0.1165,0.1167,0.1164,0.1169,0.1166,0.1167,0.1166,0.1169,0.1167,0.1164,0.1167,385.6055,387.0388,right,1.4196,,387.0389,387.7222,left,0.6668,,4,0,6,387.7223,388.7217,,,,,,1_AB,L5_T1P_T2P,5,1,1,4,9,3,5,14,asparagus,Did you see the asparagus,0.12,0,resources/,pics/siamesecat.jpg,pics/starfish01.jpg,pics/aquarium.jpg,pics/asparagus.jpg,pics/salmon.jpg,pics/binoculars01b.jpg,pics/ball02.jpg,pics/calendar.jpg,pics/stapler10.jpg,pics/giraffe.jpg,pics/dromedary.jpg,pics/seaturtle.jpg,pics/sandbarshark.jpg,pics/shipinabottle.jpg,blankImage,blankImage,blankImage,asparagus,44,0.117,0.1163,,,,,,,,,,,,,,,,,,,,,,,,,,,,,,,,,,,,,,,0,2,2,43,1,,,,,,,,,,,,,,,,,,,,,,,,,,,,,,,,,,,,,,,,,,,,,,,,,,,,,,,
,,,,,666b178876f7dc389a2c5c32,6682b41eeb79ab8215dff63d,6682b9e2394c61feb913b243,52,male,english,2024-07-01_09h21.16.590,ABmemTask3,2023.2.3,Win32,60.24096386,,,,,,,,,,,,,,,,,,,,,,,,,,,,,,,388.7223,389.722,389.7221,7,390.2212,391.7387,0.0014,391.8552,0.1163,0.1167,0.1167,0.1169,0.1165,0.1166,0.1167,0.1168,0.1165,0.1171,0.1161,391.8553,392.5882,right,0.7236,,392.5884,393.1549,right,0.5589,,6,0,8,393.1551,394.1549,,,,,,1_AB,L5_T1P_T2P,5,1,1,6,11,5,3,14,mail box,Did you see the mail box,0.12,0,resources/,pics/pictureframe04.jpg,pics/seaturtle.jpg,pics/blender.jpg,pics/carrot01.jpg,pics/nutcracker01.jpg,pics/mailbox02.jpg,pics/seagull.jpg,pics/sink.jpg,pics/siamesecat.jpg,pics/spiderweb.jpg,pics/stapler08.jpg,pics/safetypin.jpg,pics/candle01.jpg,pics/mummy.jpg,blankImage,blankImage,blankImage,mailbox02,43,0.1166,0.1166,,,,,,,,,,,,,,,,,,,,,,,,,,,,,,,,,,,,,,,0,3,3,42,1,,,,,,,,,,,,,,,,,,,,,,,,,,,,,,,,,,,,,,,,,,,,,,,,,,,,,,,
,,,,,666b178876f7dc389a2c5c32,6682b41eeb79ab8215dff63d,6682b9e2394c61feb913b243,52,male,english,2024-07-01_09h21.16.590,ABmemTask3,2023.2.3,Win32,60.24096386,,,,,,,,,,,,,,,,,,,,,,,,,,,,,,,394.1554,395.1546,395.1548,7,395.6549,396.7052,0.0008,396.8211,0.1163,0.1168,0.1165,0.1168,0.1166,0.1165,0.1169,0.1164,0.1169,,,396.8214,397.7381,right,0.8963,,397.7383,398.1547,left,0.401,,6,0,10,398.1549,399.1546,,,,,,1_AB,L1_T1P_T2P,1,1,1,4,5,3,5,10,flute,Did you see the flute,0.12,0,resources/,pics/peach01.jpg,pics/seaturtle.jpg,pics/dromedary.jpg,pics/recorder01.jpg,pics/stapler08.jpg,pics/giraffe.jpg,pics/blender.jpg,pics/necklace.jpg,pics/sink.jpg,pics/dustpan.jpg,blankImage,blankImage,blankImage,blankImage,blankImage,blankImage,blankImage,recorder01,7,,,,,,,,,,,,,,,,,,,,,,,,,,,,,,,,,,,,,,,,,0,4,4,6,1,,,,,,,,,,,,,,,,,,,,,,,,,,,,,,,,,,,,,,,,,,,,,,,,,,,,,,,
,,,,,666b178876f7dc389a2c5c32,6682b41eeb79ab8215dff63d,6682b9e2394c61feb913b243,52,male,english,2024-07-01_09h21.16.590,ABmemTask3,2023.2.3,Win32,60.24096386,,,,,,,,,,,,,,,,,,,,,,,,,,,,,,,399.1617,400.1546,400.1548,7,400.6545,401.9381,0.001,402.0546,0.1161,0.1167,0.1168,0.1166,0.1166,0.1167,0.1165,0.1169,0.1167,0.1166,0.1166,402.0548,402.6879,right,0.6163,,402.688,403.0546,right,0.3579,,8,0,12,403.0546,404.054,,,,,,1_AB,L1_T1P_T2P,1,1,1,6,7,5,5,12,rope,Did you see the rope,0.12,0,resources/,pics/toiletpaper01a.jpg,pics/sewingmachine01a.jpg,pics/birdhouse.jpg,pics/sealion.jpg,pics/safetypin.jpg,pics/rope03.jpg,pics/stapler04.jpg,pics/binder03b.jpg,pics/ashtray01.jpg,pics/sandbarshark.jpg,pics/chainsaw.jpg,pics/nutcracker01.jpg,blankImage,blankImage,blankImage,blankImage,blankImage,rope03,4,,,,,,,,,,,,,,,,,,,,,,,,,,,,,,,,,,,,,,,,,0,5,5,3,1,,,,,,,,,,,,,,,,,,,,,,,,,,,,,,,,,,,,,,,,,,,,,,,,,,,,,,,
,,,,,666b178876f7dc389a2c5c32,6682b41eeb79ab8215dff63d,6682b9e2394c61feb913b243,52,male,english,2024-07-01_09h21.16.590,ABmemTask3,2023.2.3,Win32,60.24096386,,,,,,,,,,,,,,,,,,,,,,,,,,,,,,,404.0549,405.0545,405.0546,7,405.5541,406.6045,0.001,406.7208,0.1163,0.1168,0.1165,0.1167,0.1167,0.1167,0.1165,0.1168,0.1164,,,406.7211,407.5703,right,0.8316,,407.5706,407.9538,left,0.3728,,8,0,14,407.954,408.9541,,,,,,1_AB,L1_T1P_T2P,1,1,1,4,5,3,5,10,vacuum,Did you see the vacuum,0.12,0,resources/,pics/birdhouse.jpg,pics/floortile02.jpg,pics/toiletpaper01a.jpg,pics/vacuumcleaner01.jpg,pics/stapler02.jpg,pics/spoon01.jpg,pics/banjo.jpg,pics/binder03b.jpg,pics/leaf02a.jpg,pics/aquarium.jpg,blankImage,blankImage,blankImage,blankImage,blankImage,blankImage,blankImage,vacuumcleaner01,5,,,,,,,,,,,,,,,,,,,,,,,,,,,,,,,,,,,,,,,,,0,6,6,4,1,,,,,,,,,,,,,,,,,,,,,,,,,,,,,,,,,,,,,,,,,,,,,,,,,,,,,,,
,,,,,666b178876f7dc389a2c5c32,6682b41eeb79ab8215dff63d,6682b9e2394c61feb913b243,52,male,english,2024-07-01_09h21.16.590,ABmemTask3,2023.2.3,Win32,60.24096386,,,,,,,,,,,,,,,,,,,,,,,,,,,,,,,408.9609,409.9535,409.9536,7,410.4533,411.3876,0.0014,411.5037,0.1166,0.1164,0.1168,0.1167,0.117,0.1163,0.1165,0.1169,,,,411.5039,412.2374,right,0.7133,,412.2375,412.687,right,0.4318,,10,0,16,412.6872,413.6871,,,,,,1_AB,L1_T1P_T2P,1,1,1,4,5,3,4,9,antenna,Did you see the antenna,0.12,0,resources/,pics/microscope.jpg,pics/spoon01.jpg,pics/dromedary.jpg,pics/antenna.jpg,pics/stapler03.jpg,pics/hen.jpg,pics/leaf02a.jpg,pics/candle01.jpg,pics/sealion.jpg,blankImage,blankImage,blankImage,blankImage,blankImage,blankImage,blankImage,blankImage,antenna,9,,,,,,,,,,,,,,,,,,,,,,,,,,,,,,,,,,,,,,,,,0,7,7,8,1,,,,,,,,,,,,,,,,,,,,,,,,,,,,,,,,,,,,,,,,,,,,,,,,,,,,,,,
,,,,,666b178876f7dc389a2c5c32,6682b41eeb79ab8215dff63d,6682b9e2394c61feb913b243,52,male,english,2024-07-01_09h21.16.590,ABmemTask3,2023.2.3,Win32,60.24096386,,,,,,,,,,,,,,,,,,,,,,,,,,,,,,,413.6876,414.6865,414.6867,7,415.1865,416.3538,0.0011,416.4704,0.1165,0.1168,0.1166,0.1166,0.1167,0.1165,0.1169,0.1166,0.1166,0.1166,,416.4705,417.5868,right,1.1047,,417.5869,417.9869,right,0.3908,,8,0,18,417.987,418.9861,,,,,,1_AB,L1_T1P_T2A,1,1,0,7,8,6,3,11,eggplant,Did you see the eggplant,0.12,0,resources/,pics/salmon.jpg,pics/fanblades.jpg,pics/hammerheadshark.jpg,pics/wheel01.jpg,pics/snowshoe.jpg,pics/birdhouse.jpg,pics/eggplant.jpg,pics/spiderweb.jpg,pics/zebra.jpg,pics/pencilsharpener02a.jpg,pics/backpack01a.jpg,blankImage,blankImage,blankImage,blankImage,blankImage,blankImage,eggplant,32,,,,,,,,,,,,,,,,,,,,,,,,,,,,,,,,,,,,,,,,,0,8,8,31,1,,,,,,,,,,,,,,,,,,,,,,,,,,,,,,,,,,,,,,,,,,,,,,,,,,,,,,,
,,,,,666b178876f7dc389a2c5c32,6682b41eeb79ab8215dff63d,6682b9e2394c61feb913b243,52,male,english,2024-07-01_09h21.16.590,ABmemTask3,2023.2.3,Win32,60.24096386,,,,,,,,,,,,,,,,,,,,,,,,,,,,,,,418.9936,419.9865,419.9867,7,420.4863,421.6536,0.0011,421.7695,0.1163,0.1167,0.1166,0.1169,0.1164,0.1168,0.1165,0.1168,0.1167,0.1167,,421.7698,425.1698,left,3.3818,,425.17,426.086,right,0.8999,,6,0,20,426.0862,427.086,,,,,,1_AB,L1_T1A_T2A,1,0,0,7,8,6,3,11,Poker chips,Did you see the Poker chips,0.12,0,resources/,pics/candle01.jpg,pics/proboscismonkey.jpg,pics/fanblades.jpg,pics/dromedary.jpg,pics/aquarium.jpg,pics/salmon.jpg,pics/hose.jpg,pics/kangaroo.jpg,pics/noparkingsign.jpg,pics/carrot01.jpg,pics/leaf02a.jpg,blankImage,blankImage,blankImage,blankImage,blankImage,blankImage,pokerchips,41,,,,,,,,,,,,,,,,,,,,,,,,,,,,,,,,,,,,,,,,,0,9,9,40,1,,,,,,,,,,,,,,,,,,,,,,,,,,,,,,,,,,,,,,,,,,,,,,,,,,,,,,,
,,,,,666b178876f7dc389a2c5c32,6682b41eeb79ab8215dff63d,6682b9e2394c61feb913b243,52,male,english,2024-07-01_09h21.16.590,ABmemTask3,2023.2.3,Win32,60.24096386,,,,,,,,,,,,,,,,,,,,,,,,,,,,,,,427.0934,428.0855,428.0856,7,428.5856,430.3363,0.0013,430.4526,0.1166,0.1165,0.1168,0.1165,0.1168,0.1164,0.1168,0.1166,0.1168,0.1166,0.1167,430.4529,431.1862,right,0.722,,431.1862,431.6696,left,0.4743,,8,0,22,431.6697,432.6688,,,,,,1_AB,L5_T1P_T2A,5,1,0,6,11,5,5,16,belt,Did you see the belt,0.12,0,resources/,pics/banjo.jpg,pics/birdhouse.jpg,pics/spoon01.jpg,pics/table01.jpg,pics/candle01.jpg,pics/belt02a.jpg,pics/peach01.jpg,pics/chainsaw.jpg,pics/toiletpaper01a.jpg,pics/proboscismonkey.jpg,pics/cymbal.jpg,pics/binoculars01b.jpg,pics/cannon.jpg,pics/noparkingsign.jpg,pics/sailboat.jpg,pics/carrot01.jpg,blankImage,belt02a,61,0.1167,0.1168,0.1166,,,,,,,,,,,,,,,,,,,,,,,,,,,,,,,,,,,,,,0,10,10,60,1,0.1165,,,,,,,,,,,,,,,,,,,,,,,,,,,,,,,,,,,,,,,,,,,,,,,,,,,,,,
,,,,,666b178876f7dc389a2c5c32,6682b41eeb79ab8215dff63d,6682b9e2394c61feb913b243,52,male,english,2024-07-01_09h21.16.590,ABmemTask3,2023.2.3,Win32,60.24096386,,,,,,,,,,,,,,,,,,,,,,,,,,,,,,,432.6696,433.6688,433.669,7,434.1692,435.5694,0.001,435.6851,0.1163,0.1166,0.1165,0.1168,0.1167,0.1166,0.1167,0.1167,0.1164,0.1169,0.1164,435.6854,440.0855,left,4.379,,440.0856,440.8188,right,0.7155,,10,0,24,440.819,441.818,,,,,,1_AB,L1_T1A_T2P,1,0,1,7,8,6,5,13,Basketball,Did you see the Basketball,0.12,0,resources/,pics/cork02.jpg,pics/table01.jpg,pics/christmaslights.jpg,pics/nutcracker01.jpg,pics/golfball.jpg,pics/hammerheadshark.jpg,pics/seaturtle.jpg,pics/stapler04b.jpg,pics/lock03a.jpg,pics/snowshoe.jpg,pics/sewingmachine01a.jpg,pics/peach01.jpg,pics/hose.jpg,blankImage,blankImage,blankImage,blankImage,basketball01,24,0.1168,,,,,,,,,,,,,,,,,,,,,,,,,,,,,,,,,,,,,,,,0,11,11,23,1,,,,,,,,,,,,,,,,,,,,,,,,,,,,,,,,,,,,,,,,,,,,,,,,,,,,,,,
,,,,,666b178876f7dc389a2c5c32,6682b41eeb79ab8215dff63d,6682b9e2394c61feb913b243,52,male,english,2024-07-01_09h21.16.590,ABmemTask3,2023.2.3,Win32,60.24096386,,,,,,,,,,,,,,,,,,,,,,,,,,,,,,,441.8252,442.8187,442.8189,7,443.3187,444.2521,0.0011,444.3686,0.116,0.1168,0.1166,0.1167,0.1165,0.1169,0.1166,0.1163,,,,444.3689,445.7522,left,1.3667,,445.7522,446.1848,left,0.4255,,10,0,26,446.185,447.1852,,,,,,1_AB,L1_T1A_T2P,1,0,1,5,6,4,3,9,Trailer,Did you see the Trailer,0.12,0,resources/,pics/pencil01.jpg,pics/football.jpg,pics/hairdryer02a.jpg,pics/wheel01.jpg,pics/chainsaw.jpg,pics/stapler10.jpg,pics/peanut01.jpg,pics/triangle.jpg,pics/sink.jpg,blankImage,blankImage,blankImage,blankImage,blankImage,blankImage,blankImage,blankImage,boxtrailer,29,,,,,,,,,,,,,,,,,,,,,,,,,,,,,,,,,,,,,,,,,0,12,12,28,1,,,,,,,,,,,,,,,,,,,,,,,,,,,,,,,,,,,,,,,,,,,,,,,,,,,,,,,
,,,,,666b178876f7dc389a2c5c32,6682b41eeb79ab8215dff63d,6682b9e2394c61feb913b243,52,male,english,2024-07-01_09h21.16.590,ABmemTask3,2023.2.3,Win32,60.24096386,,,,,,,,,,,,,,,,,,,,,,,,,,,,,,,447.192,448.1851,448.1851,7,448.6853,449.6186,0.0009,449.7346,0.116,0.1167,0.1167,0.1168,0.1167,0.1161,0.117,0.1166,,,,449.7349,450.668,right,0.9229,,450.6682,451.1017,right,0.4187,,12,0,28,451.1017,452.1017,,,,,,1_AB,L1_T1P_T2P,1,1,1,5,6,4,3,9,Ant,Did you see the Ant,0.12,0,resources/,pics/kangaroo.jpg,pics/giraffe.jpg,pics/footballhelmet.jpg,pics/onion.jpg,pics/ant.jpg,pics/stapler04b.jpg,pics/banjo.jpg,pics/zebra.jpg,pics/dromedary.jpg,blankImage,blankImage,blankImage,blankImage,blankImage,blankImage,blankImage,blankImage,ant,15,,,,,,,,,,,,,,,,,,,,,,,,,,,,,,,,,,,,,,,,,0,13,13,14,1,,,,,,,,,,,,,,,,,,,,,,,,,,,,,,,,,,,,,,,,,,,,,,,,,,,,,,,
,,,,,666b178876f7dc389a2c5c32,6682b41eeb79ab8215dff63d,6682b9e2394c61feb913b243,52,male,english,2024-07-01_09h21.16.590,ABmemTask3,2023.2.3,Win32,60.24096386,,,,,,,,,,,,,,,,,,,,,,,,,,,,,,,452.1021,453.1008,453.1009,7,453.6015,454.885,0.0008,455.0017,0.1161,0.1168,0.1167,0.1166,0.1167,0.1166,0.1169,0.1165,0.1168,0.1163,0.1167,455.0017,455.7011,right,0.6829,,455.7013,456.2012,right,0.4917,,14,0,30,456.2013,457.2011,,,,,,1_AB,L1_T1P_T2P,1,1,1,7,8,6,4,12,Turnstile,Did you see the Turnstile,0.12,0,resources/,pics/golfball.jpg,pics/hose.jpg,pics/siamesecat.jpg,pics/binoculars01b.jpg,pics/hen.jpg,pics/candleholder01.jpg,pics/turnstile.jpg,pics/stapler03a.jpg,pics/giraffe.jpg,pics/pictureframe04.jpg,pics/sandbarshark.jpg,pics/spoon01.jpg,blankImage,blankImage,blankImage,blankImage,blankImage,turnstile,13,,,,,,,,,,,,,,,,,,,,,,,,,,,,,,,,,,,,,,,,,0,14,14,12,1,,,,,,,,,,,,,,,,,,,,,,,,,,,,,,,,,,,,,,,,,,,,,,,,,,,,,,,
,,,,,666b178876f7dc389a2c5c32,6682b41eeb79ab8215dff63d,6682b9e2394c61feb913b243,52,male,english,2024-07-01_09h21.16.590,ABmemTask3,2023.2.3,Win32,60.24096386,,,,,,,,,,,,,,,,,,,,,,,,,,,,,,,457.2018,458.2005,458.2007,7,458.7006,459.7513,0.0013,459.8674,0.1165,0.1164,0.1167,0.1168,0.1167,0.1166,0.1166,0.1167,0.1165,,,459.8677,460.7012,left,0.8252,,460.7013,461.3013,right,0.5848,,16,0,32,461.3013,462.301,,,,,,1_AB,L1_T1A_T2P,1,0,1,5,6,4,4,10,Rabbit,Did you see the Rabbit,0.12,0,resources/,pics/cannon.jpg,pics/proboscismonkey.jpg,pics/salmon.jpg,pics/nutcracker01.jpg,pics/seagull.jpg,pics/stapler02.jpg,pics/table01.jpg,pics/laptop01a.jpg,pics/necklace.jpg,pics/pencilsharpener02a.jpg,blankImage,blankImage,blankImage,blankImage,blankImage,blankImage,blankImage,jackrabbit,31,,,,,,,,,,,,,,,,,,,,,,,,,,,,,,,,,,,,,,,,,0,15,15,30,1,,,,,,,,,,,,,,,,,,,,,,,,,,,,,,,,,,,,,,,,,,,,,,,,,,,,,,,
,,,,,666b178876f7dc389a2c5c32,6682b41eeb79ab8215dff63d,6682b9e2394c61feb913b243,52,male,english,2024-07-01_09h21.16.590,ABmemTask3,2023.2.3,Win32,60.24096386,,,,,,,,,,,,,,,,,,,,,,,,,,,,,,,462.3013,463.3019,463.3019,7,463.8006,465.0844,0.0011,465.2005,0.1162,0.1169,0.1164,0.1167,0.1167,0.1165,0.1169,0.1167,0.1165,0.1168,0.1164,465.2007,465.9342,right,0.7216,,465.9342,466.5007,right,0.5485,,14,0,34,466.5008,467.4999,,,,,,1_AB,L1_T1P_T2A,1,1,0,7,8,6,4,12,Tennis racket,Did you see the Tennis racket,0.12,0,resources/,pics/banjo.jpg,pics/leaf02a.jpg,pics/shovel01.jpg,pics/microscope.jpg,pics/cork02.jpg,pics/seagull.jpg,pics/tennisracket.jpg,pics/binder03b.jpg,pics/floortile02.jpg,pics/carrot01.jpg,pics/candle01.jpg,pics/siamesecat.jpg,blankImage,blankImage,blankImage,blankImage,blankImage,tennisracket,38,,,,,,,,,,,,,,,,,,,,,,,,,,,,,,,,,,,,,,,,,0,16,16,37,1,,,,,,,,,,,,,,,,,,,,,,,,,,,,,,,,,,,,,,,,,,,,,,,,,,,,,,,
,,,,,666b178876f7dc389a2c5c32,6682b41eeb79ab8215dff63d,6682b9e2394c61feb913b243,52,male,english,2024-07-01_09h21.16.590,ABmemTask3,2023.2.3,Win32,60.24096386,,,,,,,,,,,,,,,,,,,,,,,,,,,,,,,467.501,468.5003,468.5005,7,469.0001,470.2836,0.0011,470.4,0.1165,0.1164,0.1168,0.1166,0.1169,0.1166,0.1166,0.1168,0.1165,0.1167,0.1163,470.4003,470.8834,right,0.4706,,470.8836,471.3673,right,0.471,,16,0,36,471.3674,472.3664,,,,,,1_AB,L5_T1P_T2P,5,1,1,4,9,3,3,12,Sheep,Did you see the Sheep,0.12,0,resources/,pics/icecube01.jpg,pics/cymbal.jpg,pics/wheel01.jpg,pics/sheep.jpg,pics/starfish01.jpg,pics/safetypin.jpg,pics/siamesecat.jpg,pics/lock03a.jpg,pics/stapler01.jpg,pics/sink.jpg,pics/fanblades.jpg,pics/bowlingpin.jpg,blankImage,blankImage,blankImage,blankImage,blankImage,sheep,52,,,,,,,,,,,,,,,,,,,,,,,,,,,,,,,,,,,,,,,,,0,17,17,51,1,,,,,,,,,,,,,,,,,,,,,,,,,,,,,,,,,,,,,,,,,,,,,,,,,,,,,,,
,,,,,666b178876f7dc389a2c5c32,6682b41eeb79ab8215dff63d,6682b9e2394c61feb913b243,52,male,english,2024-07-01_09h21.16.590,ABmemTask3,2023.2.3,Win32,60.24096386,,,,,,,,,,,,,,,,,,,,,,,,,,,,,,,472.3672,473.3665,473.3668,7,473.8663,475.5004,0.0012,475.6165,0.1164,0.1168,0.1165,0.1169,0.1164,0.1166,0.1169,0.1166,0.1167,0.1166,0.1167,475.6168,476.0333,right,0.4076,,476.0335,476.5336,right,0.4937,,18,0,38,476.5337,477.5333,,,,,,1_AB,L5_T1P_T2P,5,1,1,6,11,5,4,15,toast,Did you see the toast,0.12,0,resources/,pics/piggybank.jpg,pics/leaf02a.jpg,pics/carrot01.jpg,pics/birdhouse.jpg,pics/bowlingpin.jpg,pics/toast.jpg,pics/spiderweb.jpg,pics/cork02.jpg,pics/sink.jpg,pics/nutcracker01.jpg,pics/stapler02.jpg,pics/ashtray01.jpg,pics/fanblades.jpg,pics/pencil01.jpg,pics/lightswitch01.jpg,blankImage,blankImage,toast,46,0.1166,0.1169,0.1165,,,,,,,,,,,,,,,,,,,,,,,,,,,,,,,,,,,,,,0,18,18,45,1,,,,,,,,,,,,,,,,,,,,,,,,,,,,,,,,,,,,,,,,,,,,,,,,,,,,,,,
,,,,,666b178876f7dc389a2c5c32,6682b41eeb79ab8215dff63d,6682b9e2394c61feb913b243,52,male,english,2024-07-01_09h21.16.590,ABmemTask3,2023.2.3,Win32,60.24096386,,,,,,,,,,,,,,,,,,,,,,,,,,,,,,,477.534,478.5331,478.5333,7,479.0325,479.9669,0.0013,480.0831,0.1164,0.1168,0.1165,0.1168,0.1168,0.1166,0.1165,0.117,,,,480.0832,480.9165,right,0.8153,,480.9166,481.4665,right,0.5381,,20,0,40,481.4666,482.4658,,,,,,1_AB,L1_T1P_T2P,1,1,1,5,6,4,3,9,cabbage,Did you see the cabbage,0.12,0,resources/,pics/match.jpg,pics/icecube01.jpg,pics/noparkingsign.jpg,pics/christmaslights.jpg,pics/cabbage.jpg,pics/stapler03a.jpg,pics/carrot01.jpg,pics/dustpan.jpg,pics/cannon.jpg,blankImage,blankImage,blankImage,blankImage,blankImage,blankImage,blankImage,blankImage,cabbage,14,,,,,,,,,,,,,,,,,,,,,,,,,,,,,,,,,,,,,,,,,0,19,19,13,1,,,,,,,,,,,,,,,,,,,,,,,,,,,,,,,,,,,,,,,,,,,,,,,,,,,,,,,
,,,,,666b178876f7dc389a2c5c32,6682b41eeb79ab8215dff63d,6682b9e2394c61feb913b243,52,male,english,2024-07-01_09h21.16.590,ABmemTask3,2023.2.3,Win32,60.24096386,,,,,,,,,,,,,,,,,,,,,,,,,,,,,,,482.4667,483.4665,483.4666,7,483.966,485.7164,0.0013,485.8322,0.116,0.1168,0.1165,0.1169,0.1165,0.1166,0.1168,0.1167,0.1166,0.1166,0.1167,485.8324,486.6327,right,0.7807,,486.633,486.9829,left,0.3321,,22,0,42,486.983,487.9826,,,,,,1_AB,L5_T1P_T2A,5,1,0,7,12,6,4,16,boat,Did you see the boat,0.12,0,resources/,pics/butterfly.jpg,pics/onion.jpg,pics/hose.jpg,pics/ball02.jpg,pics/ashtray01.jpg,pics/bowtie.jpg,pics/boat.jpg,pics/seaturtle.jpg,pics/blender.jpg,pics/zebra.jpg,pics/pictureframe04.jpg,pics/shovel01.jpg,pics/spoon01.jpg,pics/peanut01.jpg,pics/nutcracker01.jpg,pics/aquarium.jpg,blankImage,boat,60,0.1166,0.1168,0.1166,,,,,,,,,,,,,,,,,,,,,,,,,,,,,,,,,,,,,,0,20,20,59,1,0.1165,,,,,,,,,,,,,,,,,,,,,,,,,,,,,,,,,,,,,,,,,,,,,,,,,,,,,,
,,,,,666b178876f7dc389a2c5c32,6682b41eeb79ab8215dff63d,6682b9e2394c61feb913b243,52,male,english,2024-07-01_09h21.16.590,ABmemTask3,2023.2.3,Win32,60.24096386,,,,,,,,,,,,,,,,,,,,,,,,,,,,,,,487.9831,488.9822,488.9824,7,489.482,491.1161,0.0013,491.2324,0.1165,0.1165,0.1168,0.1167,0.1167,0.1164,0.1169,0.1164,0.1169,0.1165,0.1168,491.2326,491.7828,left,0.5313,,491.7829,492.1993,right,0.4054,,24,0,44,492.1993,493.1988,,,,,,1_AB,L5_T1A_T2P,5,0,1,5,10,4,5,15,scorpion,Did you see the scorpion,0.12,0,resources/,pics/pictureframe04.jpg,pics/binder03b.jpg,pics/pencil01.jpg,pics/leaf02a.jpg,pics/icecube01.jpg,pics/dromedary.jpg,pics/toiletpaper01a.jpg,pics/peanut01.jpg,pics/golfball.jpg,pics/stapler03.jpg,pics/carrot01.jpg,pics/peach01.jpg,pics/sealion.jpg,pics/football.jpg,pics/zebra.jpg,blankImage,blankImage,scorpion,54,0.1165,0.1165,0.1167,,,,,,,,,,,,,,,,,,,,,,,,,,,,,,,,,,,,,,0,21,21,53,1,,,,,,,,,,,,,,,,,,,,,,,,,,,,,,,,,,,,,,,,,,,,,,,,,,,,,,,
,,,,,666b178876f7dc389a2c5c32,6682b41eeb79ab8215dff63d,6682b9e2394c61feb913b243,52,male,english,2024-07-01_09h21.16.590,ABmemTask3,2023.2.3,Win32,60.24096386,,,,,,,,,,,,,,,,,,,,,,,,,,,,,,,493.1994,494.1984,494.1986,7,494.699,495.8657,0.0008,495.9821,0.1163,0.1168,0.1165,0.1166,0.1166,0.1168,0.1166,0.1165,0.1168,0.1166,,495.9823,496.5653,right,0.5705,,496.5656,497.015,right,0.4341,,26,0,46,497.0154,498.015,,,,,,1_AB,L1_T1P_T2P,1,1,1,7,8,6,3,11,pliers,Did you see the pliers,0.12,0,resources/,pics/mummy.jpg,pics/binder03b.jpg,pics/bowtie.jpg,pics/toiletpaper01a.jpg,pics/football.jpg,pics/blender.jpg,pics/needlenosepliers01.jpg,pics/stapler13.jpg,pics/zebra.jpg,pics/hammerheadshark.jpg,pics/sealion.jpg,blankImage,blankImage,blankImage,blankImage,blankImage,blankImage,needlenosepliers01,6,,,,,,,,,,,,,,,,,,,,,,,,,,,,,,,,,,,,,,,,,0,22,22,5,1,,,,,,,,,,,,,,,,,,,,,,,,,,,,,,,,,,,,,,,,,,,,,,,,,,,,,,,
,,,,,666b178876f7dc389a2c5c32,6682b41eeb79ab8215dff63d,6682b9e2394c61feb913b243,52,male,english,2024-07-01_09h21.16.590,ABmemTask3,2023.2.3,Win32,60.24096386,,,,,,,,,,,,,,,,,,,,,,,,,,,,,,,498.0157,499.0148,499.0151,7,499.5152,500.3324,0.0009,500.4481,0.1165,0.1166,0.1166,0.1168,0.1166,0.1167,0.1168,,,,,500.4484,501.8981,left,1.4386,,501.8985,502.5655,right,0.6486,,28,0,48,502.5656,503.5647,,,,,,1_AB,L1_T1A_T2P,1,0,1,4,5,3,3,8,Parking meter,Did you see the Parking meter,0.12,0,resources/,pics/leaf02a.jpg,pics/carrot01.jpg,pics/sink.jpg,pics/butterfly.jpg,pics/stapler10.jpg,pics/pictureframe04.jpg,pics/spiderweb.jpg,pics/icecube01.jpg,blankImage,blankImage,blankImage,blankImage,blankImage,blankImage,blankImage,blankImage,blankImage,parkingmeter,30,,,,,,,,,,,,,,,,,,,,,,,,,,,,,,,,,,,,,,,,,0,23,23,29,1,,,,,,,,,,,,,,,,,,,,,,,,,,,,,,,,,,,,,,,,,,,,,,,,,,,,,,,
,,,,,666b178876f7dc389a2c5c32,6682b41eeb79ab8215dff63d,6682b9e2394c61feb913b243,52,male,english,2024-07-01_09h21.16.590,ABmemTask3,2023.2.3,Win32,60.24096386,,,,,,,,,,,,,,,,,,,,,,,,,,,,,,,503.5722,504.5645,504.5647,7,505.0651,506.3486,0.0014,506.4646,0.1156,0.1165,0.1168,0.1166,0.1167,0.1167,0.1167,0.1169,0.1162,0.1167,0.117,506.4649,506.9817,right,0.5003,,506.9818,507.4148,right,0.4208,,30,0,50,507.4151,508.4146,,,,,,1_AB,L1_T1P_T2P,1,1,1,6,7,5,5,12,jeep,Did you see the jeep,0.12,0,resources/,pics/sandbarshark.jpg,pics/laptop01a.jpg,pics/peach01.jpg,pics/binoculars01b.jpg,pics/giraffe.jpg,pics/jeep.jpg,pics/stapler03b.jpg,pics/fanblades.jpg,pics/cannon.jpg,pics/starfish01.jpg,pics/piggybank.jpg,pics/noparkingsign.jpg,blankImage,blankImage,blankImage,blankImage,blankImage,jeep,2,,,,,,,,,,,,,,,,,,,,,,,,,,,,,,,,,,,,,,,,,0,24,24,1,1,,,,,,,,,,,,,,,,,,,,,,,,,,,,,,,,,,,,,,,,,,,,,,,,,,,,,,,
,,,,,666b178876f7dc389a2c5c32,6682b41eeb79ab8215dff63d,6682b9e2394c61feb913b243,52,male,english,2024-07-01_09h21.16.590,ABmemTask3,2023.2.3,Win32,60.24096386,,,,,,,,,,,,,,,,,,,,,,,,,,,,,,,508.4152,509.4144,509.4146,7,509.9143,511.0816,0.0011,511.1979,0.1166,0.1166,0.1166,0.1165,0.1169,0.1165,0.1168,0.1165,0.1165,0.117,,511.1981,511.7811,left,0.5733,,511.7814,512.2975,right,0.5011,,32,0,52,512.2977,513.2972,,,,,,1_AB,L1_T1A_T2P,1,0,1,7,8,6,3,11,turkey,Did you see the turkey,0.12,0,resources/,pics/proboscismonkey.jpg,pics/blender.jpg,pics/sealion.jpg,pics/snowshoe.jpg,pics/carrot01.jpg,pics/microscope.jpg,pics/piggybank.jpg,pics/stapler12.jpg,pics/peanut01.jpg,pics/dustpan.jpg,pics/footballhelmet.jpg,blankImage,blankImage,blankImage,blankImage,blankImage,blankImage,turkey,26,,,,,,,,,,,,,,,,,,,,,,,,,,,,,,,,,,,,,,,,,0,25,25,25,1,,,,,,,,,,,,,,,,,,,,,,,,,,,,,,,,,,,,,,,,,,,,,,,,,,,,,,,
,,,,,666b178876f7dc389a2c5c32,6682b41eeb79ab8215dff63d,6682b9e2394c61feb913b243,52,male,english,2024-07-01_09h21.16.590,ABmemTask3,2023.2.3,Win32,60.24096386,,,,,,,,,,,,,,,,,,,,,,,,,,,,,,,513.2982,514.2971,514.2972,7,514.7977,516.3147,0.001,516.4307,0.1162,0.1166,0.1166,0.1169,0.1165,0.1165,0.1168,0.1167,0.1166,0.1168,0.1165,516.431,516.6313,right,0.182,,516.6313,517.1808,right,0.5323,,34,0,54,517.1811,518.1808,,,,,,1_AB,L5_T1P_T2P,5,1,1,4,9,3,5,14,pliers,Did you see the pliers,0.12,0,resources/,pics/calendar.jpg,pics/footballhelmet.jpg,pics/seaturtle.jpg,pics/pliers02b.jpg,pics/wheel01.jpg,pics/cannon.jpg,pics/proboscismonkey.jpg,pics/shovel01.jpg,pics/stapler06.jpg,pics/football.jpg,pics/hose.jpg,pics/dustpan.jpg,pics/spiderweb.jpg,pics/golfball.jpg,blankImage,blankImage,blankImage,pliers02b,48,0.1169,0.1166,,,,,,,,,,,,,,,,,,,,,,,,,,,,,,,,,,,,,,,0,26,26,47,1,,,,,,,,,,,,,,,,,,,,,,,,,,,,,,,,,,,,,,,,,,,,,,,,,,,,,,,
,,,,,666b178876f7dc389a2c5c32,6682b41eeb79ab8215dff63d,6682b9e2394c61feb913b243,52,male,english,2024-07-01_09h21.16.590,ABmemTask3,2023.2.3,Win32,60.24096386,,,,,,,,,,,,,,,,,,,,,,,,,,,,,,,518.1814,519.1808,519.1809,7,519.6801,520.8477,0.0015,520.9644,0.1163,0.1168,0.1165,0.1167,0.1167,0.1166,0.1166,0.1166,0.1167,0.1167,,520.9645,522.2304,right,1.2497,,522.2307,522.9306,right,0.6904,,32,0,56,522.9306,523.9301,,,,,,1_AB,L1_T1P_T2A,1,1,0,6,7,5,4,11,lamp,Did you see the lamp,0.12,0,resources/,pics/chainsaw.jpg,pics/fanblades.jpg,pics/salmon.jpg,pics/proboscismonkey.jpg,pics/boot02b.jpg,pics/lamp04a.jpg,pics/blender.jpg,pics/sink.jpg,pics/pencil01.jpg,pics/floortile02.jpg,pics/shovel01.jpg,blankImage,blankImage,blankImage,blankImage,blankImage,blankImage,lamp04a,37,,,,,,,,,,,,,,,,,,,,,,,,,,,,,,,,,,,,,,,,,0,27,27,36,1,,,,,,,,,,,,,,,,,,,,,,,,,,,,,,,,,,,,,,,,,,,,,,,,,,,,,,,
,,,,,666b178876f7dc389a2c5c32,6682b41eeb79ab8215dff63d,6682b9e2394c61feb913b243,52,male,english,2024-07-01_09h21.16.590,ABmemTask3,2023.2.3,Win32,60.24096386,,,,,,,,,,,,,,,,,,,,,,,,,,,,,,,523.9373,524.9303,524.9305,7,525.43,526.5975,0.0012,526.7131,0.1167,0.1165,0.1165,0.1169,0.1172,0.116,0.117,0.1165,0.1163,0.1168,,526.7134,527.5299,right,0.8074,,527.53,527.8636,left,0.3171,,34,0,58,527.8638,528.8638,,,,,,1_AB,L1_T1P_T2A,1,1,0,7,8,6,3,11,Spear,Did you see the Spear,0.12,0,resources/,pics/butterfly.jpg,pics/banjo.jpg,pics/chainsaw.jpg,pics/christmaslights.jpg,pics/dustpan.jpg,pics/shovel01.jpg,pics/spear02.jpg,pics/table01.jpg,pics/starfish01.jpg,pics/bowlingpin.jpg,pics/carrot01.jpg,blankImage,blankImage,blankImage,blankImage,blankImage,blankImage,spear02,39,,,,,,,,,,,,,,,,,,,,,,,,,,,,,,,,,,,,,,,,,0,28,28,38,1,,,,,,,,,,,,,,,,,,,,,,,,,,,,,,,,,,,,,,,,,,,,,,,,,,,,,,,
,,,,,666b178876f7dc389a2c5c32,6682b41eeb79ab8215dff63d,6682b9e2394c61feb913b243,52,male,english,2024-07-01_09h21.16.590,ABmemTask3,2023.2.3,Win32,60.24096386,,,,,,,,,,,,,,,,,,,,,,,,,,,,,,,528.8711,529.8634,529.8637,7,530.3629,531.5305,0.0013,531.6465,0.1165,0.1165,0.1166,0.1167,0.1167,0.1167,0.1165,0.1168,0.1165,0.1169,,531.6467,532.18,right,0.5178,,532.1803,532.6963,right,0.5008,,36,0,60,532.6968,533.6964,,,,,,1_AB,L1_T1P_T2P,1,1,1,7,8,6,3,11,medal,Did you see the medal,0.12,0,resources/,pics/hen.jpg,pics/starfish01.jpg,pics/nutcracker01.jpg,pics/ball02.jpg,pics/fanblades.jpg,pics/christmaslights.jpg,pics/medal02b.jpg,pics/stapler09.jpg,pics/carrot01.jpg,pics/hammerheadshark.jpg,pics/sailboat.jpg,blankImage,blankImage,blankImage,blankImage,blankImage,blankImage,medal02b,19,,,,,,,,,,,,,,,,,,,,,,,,,,,,,,,,,,,,,,,,,0,29,29,18,1,,,,,,,,,,,,,,,,,,,,,,,,,,,,,,,,,,,,,,,,,,,,,,,,,,,,,,,
,,,,,666b178876f7dc389a2c5c32,6682b41eeb79ab8215dff63d,6682b9e2394c61feb913b243,52,male,english,2024-07-01_09h21.16.590,ABmemTask3,2023.2.3,Win32,60.24096386,,,,,,,,,,,,,,,,,,,,,,,,,,,,,,,533.6971,534.6967,534.6968,7,535.1966,536.3634,0.001,536.4792,0.116,0.1167,0.1167,0.1166,0.1167,0.1165,0.117,0.1169,0.1162,0.1168,,536.4795,537.4132,left,0.9153,,537.4133,537.7628,right,0.3425,,38,0,62,537.763,538.7624,,,,,,1_AB,L1_T1A_T2P,1,0,1,5,6,4,5,11,Recorder,Did you see the Recorder,0.12,0,resources/,pics/bowtie.jpg,pics/nutcracker01.jpg,pics/hairdryer02a.jpg,pics/shovel01.jpg,pics/onion.jpg,pics/stapler13.jpg,pics/safetypin.jpg,pics/spiderweb.jpg,pics/seagull.jpg,pics/dustpan.jpg,pics/icecube01.jpg,blankImage,blankImage,blankImage,blankImage,blankImage,blankImage,recorder04,28,,,,,,,,,,,,,,,,,,,,,,,,,,,,,,,,,,,,,,,,,0,30,30,27,1,,,,,,,,,,,,,,,,,,,,,,,,,,,,,,,,,,,,,,,,,,,,,,,,,,,,,,,
,,,,,666b178876f7dc389a2c5c32,6682b41eeb79ab8215dff63d,6682b9e2394c61feb913b243,52,male,english,2024-07-01_09h21.16.590,ABmemTask3,2023.2.3,Win32,60.24096386,,,,,,,,,,,,,,,,,,,,,,,,,,,,,,,538.7636,539.7622,539.7623,7,540.2626,541.5463,0.0009,541.6625,0.1165,0.1166,0.1166,0.1167,0.1169,0.1164,0.1168,0.1167,0.1167,0.1165,0.1166,541.6627,544.6962,right,3.0229,,544.6962,549.029,right,4.3169,,40,0,64,549.0293,550.029,,,,,,1_AB,L1_T1P_T2P,1,1,1,7,8,6,4,12,hammer,Did you see the hammer,0.12,0,resources/,pics/microscope.jpg,pics/blender.jpg,pics/dustpan.jpg,pics/snowshoe.jpg,pics/mummy.jpg,pics/bowtie.jpg,pics/hammer01.jpg,pics/stapler04b.jpg,pics/seaturtle.jpg,pics/candle01.jpg,pics/necklace.jpg,pics/cannon.jpg,blankImage,blankImage,blankImage,blankImage,blankImage,hammer01,21,,,,,,,,,,,,,,,,,,,,,,,,,,,,,,,,,,,,,,,,,0,31,31,20,1,,,,,,,,,,,,,,,,,,,,,,,,,,,,,,,,,,,,,,,,,,,,,,,,,,,,,,,
,,,,,666b178876f7dc389a2c5c32,6682b41eeb79ab8215dff63d,6682b9e2394c61feb913b243,52,male,english,2024-07-01_09h21.16.590,ABmemTask3,2023.2.3,Win32,60.24096386,,,,,,,,,,,,,,,,,,,,,,,,,,,,,,,550.036,551.0288,551.029,7,551.5286,552.5788,0.001,552.6949,0.1164,0.1167,0.1169,0.1164,0.1166,0.1167,0.1166,0.1168,0.1166,,,552.6953,554.4455,left,1.7316,,554.4457,554.8287,right,0.3737,,42,0,66,554.8288,555.8285,,,,,,1_AB,L1_T1A_T2P,1,0,1,5,6,4,4,10,button,Did you see the button,0.12,0,resources/,pics/pencil01.jpg,pics/necklace.jpg,pics/sink.jpg,pics/noparkingsign.jpg,pics/banjo.jpg,pics/stapler03b.jpg,pics/candle01.jpg,pics/icecube01.jpg,pics/shovel01.jpg,pics/pencilsharpener02a.jpg,blankImage,blankImage,blankImage,blankImage,blankImage,blankImage,blankImage,button01,25,,,,,,,,,,,,,,,,,,,,,,,,,,,,,,,,,,,,,,,,,0,32,32,24,1,,,,,,,,,,,,,,,,,,,,,,,,,,,,,,,,,,,,,,,,,,,,,,,,,,,,,,,
,,,,,666b178876f7dc389a2c5c32,6682b41eeb79ab8215dff63d,6682b9e2394c61feb913b243,52,male,english,2024-07-01_09h21.16.590,ABmemTask3,2023.2.3,Win32,60.24096386,,,,,,,,,,,,,,,,,,,,,,,,,,,,,,,555.8291,556.828,556.8282,7,557.3283,558.7287,0.0012,558.8444,0.1162,0.1168,0.1165,0.1169,0.1165,0.1167,0.1166,0.1168,0.1163,0.1169,0.1165,558.8447,559.1953,right,0.3325,,559.1954,559.7445,right,0.5425,,44,0,68,559.7447,560.7449,,,,,,1_AB,L1_T1P_T2P,1,1,1,7,8,6,5,13,strawberry,Did you see the strawberry,0.12,0,resources/,pics/sealion.jpg,pics/backpack01a.jpg,pics/binoculars01b.jpg,pics/ball02.jpg,pics/proboscismonkey.jpg,pics/pictureframe04.jpg,pics/strawberry.jpg,pics/stapler12.jpg,pics/seaturtle.jpg,pics/dustpan.jpg,pics/bowlingpin.jpg,pics/hammerheadshark.jpg,pics/hen.jpg,blankImage,blankImage,blankImage,blankImage,strawberry,10,0.1169,,,,,,,,,,,,,,,,,,,,,,,,,,,,,,,,,,,,,,,,0,33,33,9,1,,,,,,,,,,,,,,,,,,,,,,,,,,,,,,,,,,,,,,,,,,,,,,,,,,,,,,,
,,,,,666b178876f7dc389a2c5c32,6682b41eeb79ab8215dff63d,6682b9e2394c61feb913b243,52,male,english,2024-07-01_09h21.16.590,ABmemTask3,2023.2.3,Win32,60.24096386,,,,,,,,,,,,,,,,,,,,,,,,,,,,,,,560.7454,561.7445,561.7446,7,562.2444,563.9952,0.0013,564.1111,0.1163,0.1167,0.1165,0.1168,0.1165,0.1171,0.1165,0.1165,0.1168,0.1164,0.1168,564.1114,564.5614,right,0.4369,,564.5615,565.1279,right,0.551,,46,0,70,565.1281,566.1281,,,,,,1_AB,L5_T1P_T2P,5,1,1,6,11,5,5,16,cruise ship,Did you see the cruise ship,0.12,0,resources/,pics/seaturtle.jpg,pics/ashtray01.jpg,pics/pencil01.jpg,pics/fanblades.jpg,pics/triangle.jpg,pics/cruiseship.jpg,pics/wheel01.jpg,pics/dustpan.jpg,pics/starfish01.jpg,pics/banjo.jpg,pics/stapler12.jpg,pics/match.jpg,pics/cannon.jpg,pics/sandbarshark.jpg,pics/sink.jpg,pics/zebra.jpg,blankImage,cruiseship,51,0.1168,0.1166,0.1165,,,,,,,,,,,,,,,,,,,,,,,,,,,,,,,,,,,,,,0,34,34,50,1,0.1169,,,,,,,,,,,,,,,,,,,,,,,,,,,,,,,,,,,,,,,,,,,,,,,,,,,,,,
,,,,,666b178876f7dc389a2c5c32,6682b41eeb79ab8215dff63d,6682b9e2394c61feb913b243,52,male,english,2024-07-01_09h21.16.590,ABmemTask3,2023.2.3,Win32,60.24096386,,,,,,,,,,,,,,,,,,,,,,,,,,,,,,,566.1347,567.1275,567.1276,7,567.6278,569.4949,0.0009,569.6113,0.1165,0.1165,0.1167,0.1168,0.1167,0.1165,0.1165,0.1169,0.1165,0.1169,0.1166,569.6115,570.5279,left,0.9036,,570.5279,571.0944,left,0.553,,48,0,72,571.0946,572.0944,,,,,,1_AB,L5_T1A_T2A,5,0,0,7,12,6,5,17,Bib,Did you see the Bib,0.12,0,resources/,pics/hammerheadshark.jpg,pics/wheel01.jpg,pics/binder03b.jpg,pics/hairdryer02a.jpg,pics/christmaslights.jpg,pics/sandbarshark.jpg,pics/binoculars01b.jpg,pics/piggybank.jpg,pics/aquarium.jpg,pics/candleholder01.jpg,pics/sink.jpg,pics/calendar.jpg,pics/birdhouse.jpg,pics/bowtie.jpg,pics/onion.jpg,pics/golfball.jpg,pics/sailboat.jpg,bib,62,0.1166,0.1167,0.1166,,,,,,,,,,,,,,,,,,,,,,,,,,,,,,,,,,,,,,0,35,35,61,1,0.1169,0.1166,,,,,,,,,,,,,,,,,,,,,,,,,,,,,,,,,,,,,,,,,,,,,,,,,,,,,
,,,,,666b178876f7dc389a2c5c32,6682b41eeb79ab8215dff63d,6682b9e2394c61feb913b243,52,male,english,2024-07-01_09h21.16.590,ABmemTask3,2023.2.3,Win32,60.24096386,,,,,,,,,,,,,,,,,,,,,,,,,,,,,,,572.1029,573.0941,573.0943,7,573.5937,574.5277,0.0012,574.644,0.1165,0.1164,0.117,0.1163,0.1167,0.1167,0.1169,0.1165,,,,574.6443,575.4109,right,0.7478,,575.4111,575.9602,right,0.5337,,50,0,74,575.9606,576.9601,,,,,,1_AB,L1_T1P_T2P,1,1,1,5,6,4,3,9,paint brush,Did you see the paint brush,0.12,0,resources/,pics/nutcracker01.jpg,pics/piggybank.jpg,pics/spiderweb.jpg,pics/table01.jpg,pics/paintbrush01.jpg,pics/stapler09.jpg,pics/hose.jpg,pics/cannon.jpg,pics/mummy.jpg,blankImage,blankImage,blankImage,blankImage,blankImage,blankImage,blankImage,blankImage,paintbrush01,20,,,,,,,,,,,,,,,,,,,,,,,,,,,,,,,,,,,,,,,,,0,36,36,19,1,,,,,,,,,,,,,,,,,,,,,,,,,,,,,,,,,,,,,,,,,,,,,,,,,,,,,,,
,,,,,666b178876f7dc389a2c5c32,6682b41eeb79ab8215dff63d,6682b9e2394c61feb913b243,52,male,english,2024-07-01_09h21.16.590,ABmemTask3,2023.2.3,Win32,60.24096386,,,,,,,,,,,,,,,,,,,,,,,,,,,,,,,576.9611,577.9605,577.9607,7,578.4603,579.9774,0.001,580.0936,0.1164,0.1167,0.1168,0.1163,0.1169,0.1167,0.1167,0.1167,0.1165,0.1167,0.1166,580.0938,580.5108,right,0.4056,,580.5108,581.0935,right,0.5699,,52,0,76,581.0936,582.0936,,,,,,1_AB,L5_T1P_T2P,5,1,1,6,11,5,3,14,truck,Did you see the truck,0.12,0,resources/,pics/calendar.jpg,pics/mummy.jpg,pics/ashtray01.jpg,pics/pencilsharpener02a.jpg,pics/dustpan.jpg,pics/boxtruck.jpg,pics/lightswitch01.jpg,pics/pictureframe04.jpg,pics/starfish01.jpg,pics/zebra.jpg,pics/stapler12.jpg,pics/bowtie.jpg,pics/candleholder01.jpg,pics/candle01.jpg,blankImage,blankImage,blankImage,boxtruck,50,0.1167,0.1166,,,,,,,,,,,,,,,,,,,,,,,,,,,,,,,,,,,,,,,0,37,37,49,1,,,,,,,,,,,,,,,,,,,,,,,,,,,,,,,,,,,,,,,,,,,,,,,,,,,,,,,
,,,,,666b178876f7dc389a2c5c32,6682b41eeb79ab8215dff63d,6682b9e2394c61feb913b243,52,male,english,2024-07-01_09h21.16.590,ABmemTask3,2023.2.3,Win32,60.24096386,,,,,,,,,,,,,,,,,,,,,,,,,,,,,,,582.1006,583.0937,583.0938,7,583.5934,584.7607,0.0011,584.8768,0.1162,0.1168,0.1166,0.1168,0.1166,0.117,0.1163,0.1169,0.1163,0.1168,,584.8771,585.5438,right,0.6494,,585.5438,586.2272,right,0.6673,,54,0,78,586.2272,587.2269,,,,,,1_AB,L1_T1P_T2P,1,1,1,7,8,6,3,11,Eiffel tower,Did you see the Eiffel tower,0.12,0,resources/,pics/seagull.jpg,pics/cymbal.jpg,pics/match.jpg,pics/binoculars01b.jpg,pics/ball02.jpg,pics/onion.jpg,pics/eiffeltower.jpg,pics/stapler11.jpg,pics/peach01.jpg,pics/sandbarshark.jpg,pics/boot02b.jpg,blankImage,blankImage,blankImage,blankImage,blankImage,blankImage,eiffeltower,1,,,,,,,,,,,,,,,,,,,,,,,,,,,,,,,,,,,,,,,,,0,38,38,0,1,,,,,,,,,,,,,,,,,,,,,,,,,,,,,,,,,,,,,,,,,,,,,,,,,,,,,,,
,,,,,666b178876f7dc389a2c5c32,6682b41eeb79ab8215dff63d,6682b9e2394c61feb913b243,52,male,english,2024-07-01_09h21.16.590,ABmemTask3,2023.2.3,Win32,60.24096386,,,,,,,,,,,,,,,,,,,,,,,,,,,,,,,587.2275,588.2266,588.2267,7,588.7267,589.7771,0.0009,589.893,0.1163,0.1167,0.1166,0.1168,0.1165,0.1167,0.1166,0.1166,0.1169,,,589.8933,590.8097,right,0.9032,,590.81,591.9098,left,1.0842,,56,0,80,591.9102,592.9099,,,,,,1_AB,L1_T1P_T2A,1,1,0,6,7,5,3,10,Electric toothbrush,Did you see the Electric toothbrush,0.12,0,resources/,pics/football.jpg,pics/sailboat.jpg,pics/cymbal.jpg,pics/hen.jpg,pics/pencil01.jpg,pics/electrictoothbrush01c.jpg,pics/bowlingpin.jpg,pics/wheel01.jpg,pics/birdhouse.jpg,pics/leaf02a.jpg,blankImage,blankImage,blankImage,blankImage,blankImage,blankImage,blankImage,electrictoothbrush01c,34,,,,,,,,,,,,,,,,,,,,,,,,,,,,,,,,,,,,,,,,,0,39,39,33,1,,,,,,,,,,,,,,,,,,,,,,,,,,,,,,,,,,,,,,,,,,,,,,,,,,,,,,,
,,,,,666b178876f7dc389a2c5c32,6682b41eeb79ab8215dff63d,6682b9e2394c61feb913b243,52,male,english,2024-07-01_09h21.16.590,ABmemTask3,2023.2.3,Win32,60.24096386,,,,,,,,,,,,,,,,,,,,,,,,,,,,,,,592.9174,593.9093,593.9095,7,594.4091,595.6932,0.001,595.8089,0.1166,0.1167,0.1166,0.1166,0.1167,0.1167,0.1165,0.1169,0.1165,0.1168,0.1164,595.8091,596.8763,left,1.0482,,596.8763,597.376,right,0.4914,,58,0,82,597.3761,598.3757,,,,,,1_AB,L5_T1A_T2P,5,0,1,4,9,3,3,12,rooster,Did you see the rooster,0.12,0,resources/,pics/table01.jpg,pics/icecube01.jpg,pics/dustpan.jpg,pics/lock03a.jpg,pics/sailboat.jpg,pics/salmon.jpg,pics/banjo.jpg,pics/zebra.jpg,pics/stapler09.jpg,pics/peach01.jpg,pics/chainsaw.jpg,pics/football.jpg,blankImage,blankImage,blankImage,blankImage,blankImage,rooster,55,,,,,,,,,,,,,,,,,,,,,,,,,,,,,,,,,,,,,,,,,0,40,40,54,1,,,,,,,,,,,,,,,,,,,,,,,,,,,,,,,,,,,,,,,,,,,,,,,,,,,,,,,
,,,,,666b178876f7dc389a2c5c32,6682b41eeb79ab8215dff63d,6682b9e2394c61feb913b243,52,male,english,2024-07-01_09h21.16.590,ABmemTask3,2023.2.3,Win32,60.24096386,,,,,,,,,,,,,,,,,,,,,,,,,,,,,,,598.3837,599.3756,599.3759,7,599.8762,600.9263,0.0007,601.0423,0.1163,0.1164,0.1168,0.1167,0.1168,0.1165,0.1167,0.1166,0.1167,,,601.0425,601.7257,right,0.6698,,601.7259,602.126,right,0.3843,,60,0,84,602.1261,603.1259,,,,,,1_AB,L1_T1P_T2P,1,1,1,5,6,4,4,10,thermometer,Did you see the thermometer,0.12,0,resources/,pics/triangle.jpg,pics/shovel01.jpg,pics/mummy.jpg,pics/noparkingsign.jpg,pics/thermometer02b.jpg,pics/stapler04.jpg,pics/piggybank.jpg,pics/golfball.jpg,pics/laptop01a.jpg,pics/aquarium.jpg,blankImage,blankImage,blankImage,blankImage,blankImage,blankImage,blankImage,thermometer02b,8,,,,,,,,,,,,,,,,,,,,,,,,,,,,,,,,,,,,,,,,,0,41,41,7,1,,,,,,,,,,,,,,,,,,,,,,,,,,,,,,,,,,,,,,,,,,,,,,,,,,,,,,,
,,,,,666b178876f7dc389a2c5c32,6682b41eeb79ab8215dff63d,6682b9e2394c61feb913b243,52,male,english,2024-07-01_09h21.16.590,ABmemTask3,2023.2.3,Win32,60.24096386,,,,,,,,,,,,,,,,,,,,,,,,,,,,,,,603.1264,604.1252,604.1254,7,604.6257,606.2591,0.001,606.3756,0.1161,0.1167,0.1167,0.1167,0.1165,0.1168,0.1166,0.1167,0.1167,0.1165,0.1168,606.3758,607.0925,right,0.7029,,607.0926,607.4256,left,0.3224,,60,0,86,607.4258,608.4255,,,,,,1_AB,L5_T1P_T2P,5,1,1,5,10,4,5,15,ribbon,Did you see the ribbon,0.12,0,resources/,pics/giraffe.jpg,pics/boot02b.jpg,pics/cymbal.jpg,pics/leaf02a.jpg,pics/ribbon04.jpg,pics/lightswitch01.jpg,pics/necklace.jpg,pics/calendar.jpg,pics/kangaroo.jpg,pics/stapler12.jpg,pics/hose.jpg,pics/carrot01.jpg,pics/match.jpg,pics/sink.jpg,pics/candleholder01.jpg,blankImage,blankImage,ribbon04,53,0.1166,0.1166,0.1166,,,,,,,,,,,,,,,,,,,,,,,,,,,,,,,,,,,,,,0,42,42,52,1,,,,,,,,,,,,,,,,,,,,,,,,,,,,,,,,,,,,,,,,,,,,,,,,,,,,,,,
,,,,,666b178876f7dc389a2c5c32,6682b41eeb79ab8215dff63d,6682b9e2394c61feb913b243,52,male,english,2024-07-01_09h21.16.590,ABmemTask3,2023.2.3,Win32,60.24096386,,,,,,,,,,,,,,,,,,,,,,,,,,,,,,,608.426,609.425,609.4252,7,609.9247,610.9757,0.0014,611.0921,0.1165,0.1167,0.1165,0.117,0.1167,0.1164,0.1167,0.1166,0.1169,,,611.0922,611.7254,right,0.6227,,611.7255,612.8751,right,1.1347,,58,0,88,612.8753,613.8754,,,,,,1_AB,L1_T1P_T2A,1,1,0,6,7,5,3,10,Duct tape,Did you see the Duct tape,0.12,0,resources/,pics/butterfly.jpg,pics/noparkingsign.jpg,pics/pictureframe04.jpg,pics/cork02.jpg,pics/fanblades.jpg,pics/ducttape.jpg,pics/icecube01.jpg,pics/siamesecat.jpg,pics/sink.jpg,pics/sandbarshark.jpg,blankImage,blankImage,blankImage,blankImage,blankImage,blankImage,blankImage,ducttape,36,,,,,,,,,,,,,,,,,,,,,,,,,,,,,,,,,,,,,,,,,0,43,43,35,1,,,,,,,,,,,,,,,,,,,,,,,,,,,,,,,,,,,,,,,,,,,,,,,,,,,,,,,
,,,,,666b178876f7dc389a2c5c32,6682b41eeb79ab8215dff63d,6682b9e2394c61feb913b243,52,male,english,2024-07-01_09h21.16.590,ABmemTask3,2023.2.3,Win32,60.24096386,,,,,,,,,,,,,,,,,,,,,,,,,,,,,,,613.8758,614.875,614.8751,7,615.3753,616.542,0.0006,616.6579,0.1165,0.1165,0.1168,0.1164,0.117,0.1167,0.1165,0.1168,0.1163,0.1169,,616.6582,617.2087,right,0.5324,,617.2087,617.7248,right,0.5005,,60,0,90,617.725,618.7243,,,,,,1_AB,L1_T1P_T2P,1,1,1,7,8,6,3,11,toothpick,Did you see the toothpick,0.12,0,resources/,pics/candleholder01.jpg,pics/blender.jpg,pics/siamesecat.jpg,pics/peanut01.jpg,pics/spiderweb.jpg,pics/football.jpg,pics/toothpick02.jpg,pics/stapler04b.jpg,pics/seagull.jpg,pics/pictureframe04.jpg,pics/shipinabottle.jpg,blankImage,blankImage,blankImage,blankImage,blankImage,blankImage,toothpick02,17,,,,,,,,,,,,,,,,,,,,,,,,,,,,,,,,,,,,,,,,,0,44,44,16,1,,,,,,,,,,,,,,,,,,,,,,,,,,,,,,,,,,,,,,,,,,,,,,,,,,,,,,,
,,,,,666b178876f7dc389a2c5c32,6682b41eeb79ab8215dff63d,6682b9e2394c61feb913b243,52,male,english,2024-07-01_09h21.16.590,ABmemTask3,2023.2.3,Win32,60.24096386,,,,,,,,,,,,,,,,,,,,,,,,,,,,,,,618.7253,619.7248,619.725,7,620.2244,621.1585,0.0011,621.2751,0.1163,0.1168,0.1168,0.1165,0.1168,0.1164,0.1167,0.1168,,,,621.2751,622.2248,left,0.9322,,622.2251,622.8415,left,0.6,,62,0,92,622.8415,623.841,,,,,,1_AB,L1_T1A_T2A,1,0,0,4,5,3,4,9,License Plate,Did you see the License Plate,0.12,0,resources/,pics/snowshoe.jpg,pics/kangaroo.jpg,pics/noparkingsign.jpg,pics/match.jpg,pics/hose.jpg,pics/blender.jpg,pics/ashtray01.jpg,pics/ball02.jpg,pics/sink.jpg,blankImage,blankImage,blankImage,blankImage,blankImage,blankImage,blankImage,blankImage,licenseplate,40,,,,,,,,,,,,,,,,,,,,,,,,,,,,,,,,,,,,,,,,,0,45,45,39,1,,,,,,,,,,,,,,,,,,,,,,,,,,,,,,,,,,,,,,,,,,,,,,,,,,,,,,,
,,,,,666b178876f7dc389a2c5c32,6682b41eeb79ab8215dff63d,6682b9e2394c61feb913b243,52,male,english,2024-07-01_09h21.16.590,ABmemTask3,2023.2.3,Win32,60.24096386,,,,,,,,,,,,,,,,,,,,,,,,,,,,,,,623.8416,624.8408,624.841,7,625.3406,626.7415,0.0014,626.8573,0.1161,0.1168,0.1165,0.1171,0.1164,0.1167,0.1167,0.1171,0.1163,0.1166,0.1167,626.8575,627.658,left,0.7824,,627.658,628.1745,left,0.5052,,64,0,94,628.1745,629.1737,,,,,,1_AB,L1_T1A_T2A,1,0,0,7,8,6,5,13,fan,Did you see the fan,0.12,0,resources/,pics/leaf02a.jpg,pics/dustpan.jpg,pics/pencil01.jpg,pics/kangaroo.jpg,pics/golfball.jpg,pics/lightswitch01.jpg,pics/nutcracker01.jpg,pics/calendar.jpg,pics/hose.jpg,pics/starfish01.jpg,pics/siamesecat.jpg,pics/bowlingpin.jpg,pics/necklace.jpg,blankImage,blankImage,blankImage,blankImage,fan,42,0.1166,,,,,,,,,,,,,,,,,,,,,,,,,,,,,,,,,,,,,,,,0,46,46,41,1,,,,,,,,,,,,,,,,,,,,,,,,,,,,,,,,,,,,,,,,,,,,,,,,,,,,,,,
,,,,,666b178876f7dc389a2c5c32,6682b41eeb79ab8215dff63d,6682b9e2394c61feb913b243,52,male,english,2024-07-01_09h21.16.590,ABmemTask3,2023.2.3,Win32,60.24096386,,,,,,,,,,,,,,,,,,,,,,,,,,,,,,,629.1747,630.1741,630.1743,7,630.6743,632.3078,0.0007,632.4239,0.1162,0.1168,0.1166,0.1168,0.1167,0.1165,0.1166,0.1169,0.1164,0.1169,0.1168,632.4241,633.2241,left,0.7825,,633.2242,633.7906,right,0.5596,,66,0,96,633.7908,634.7905,,,,,,1_AB,L5_T1A_T2P,5,0,1,7,12,6,3,15,scissors,Did you see the scissors,0.12,0,resources/,pics/cannon.jpg,pics/mummy.jpg,pics/shovel01.jpg,pics/christmaslights.jpg,pics/snowshoe.jpg,pics/candle01.jpg,pics/bowtie.jpg,pics/giraffe.jpg,pics/carrot01.jpg,pics/spoon01.jpg,pics/seaturtle.jpg,pics/stapler10.jpg,pics/footballhelmet.jpg,pics/onion.jpg,pics/wheel01.jpg,blankImage,blankImage,scissors01,57,0.1166,0.1164,0.1168,,,,,,,,,,,,,,,,,,,,,,,,,,,,,,,,,,,,,,0,47,47,56,1,,,,,,,,,,,,,,,,,,,,,,,,,,,,,,,,,,,,,,,,,,,,,,,,,,,,,,,
,,,,,666b178876f7dc389a2c5c32,6682b41eeb79ab8215dff63d,6682b9e2394c61feb913b243,52,male,english,2024-07-01_09h21.16.590,ABmemTask3,2023.2.3,Win32,60.24096386,,,,,,,,,,,,,,,,,,,,,,,,,,,,,,,634.7913,635.7907,635.7907,7,636.2907,637.1074,0.0006,637.2238,0.1164,0.1167,0.1164,0.1167,0.1168,0.1165,0.1167,,,,,637.2239,638.7235,right,1.488,,638.7237,642.6903,left,3.9507,,66,0,98,642.6904,643.6894,,,,,,1_AB,L1_T1P_T2P,1,1,1,4,5,3,3,8,Recycling bin,Did you see the Recycling bin,0.12,0,resources/,pics/microscope.jpg,pics/dustpan.jpg,pics/seagull.jpg,pics/recyclingbin.jpg,pics/stapler06.jpg,pics/bowtie.jpg,pics/dromedary.jpg,pics/salmon.jpg,blankImage,blankImage,blankImage,blankImage,blankImage,blankImage,blankImage,blankImage,blankImage,recyclingbin,16,,,,,,,,,,,,,,,,,,,,,,,,,,,,,,,,,,,,,,,,,0,48,48,15,1,,,,,,,,,,,,,,,,,,,,,,,,,,,,,,,,,,,,,,,,,,,,,,,,,,,,,,,
,,,,,666b178876f7dc389a2c5c32,6682b41eeb79ab8215dff63d,6682b9e2394c61feb913b243,52,male,english,2024-07-01_09h21.16.590,ABmemTask3,2023.2.3,Win32,60.24096386,,,,,,,,,,,,,,,,,,,,,,,,,,,,,,,643.6967,644.6901,644.6902,7,645.1901,646.5902,0.0007,646.7063,0.1163,0.1168,0.1169,0.1164,0.1164,0.1169,0.1165,0.1167,0.1168,0.1168,0.1164,646.7066,647.1396,right,0.4181,,647.1398,647.6899,right,0.5374,,68,0,100,647.6899,648.6894,,,,,,1_AB,L5_T1P_T2P,5,1,1,4,9,3,4,13,Forklift,Did you see the Forklift,0.12,0,resources/,pics/dustpan.jpg,pics/table01.jpg,pics/sink.jpg,pics/forklift.jpg,pics/dromedary.jpg,pics/proboscismonkey.jpg,pics/cymbal.jpg,pics/shovel01.jpg,pics/stapler10.jpg,pics/backpack01a.jpg,pics/binder03b.jpg,pics/banjo.jpg,pics/candleholder01.jpg,blankImage,blankImage,blankImage,blankImage,forklift,47,0.1166,,,,,,,,,,,,,,,,,,,,,,,,,,,,,,,,,,,,,,,,0,49,49,46,1,,,,,,,,,,,,,,,,,,,,,,,,,,,,,,,,,,,,,,,,,,,,,,,,,,,,,,,
,,,,,666b178876f7dc389a2c5c32,6682b41eeb79ab8215dff63d,6682b9e2394c61feb913b243,52,male,english,2024-07-01_09h21.16.590,ABmemTask3,2023.2.3,Win32,60.24096386,,,,,,,,,,,,,,,,,,,,,,,,,,,,,,,648.6902,649.6898,649.6899,7,650.1895,651.3565,0.0011,651.4732,0.1164,0.1164,0.1166,0.1168,0.1167,0.1167,0.1168,0.1166,0.1166,0.1166,,651.4732,651.8892,right,0.3983,,651.8894,652.1898,right,0.2865,,70,0,102,652.1899,653.1893,,,,,,1_AB,L1_T1P_T2P,1,1,1,7,8,6,3,11,bird,Did you see the bird,0.12,0,resources/,pics/sealion.jpg,pics/backpack01a.jpg,pics/hose.jpg,pics/table01.jpg,pics/wheel01.jpg,pics/seaturtle.jpg,pics/americangoldfinch.jpg,pics/stapler08.jpg,pics/siamesecat.jpg,pics/hammerheadshark.jpg,pics/ashtray01.jpg,blankImage,blankImage,blankImage,blankImage,blankImage,blankImage,americangoldfinch,23,,,,,,,,,,,,,,,,,,,,,,,,,,,,,,,,,,,,,,,,,0,50,50,22,1,,,,,,,,,,,,,,,,,,,,,,,,,,,,,,,,,,,,,,,,,,,,,,,,,,,,,,,
,,,,,666b178876f7dc389a2c5c32,6682b41eeb79ab8215dff63d,6682b9e2394c61feb913b243,52,male,english,2024-07-01_09h21.16.590,ABmemTask3,2023.2.3,Win32,60.24096386,,,,,,,,,,,,,,,,,,,,,,,,,,,,,,,653.1898,654.1894,654.1896,7,654.6891,655.8564,0.0011,655.9723,0.1164,0.1166,0.1165,0.1169,0.1165,0.1167,0.1168,0.1165,0.1166,0.1168,,655.9725,656.4397,right,0.4489,,656.4398,657.0395,right,0.5819,,72,0,104,657.0395,658.039,,,,,,1_AB,L1_T1P_T2P,1,1,1,7,8,6,3,11,sock,Did you see the sock,0.12,0,resources/,pics/hen.jpg,pics/christmaslights.jpg,pics/salmon.jpg,pics/sealion.jpg,pics/seaturtle.jpg,pics/giraffe.jpg,pics/athleticsock.jpg,pics/stapler01.jpg,pics/shovel01.jpg,pics/leaf02a.jpg,pics/backpack01a.jpg,blankImage,blankImage,blankImage,blankImage,blankImage,blankImage,athleticsock,11,,,,,,,,,,,,,,,,,,,,,,,,,,,,,,,,,,,,,,,,,0,51,51,10,1,,,,,,,,,,,,,,,,,,,,,,,,,,,,,,,,,,,,,,,,,,,,,,,,,,,,,,,
,,,,,666b178876f7dc389a2c5c32,6682b41eeb79ab8215dff63d,6682b9e2394c61feb913b243,52,male,english,2024-07-01_09h21.16.590,ABmemTask3,2023.2.3,Win32,60.24096386,,,,,,,,,,,,,,,,,,,,,,,,,,,,,,,658.0395,659.0389,659.0391,7,659.5387,660.9396,0.0012,661.0553,0.1163,0.1167,0.1164,0.1169,0.1166,0.1166,0.1168,0.1167,0.1164,0.1169,0.1168,661.0555,661.9058,right,0.83,,661.9059,662.3559,right,0.4339,,74,0,106,662.356,663.3552,,,,,,1_AB,L1_T1P_T2P,1,1,1,7,8,6,5,13,Totem Pole,Did you see the Totem Pole,0.12,0,resources/,pics/laptop01a.jpg,pics/carrot01.jpg,pics/wheel01.jpg,pics/icecube01.jpg,pics/ashtray01.jpg,pics/lock03a.jpg,pics/totempole.jpg,pics/stapler08.jpg,pics/golfball.jpg,pics/pencil01.jpg,pics/banjo.jpg,pics/sandbarshark.jpg,pics/shipinabottle.jpg,blankImage,blankImage,blankImage,blankImage,totempole,22,0.1165,,,,,,,,,,,,,,,,,,,,,,,,,,,,,,,,,,,,,,,,0,52,52,21,1,,,,,,,,,,,,,,,,,,,,,,,,,,,,,,,,,,,,,,,,,,,,,,,,,,,,,,,
,,,,,666b178876f7dc389a2c5c32,6682b41eeb79ab8215dff63d,6682b9e2394c61feb913b243,52,male,english,2024-07-01_09h21.16.590,ABmemTask3,2023.2.3,Win32,60.24096386,,,,,,,,,,,,,,,,,,,,,,,,,,,,,,,663.356,664.3556,664.3557,7,664.8548,666.3722,0.0014,666.4888,0.1164,0.1167,0.1166,0.1168,0.1165,0.1166,0.1167,0.1167,0.1165,0.1168,0.1166,666.4888,666.8387,right,0.3356,,666.8388,667.1717,right,0.3259,,76,0,108,667.1719,668.1715,,,,,,1_AB,L5_T1P_T2P,5,1,1,5,10,4,4,14,Fox,Did you see the Fox,0.12,0,resources/,pics/hammerheadshark.jpg,pics/bowlingpin.jpg,pics/pictureframe04.jpg,pics/peanut01.jpg,pics/redfox.jpg,pics/cymbal.jpg,pics/spoon01.jpg,pics/banjo.jpg,pics/butterfly.jpg,pics/stapler11.jpg,pics/football.jpg,pics/safetypin.jpg,pics/triangle.jpg,pics/onion.jpg,blankImage,blankImage,blankImage,redfox,45,0.1168,0.1165,,,,,,,,,,,,,,,,,,,,,,,,,,,,,,,,,,,,,,,0,53,53,44,1,,,,,,,,,,,,,,,,,,,,,,,,,,,,,,,,,,,,,,,,,,,,,,,,,,,,,,,
,,,,,666b178876f7dc389a2c5c32,6682b41eeb79ab8215dff63d,6682b9e2394c61feb913b243,52,male,english,2024-07-01_09h21.16.590,ABmemTask3,2023.2.3,Win32,60.24096386,,,,,,,,,,,,,,,,,,,,,,,,,,,,,,,668.1723,669.1717,669.1718,7,669.672,671.1888,0.0007,671.3044,0.1165,0.1162,0.117,0.1167,0.1166,0.1166,0.1165,0.1168,0.1168,0.1165,0.1167,671.3047,673.2218,right,1.8982,,673.2218,673.6383,right,0.4025,,74,0,110,673.6385,674.638,,,,,,1_AB,L5_T1P_T2A,5,1,0,6,11,5,3,14,Kiwi,Did you see the Kiwi,0.12,0,resources/,pics/candleholder01.jpg,pics/kangaroo.jpg,pics/banjo.jpg,pics/binoculars01b.jpg,pics/microscope.jpg,pics/kiwi03.jpg,pics/bowtie.jpg,pics/peanut01.jpg,pics/backpack01a.jpg,pics/zebra.jpg,pics/toiletpaper01a.jpg,pics/hen.jpg,pics/spoon01.jpg,pics/calendar.jpg,blankImage,blankImage,blankImage,kiwi03,59,0.1166,0.1168,,,,,,,,,,,,,,,,,,,,,,,,,,,,,,,,,,,,,,,0,54,54,58,1,,,,,,,,,,,,,,,,,,,,,,,,,,,,,,,,,,,,,,,,,,,,,,,,,,,,,,,
,,,,,666b178876f7dc389a2c5c32,6682b41eeb79ab8215dff63d,6682b9e2394c61feb913b243,52,male,english,2024-07-01_09h21.16.590,ABmemTask3,2023.2.3,Win32,60.24096386,,,,,,,,,,,,,,,,,,,,,,,,,,,,,,,674.645,675.6379,675.638,7,676.138,677.1882,0.0008,677.3049,0.1167,0.1165,0.1165,0.1167,0.1167,0.1167,0.1166,0.1168,0.1164,,,677.305,677.7215,right,0.4007,,677.7216,678.155,right,0.4176,,76,0,112,678.155,679.1545,,,,,,1_AB,L1_T1P_T2P,1,1,1,4,5,3,5,10,chair,Did you see the chair,0.12,0,resources/,pics/zebra.jpg,pics/floortile02.jpg,pics/cork02.jpg,pics/chair.jpg,pics/stapler07.jpg,pics/sealion.jpg,pics/shovel01.jpg,pics/piggybank.jpg,pics/candleholder01.jpg,pics/laptop01a.jpg,blankImage,blankImage,blankImage,blankImage,blankImage,blankImage,blankImage,chair,3,,,,,,,,,,,,,,,,,,,,,,,,,,,,,,,,,,,,,,,,,0,55,55,2,1,,,,,,,,,,,,,,,,,,,,,,,,,,,,,,,,,,,,,,,,,,,,,,,,,,,,,,,
,,,,,666b178876f7dc389a2c5c32,6682b41eeb79ab8215dff63d,6682b9e2394c61feb913b243,52,male,english,2024-07-01_09h21.16.590,ABmemTask3,2023.2.3,Win32,60.24096386,,,,,,,,,,,,,,,,,,,,,,,,,,,,,,,679.1551,680.1544,680.1546,7,680.6542,681.9381,0.0012,682.0546,0.1163,0.1168,0.1166,0.1165,0.1168,0.1167,0.1166,0.1169,0.1168,0.1163,0.1167,682.0548,682.4715,right,0.3994,,682.4715,682.9709,right,0.4845,,78,0,114,682.9712,683.9704,,,,,,1_AB,L1_T1P_T2P,1,1,1,6,7,5,5,12,Bear,Did you see the Bear,0.12,0,resources/,pics/necklace.jpg,pics/hen.jpg,pics/dromedary.jpg,pics/piggybank.jpg,pics/sandbarshark.jpg,pics/grizzly.jpg,pics/stapler12.jpg,pics/bowlingpin.jpg,pics/christmaslights.jpg,pics/icecube01.jpg,pics/match.jpg,pics/lock03a.jpg,blankImage,blankImage,blankImage,blankImage,blankImage,grizzly,18,,,,,,,,,,,,,,,,,,,,,,,,,,,,,,,,,,,,,,,,,0,56,56,17,1,,,,,,,,,,,,,,,,,,,,,,,,,,,,,,,,,,,,,,,,,,,,,,,,,,,,,,,
,,,,,666b178876f7dc389a2c5c32,6682b41eeb79ab8215dff63d,6682b9e2394c61feb913b243,52,male,english,2024-07-01_09h21.16.590,ABmemTask3,2023.2.3,Win32,60.24096386,,,,,,,,,,,,,,,,,,,,,,,,,,,,,,,683.9716,684.9709,684.9712,7,685.4706,686.9882,0.0011,687.1038,0.1163,0.1168,0.1168,0.1164,0.1167,0.1166,0.1168,0.1167,0.1166,0.1166,0.1165,687.104,688.3208,left,1.2047,,688.3209,688.8869,right,0.5517,,74,0,116,688.8871,689.8872,,,,,,1_AB,L5_T1P_T2A,5,1,0,4,9,3,5,14,Frisbee,Did you see the Frisbee,0.12,0,resources/,pics/giraffe.jpg,pics/christmaslights.jpg,pics/bowtie.jpg,pics/frisbee.jpg,pics/banjo.jpg,pics/calendar.jpg,pics/butterfly.jpg,pics/onion.jpg,pics/starfish01.jpg,pics/footballhelmet.jpg,pics/blender.jpg,pics/candleholder01.jpg,pics/hairdryer02a.jpg,pics/dromedary.jpg,blankImage,blankImage,blankImage,frisbee,58,0.1167,0.1171,,,,,,,,,,,,,,,,,,,,,,,,,,,,,,,,,,,,,,,0,57,57,57,1,,,,,,,,,,,,,,,,,,,,,,,,,,,,,,,,,,,,,,,,,,,,,,,,,,,,,,,
,,,,,666b178876f7dc389a2c5c32,6682b41eeb79ab8215dff63d,6682b9e2394c61feb913b243,52,male,english,2024-07-01_09h21.16.590,ABmemTask3,2023.2.3,Win32,60.24096386,,,,,,,,,,,,,,,,,,,,,,,,,,,,,,,689.8879,690.8868,690.887,7,691.3871,692.9042,0.0009,693.0203,0.1164,0.1166,0.1167,0.1165,0.1168,0.1166,0.1168,0.1164,0.1171,0.1164,0.1169,693.0205,693.8541,left,0.8159,,693.8541,694.3704,right,0.501,,76,0,118,694.3706,695.3698,,,,,,1_AB,L5_T1A_T2P,5,0,1,4,9,3,5,14,lemon,Did you see the lemon,0.12,0,resources/,pics/seaturtle.jpg,pics/lightswitch01.jpg,pics/candle01.jpg,pics/cannon.jpg,pics/seagull.jpg,pics/spoon01.jpg,pics/spiderweb.jpg,pics/sewingmachine01a.jpg,pics/stapler05.jpg,pics/binoculars01b.jpg,pics/zebra.jpg,pics/sealion.jpg,pics/shovel01.jpg,pics/wheel01.jpg,blankImage,blankImage,blankImage,lemon02,56,0.1163,0.1168,,,,,,,,,,,,,,,,,,,,,,,,,,,,,,,,,,,,,,,0,58,58,55,1,,,,,,,,,,,,,,,,,,,,,,,,,,,,,,,,,,,,,,,,,,,,,,,,,,,,,,,
,,,,,666b178876f7dc389a2c5c32,6682b41eeb79ab8215dff63d,6682b9e2394c61feb913b243,52,male,english,2024-07-01_09h21.16.590,ABmemTask3,2023.2.3,Win32,60.24096386,,,,,,,,,,,,,,,,,,,,,,,,,,,,,,,695.3707,696.3703,696.3703,7,696.8701,698.5038,0.0009,698.6196,0.1164,0.1167,0.1164,0.1168,0.1167,0.1166,0.1166,0.1168,0.1166,0.1165,0.117,698.6198,698.7533,right,0.1172,,698.7535,699.2699,right,0.4997,,78,0,120,699.2701,700.2694,,,,,,1_AB,L5_T1P_T2P,5,1,1,5,10,4,5,15,dolphin,Did you see the dolphin,0.12,0,resources/,pics/banjo.jpg,pics/shipinabottle.jpg,pics/laptop01a.jpg,pics/onion.jpg,pics/dolphin01.jpg,pics/sink.jpg,pics/seaturtle.jpg,pics/butterfly.jpg,pics/hen.jpg,pics/stapler10.jpg,pics/proboscismonkey.jpg,pics/starfish01.jpg,pics/salmon.jpg,pics/spiderweb.jpg,pics/cymbal.jpg,blankImage,blankImage,dolphin01,49,0.1166,0.1166,0.1168,,,,,,,,,,,,,,,,,,,,,,,,,,,,,,,,,,,,,,0,59,59,48,1,,,,,,,,,,,,,,,,,,,,,,,,,,,,,,,,,,,,,,,,,,,,,,,,,,,,,,,
,,,,,666b178876f7dc389a2c5c32,6682b41eeb79ab8215dff63d,6682b9e2394c61feb913b243,52,male,english,2024-07-01_09h21.16.590,ABmemTask3,2023.2.3,Win32,60.24096386,,,,,,,,,,,,,,,,,,,,,,,,,,,,,,,700.2704,701.2694,701.2695,7,701.7692,702.7036,0.0014,702.8198,0.1164,0.1168,0.1167,0.1164,0.1166,0.1169,0.1164,0.1168,,,,702.8201,703.4367,right,0.5983,,703.4367,703.8361,right,0.3883,,76,0,122,703.8363,704.8367,,,,,,1_AB,L1_T1P_T2A,1,1,0,4,5,3,4,9,blueberry,Did you see the blueberry,0.12,0,resources/,pics/sealion.jpg,pics/piggybank.jpg,pics/sink.jpg,pics/blueberry01.jpg,pics/onion.jpg,pics/sailboat.jpg,pics/seaturtle.jpg,pics/hen.jpg,pics/fanblades.jpg,blankImage,blankImage,blankImage,blankImage,blankImage,blankImage,blankImage,blankImage,blueberry01,35,,,,,,,,,,,,,,,,,,,,,,,,,,,,,,,,,,,,,,,,,0,60,60,34,1,,,,,,,,,,,,,,,,,,,,,,,,,,,,,,,,,,,,,,,,,,,,,,,,,,,,,,,
,,,,,666b178876f7dc389a2c5c32,6682b41eeb79ab8215dff63d,6682b9e2394c61feb913b243,52,male,english,2024-07-01_09h21.16.590,ABmemTask3,2023.2.3,Win32,60.24096386,,,,,,,,,,,,,,,,,,,,,,,,,,,,,,,704.837,705.8363,705.8364,7,706.3359,707.2699,0.0011,707.3859,0.1165,0.1165,0.1168,0.1166,0.1167,0.1166,0.1168,0.1164,,,,707.3862,708.3695,right,0.9651,,708.3697,708.6864,right,0.3035,,78,0,124,708.6864,709.6855,,,,,,1_AB,L1_T1P_T2P,1,1,1,4,5,3,4,9,Chefs hat,Did you see the Chefs hat,0.12,0,resources/,pics/sewingmachine01a.jpg,pics/icecube01.jpg,pics/fanblades.jpg,pics/chefshat.jpg,pics/stapler06.jpg,pics/ashtray01.jpg,pics/blender.jpg,pics/sandbarshark.jpg,pics/lock03a.jpg,blankImage,blankImage,blankImage,blankImage,blankImage,blankImage,blankImage,blankImage,chefshat,12,,,,,,,,,,,,,,,,,,,,,,,,,,,,,,,,,,,,,,,,,0,61,61,11,1,,,,,,,,,,,,,,,,,,,,,,,,,,,,,,,,,,,,,,,,,,,,,,,,,,,,,,,
,,,,,666b178876f7dc389a2c5c32,6682b41eeb79ab8215dff63d,6682b9e2394c61feb913b243,52,male,english,2024-07-01_09h21.16.590,ABmemTask3,2023.2.3,Win32,60.24096386,,,,,,,,,,,,,,,,,,,,,,,,,,,,,,,,,,,,,,,,,,,,,,,,,,,,,,,,,,,,,,,,,,,,,,,,,,,,,,,,,,,,,,,,,,,,,,,,,,,,,,,,,,,709.6869,717.0532,space,7.3473,,,,,,,,,,,,,,,,,,,,,,,,,,,,,,,,,,,,,,,,,,,,,,,,,,,,,,,,,,,,,,,,,,,,,,,,,,,,,,,,,,,,,,,,,,,,,
,,,,,666b178876f7dc389a2c5c32,6682b41eeb79ab8215dff63d,6682b9e2394c61feb913b243,52,male,english,2024-07-01_09h21.16.590,ABmemTask3,2023.2.3,Win32,60.24096386,,,space,7.3269,,,,,,,,,,,,,,,,,,,,,,,,,,,,,,,,,,,,,,,,,,,,,,,,,,,,,,,,,,,,,,,,,,,,,,,,,,,,,,,,,,,,,,,,,,,,,,,,,,,,,,,,,,,,,,,,,,,,,,,,,,,,,,,,,,,,,,,,,,,,,,,,,,,717.0532,724.4023,,,,,,,,,,,,,,,,,,,,,,,,,,,,,,,,,,,,,,,,,,,,,,,,,,,
,,,,,666b178876f7dc389a2c5c32,6682b41eeb79ab8215dff63d,6682b9e2394c61feb913b243,52,male,english,2024-07-01_09h21.16.590,ABmemTask3,2023.2.3,Win32,60.24096386,,,,,,,,,,,,,,,,,,,,,,,,,,,,,,,,,,,,,,,,,,,,,,,,,,,,,,,,,,,,,,,,,,,,,,,,,,,,,,,,,,,,,,,,,,,,,,,,,,,,,,,,,,,,,,,,,,,,,,,,,,,,,,,,,,,,,,,,,,,,,,,,,,,,,,,,,724.4023,732.0023,space,7.5704,,,,,,,,,,,,,,,,,,,,,,,,,,,,,,,,,,,,,,,,,,,,,,,
,,,,,666b178876f7dc389a2c5c32,6682b41eeb79ab8215dff63d,6682b9e2394c61feb913b243,52,male,english,2024-07-01_09h21.16.590,ABmemTask3,2023.2.3,Win32,60.24096386,,,,,,,,,,,,,,,,,,,,,,,,,,,,,,,732.0102,733.0011,733.0012,7,733.5014,734.5515,0.0009,734.6678,0.1162,0.1168,0.1165,0.1167,0.1167,0.1167,0.1165,0.117,0.1163,,,734.6683,735.3514,left,0.6646,,,,,,,-1,78,2,735.3515,736.3512,,,,,,2_AB,L1_T1P_T2P,1,1,1,6,7,5,3,10,water fountain,Did you see the water fountain,0.12,0,resources/,pics/spiderweb.jpg,pics/peach01.jpg,pics/salmon.jpg,pics/blender.jpg,pics/ball02.jpg,pics/waterfountain02.jpg,pics/stapler01.jpg,pics/pictureframe04.jpg,pics/safetypin.jpg,pics/seagull.jpg,blankImage,blankImage,blankImage,blankImage,blankImage,blankImage,blankImage,waterfountain02,21,,,,,,,,,,,,,,,,,,,,,,,,,,,,,,,,,,,,,,,,,,,,,,,,,,,,,,,0,0,0,20,1,,,,,,,,,,,,,,,,,,,,,,,,,,,,,,,,,,,,,,,,,
,,,,,666b178876f7dc389a2c5c32,6682b41eeb79ab8215dff63d,6682b9e2394c61feb913b243,52,male,english,2024-07-01_09h21.16.590,ABmemTask3,2023.2.3,Win32,60.24096386,,,,,,,,,,,,,,,,,,,,,,,,,,,,,,,736.3519,737.3505,737.3506,7,737.8512,739.0181,0.0008,739.1339,0.1162,0.1167,0.1168,0.1165,0.1166,0.1167,0.1166,0.1167,0.1167,0.1167,,739.1343,739.7511,left,0.6024,,,,,,,0,78,4,739.7512,740.7505,,,,,,2_AB,L1_T1A_T2A,1,0,0,7,8,6,3,11,pill,Did you see the pill,0.12,0,resources/,pics/sink.jpg,pics/seagull.jpg,pics/ashtray01.jpg,pics/piggybank.jpg,pics/toiletpaper01a.jpg,pics/carrot01.jpg,pics/wheel01.jpg,pics/blender.jpg,pics/onion.jpg,pics/pencil01.jpg,pics/binder03b.jpg,blankImage,blankImage,blankImage,blankImage,blankImage,blankImage,pill,40,,,,,,,,,,,,,,,,,,,,,,,,,,,,,,,,,,,,,,,,,,,,,,,,,,,,,,,0,1,1,39,1,,,,,,,,,,,,,,,,,,,,,,,,,,,,,,,,,,,,,,,,,
,,,,,666b178876f7dc389a2c5c32,6682b41eeb79ab8215dff63d,6682b9e2394c61feb913b243,52,male,english,2024-07-01_09h21.16.590,ABmemTask3,2023.2.3,Win32,60.24096386,,,,,,,,,,,,,,,,,,,,,,,,,,,,,,,740.7513,741.7511,741.7511,7,742.2508,743.3011,0.0009,743.4173,0.1163,0.1167,0.1166,0.1167,0.1167,0.1168,0.1165,0.1168,0.1166,,,743.4175,743.584,right,0.146,,,,,,,1,78,6,743.5843,744.5841,,,,,,2_AB,L1_T1P_T2P,1,1,1,4,5,3,5,10,cloud,Did you see the cloud,0.12,0,resources/,pics/laptop01a.jpg,pics/hose.jpg,pics/kangaroo.jpg,pics/cloud.jpg,pics/stapler05.jpg,pics/wheel01.jpg,pics/nutcracker01.jpg,pics/backpack01a.jpg,pics/hen.jpg,pics/chainsaw.jpg,blankImage,blankImage,blankImage,blankImage,blankImage,blankImage,blankImage,cloud,16,,,,,,,,,,,,,,,,,,,,,,,,,,,,,,,,,,,,,,,,,,,,,,,,,,,,,,,0,2,2,15,1,,,,,,,,,,,,,,,,,,,,,,,,,,,,,,,,,,,,,,,,,
,,,,,666b178876f7dc389a2c5c32,6682b41eeb79ab8215dff63d,6682b9e2394c61feb913b243,52,male,english,2024-07-01_09h21.16.590,ABmemTask3,2023.2.3,Win32,60.24096386,,,,,,,,,,,,,,,,,,,,,,,,,,,,,,,744.5846,745.5838,745.584,7,746.0839,747.3675,0.0009,747.4835,0.1163,0.1168,0.1168,0.1164,0.1166,0.1165,0.1168,0.1164,0.1168,0.1169,0.1164,747.4838,747.7505,right,0.2499,,,,,,,2,78,8,747.7507,748.7503,,,,,,2_AB,L1_T1P_T2P,1,1,1,6,7,5,5,12,bowl,Did you see the bowl,0.12,0,resources/,pics/christmaslights.jpg,pics/onion.jpg,pics/backpack01a.jpg,pics/carrot01.jpg,pics/zebra.jpg,pics/bowl01.jpg,pics/stapler06.jpg,pics/chainsaw.jpg,pics/sailboat.jpg,pics/siamesecat.jpg,pics/hose.jpg,pics/microscope.jpg,blankImage,blankImage,blankImage,blankImage,blankImage,bowl01,1,,,,,,,,,,,,,,,,,,,,,,,,,,,,,,,,,,,,,,,,,,,,,,,,,,,,,,,0,3,3,0,1,,,,,,,,,,,,,,,,,,,,,,,,,,,,,,,,,,,,,,,,,
,,,,,666b178876f7dc389a2c5c32,6682b41eeb79ab8215dff63d,6682b9e2394c61feb913b243,52,male,english,2024-07-01_09h21.16.590,ABmemTask3,2023.2.3,Win32,60.24096386,,,,,,,,,,,,,,,,,,,,,,,,,,,,,,,748.7509,749.75,749.7502,7,750.2502,751.184,0.001,751.3,0.1162,0.1167,0.1167,0.1165,0.1168,0.1168,0.1166,0.1166,,,,751.3003,751.8673,left,0.5502,,,,,,,3,78,10,751.8674,752.8671,,,,,,2_AB,L1_T1A_T2P,1,0,1,4,5,3,4,9,comb,Did you see the comb,0.12,0,resources/,pics/fanblades.jpg,pics/sailboat.jpg,pics/giraffe.jpg,pics/backpack01a.jpg,pics/stapler02.jpg,pics/pencilsharpener02a.jpg,pics/spoon01.jpg,pics/bowlingpin.jpg,pics/onion.jpg,blankImage,blankImage,blankImage,blankImage,blankImage,blankImage,blankImage,blankImage,comb02a,31,,,,,,,,,,,,,,,,,,,,,,,,,,,,,,,,,,,,,,,,,,,,,,,,,,,,,,,0,4,4,30,1,,,,,,,,,,,,,,,,,,,,,,,,,,,,,,,,,,,,,,,,,
,,,,,666b178876f7dc389a2c5c32,6682b41eeb79ab8215dff63d,6682b9e2394c61feb913b243,52,male,english,2024-07-01_09h21.16.590,ABmemTask3,2023.2.3,Win32,60.24096386,,,,,,,,,,,,,,,,,,,,,,,,,,,,,,,752.8674,753.8668,753.867,7,754.3667,755.767,0.0009,755.8834,0.1163,0.1166,0.1168,0.1164,0.1168,0.1166,0.1167,0.1167,0.1168,0.1165,0.1167,755.8835,757.5,right,1.6074,,,,,,,4,78,12,757.5,758.4992,,,,,,2_AB,L1_T1P_T2A,1,1,0,7,8,6,5,13,rice,Did you see the rice,0.12,0,resources/,pics/necklace.jpg,pics/floortile02.jpg,pics/cork02.jpg,pics/seagull.jpg,pics/hen.jpg,pics/snowshoe.jpg,pics/rice.jpg,pics/ball02.jpg,pics/peanut01.jpg,pics/boot02b.jpg,pics/spiderweb.jpg,pics/nutcracker01.jpg,pics/bowlingpin.jpg,blankImage,blankImage,blankImage,blankImage,rice,39,0.1166,,,,,,,,,,,,,,,,,,,,,,,,,,,,,,,,,,,,,,,,,,,,,,,,,,,,,,0,5,5,38,1,,,,,,,,,,,,,,,,,,,,,,,,,,,,,,,,,,,,,,,,,
,,,,,666b178876f7dc389a2c5c32,6682b41eeb79ab8215dff63d,6682b9e2394c61feb913b243,52,male,english,2024-07-01_09h21.16.590,ABmemTask3,2023.2.3,Win32,60.24096386,,,,,,,,,,,,,,,,,,,,,,,,,,,,,,,758.5002,759.5,759.5,7,759.9996,761.0493,0.001,761.1664,0.1163,0.1166,0.1168,0.1166,0.1167,0.1166,0.1167,0.1167,0.1161,,,761.1666,761.5662,right,0.3822,,,,,,,5,78,14,761.5664,762.5661,,,,,,2_AB,L1_T1P_T2P,1,1,1,4,5,3,5,10,church,Did you see the church,0.12,0,resources/,pics/sewingmachine01a.jpg,pics/footballhelmet.jpg,pics/floortile02.jpg,pics/church.jpg,pics/stapler13.jpg,pics/football.jpg,pics/calendar.jpg,pics/ashtray01.jpg,pics/blender.jpg,pics/spoon01.jpg,blankImage,blankImage,blankImage,blankImage,blankImage,blankImage,blankImage,church,15,,,,,,,,,,,,,,,,,,,,,,,,,,,,,,,,,,,,,,,,,,,,,,,,,,,,,,,0,6,6,14,1,,,,,,,,,,,,,,,,,,,,,,,,,,,,,,,,,,,,,,,,,
,,,,,666b178876f7dc389a2c5c32,6682b41eeb79ab8215dff63d,6682b9e2394c61feb913b243,52,male,english,2024-07-01_09h21.16.590,ABmemTask3,2023.2.3,Win32,60.24096386,,,,,,,,,,,,,,,,,,,,,,,,,,,,,,,762.5669,763.566,763.5661,7,764.0657,765.6997,0.0012,765.8162,0.1163,0.1169,0.1167,0.1165,0.1166,0.1169,0.1166,0.1168,0.1171,0.1161,0.1166,765.8164,766.1655,right,0.3343,,,,,,,6,78,16,766.1656,767.1657,,,,,,2_AB,L5_T1P_T2A,5,1,0,5,10,4,5,15,wheel barrow,Did you see the wheel barrow,0.12,0,resources/,pics/safetypin.jpg,pics/sealion.jpg,pics/binoculars01b.jpg,pics/bowlingpin.jpg,pics/wheelbarrow01.jpg,pics/pictureframe04.jpg,pics/zebra.jpg,pics/mummy.jpg,pics/cork02.jpg,pics/starfish01.jpg,pics/necklace.jpg,pics/bowtie.jpg,pics/cannon.jpg,pics/siamesecat.jpg,pics/dromedary.jpg,blankImage,blankImage,wheelbarrow01,59,0.1172,0.1161,0.1166,,,,,,,,,,,,,,,,,,,,,,,,,,,,,,,,,,,,,,,,,,,,,,,,,,,,0,7,7,58,1,,,,,,,,,,,,,,,,,,,,,,,,,,,,,,,,,,,,,,,,,
,,,,,666b178876f7dc389a2c5c32,6682b41eeb79ab8215dff63d,6682b9e2394c61feb913b243,52,male,english,2024-07-01_09h21.16.590,ABmemTask3,2023.2.3,Win32,60.24096386,,,,,,,,,,,,,,,,,,,,,,,,,,,,,,,767.1665,768.1659,768.166,7,768.6654,770.5328,0.0014,770.6487,0.1164,0.1167,0.1168,0.1163,0.1168,0.1168,0.1166,0.1166,0.1169,0.1164,0.1168,770.6489,773.3488,right,2.6899,,,,,,,3,78,18,773.349,774.3485,,,,,,2_AB,L5_T1A_T2A,5,0,0,7,12,6,5,17,dropper,Did you see the dropper,0.12,0,resources/,pics/icecube01.jpg,pics/piggybank.jpg,pics/dromedary.jpg,pics/birdhouse.jpg,pics/fanblades.jpg,pics/wheel01.jpg,pics/sewingmachine01a.jpg,pics/cork02.jpg,pics/hen.jpg,pics/onion.jpg,pics/boot02b.jpg,pics/golfball.jpg,pics/cymbal.jpg,pics/cannon.jpg,pics/lock03a.jpg,pics/christmaslights.jpg,pics/dustpan.jpg,dropper01,62,0.1166,0.1166,0.1168,,,,,,,,,,,,,,,,,,,,,,,,,,,,,,,,,,,,,,,,,,,0.1165,0.1168,,,,,,,,0,8,8,61,1,,,,,,,,,,,,,,,,,,,,,,,,,,,,,,,,,,,,,,,,,
,,,,,666b178876f7dc389a2c5c32,6682b41eeb79ab8215dff63d,6682b9e2394c61feb913b243,52,male,english,2024-07-01_09h21.16.590,ABmemTask3,2023.2.3,Win32,60.24096386,,,,,,,,,,,,,,,,,,,,,,,,,,,,,,,774.357,775.3488,775.3489,7,775.849,777.0158,0.0006,777.1318,0.1164,0.1167,0.1167,0.1167,0.1164,0.1168,0.1167,0.1167,0.1165,0.1168,,777.1321,778.032,right,0.8868,,,,,,,4,78,20,778.0321,779.0317,,,,,,2_AB,L1_T1P_T2A,1,1,0,6,7,5,4,11,tambourine,Did you see the tambourine,0.12,0,resources/,pics/pencil01.jpg,pics/floortile02.jpg,pics/butterfly.jpg,pics/toiletpaper01a.jpg,pics/kangaroo.jpg,pics/tambourine01.jpg,pics/lock03a.jpg,pics/golfball.jpg,pics/ashtray01.jpg,pics/fanblades.jpg,pics/sewingmachine01a.jpg,blankImage,blankImage,blankImage,blankImage,blankImage,blankImage,tambourine01,35,,,,,,,,,,,,,,,,,,,,,,,,,,,,,,,,,,,,,,,,,,,,,,,,,,,,,,,0,9,9,34,1,,,,,,,,,,,,,,,,,,,,,,,,,,,,,,,,,,,,,,,,,
