consent1.started,consent1.stopped,key_resp_8.keys,key_resp_8.rt,key_resp_8.duration,PROLIFIC_PID,STUDY_ID,SESSION_ID,age,sex,native language,date,expName,psychopyVersion,OS,frameRate,consent2.started,consent2.stopped,key_resp_9.keys,key_resp_9.rt,key_resp_9.duration,consent3.started,consent3.stopped,key_resp_10.keys,key_resp_10.rt,key_resp_10.duration,consent4.started,consent4.stopped,key_resp_11.keys,key_resp_11.rt,key_resp_11.duration,consent5.started,consent5.stopped,key_resp_12.keys,key_resp_12.rt,key_resp_12.duration,bonusInstruct.started,bonusInstruct.stopped,key_resp_14.keys,key_resp_14.rt,key_resp_14.duration,practiceInstruct.started,practiceInstruct.stopped,key_resp.keys,key_resp.rt,key_resp.duration,cueWord_2.started,cueWord_2.stopped,fix.started,frameTarget,fix.stopped,trial.started,img1Add,trial.stopped,img2Add,img3Add,img4Add,img5Add,img6Add,img7Add,img8Add,img9Add,img10Add,img11Add,img12Add,prompt1.started,prompt1.stopped,key_resp_2.keys,key_resp_2.rt,key_resp_2.duration,prompt2.started,prompt2.stopped,key_resp_3.keys,key_resp_3.rt,key_resp_3.duration,runningAcc_AB,runningTotal,runningCount_AB,feedback.started,feedback.stopped,trials.thisRepN,trials.thisTrialN,trials.thisN,trials.thisIndex,trials.ran,TrialType,CondType,Lag,T1_PA,T2_PA,T1Loc,T2Loc,PreDistractor,PostDistractor,TotalImg,cueWord,T1cue,StimLength,isi,PicFolder,Img1,Img2,Img3,Img4,Img5,Img6,Img7,Img8,Img9,Img10,Img11,Img12,Img13,Img14,Img15,Img16,Img17,T1_Identity,trialID,img13Add,img14Add,img15Add,ABfeedback.started,ABfeedback.stopped,key_resp_13.keys,key_resp_13.rt,key_resp_13.duration,MemPracticeInstruction.started,MemPracticeInstruction.stopped,key_resp_5.keys,key_resp_5.rt,key_resp_5.duration,memTrial.started,memTrial.stopped,Mem_runningPoints,key_resp_4.keys,key_resp_4.rt,key_resp_4.duration,memTrialFeedback.started,memTrialFeedback.stopped,trials_2.thisRepN,trials_2.thisTrialN,trials_2.thisN,trials_2.thisIndex,trials_2.ran,ABtrialID,priorLag,image,memFeedback.started,memFeedback.frame,memFeedback.ended,memFeedback.stopped,bonus.started,bonus.stopped,memoryBlockABInstruct.started,memoryBlockABInstruct.stopped,key_resp_6.keys,key_resp_6.rt,key_resp_6.duration,AB_block_1.thisRepN,AB_block_1.thisTrialN,AB_block_1.thisN,AB_block_1.thisIndex,AB_block_1.ran,img16Add,img17Add,AB_break1.started,AB_break1.stopped,PerceiveBlockABInstruct.started,PerceiveBlockABInstruct.stopped,key_resp_7.keys,key_resp_7.rt,key_resp_7.duration,AB_block_2.thisRepN,AB_block_2.thisTrialN,AB_block_2.thisN,AB_block_2.thisIndex,AB_block_2.ran,AB_break2.started,AB_break2.stopped,AB_block_3.thisRepN,AB_block_3.thisTrialN,AB_block_3.thisN,AB_block_3.thisIndex,AB_block_3.ran,AB_break3.started,AB_break3.stopped,AB_block_4.thisRepN,AB_block_4.thisTrialN,AB_block_4.thisN,AB_block_4.thisIndex,AB_block_4.ran,AB_break4.started,AB_break4.stopped,AB_block_5.thisRepN,AB_block_5.thisTrialN,AB_block_5.thisN,AB_block_5.thisIndex,AB_block_5.ran,AB_break5.started,AB_break5.stopped,AB_block_6.thisRepN,AB_block_6.thisTrialN,AB_block_6.thisN,AB_block_6.thisIndex,AB_block_6.ran,AB_break6.started,AB_break6.stopped,MemInstructionSURPRISE.started,MemInstructionSURPRISE.stopped,MemInstruction.started,MemInstruction.stopped,memBreak.started,memBreak.stopped,Mem_block_1.thisRepN,Mem_block_1.thisTrialN,Mem_block_1.thisN,Mem_block_1.thisIndex,Mem_block_1.ran
0.0004,5.6924,space,5.6682,,5ce1372c55fe0d001869c8d8,6682b41eeb79ab8215dff63d,6682bab87ce76f3697eee079,35,Male,"Greek,English",2024-07-01_15h20.51.840,ABmemTask3,2023.2.3,Win32,59.88023952,,,,,,,,,,,,,,,,,,,,,,,,,,,,,,,,,,,,,,,,,,,,,,,,,,,,,,,,,,,,,,,,,,,,,,,,,,,,,,,,,,,,,,,,,,,,,,,,,,,,,,,,,,,,,,,,,,,,,,,,,,,,,,,,,,,,,,,,,,,,,,,,,,,,,,,,,,,,,,,,,,,,,,,,,,,,,,,,,,,,,,,,,,,,,,,,,,,,,,,,,,,
,,,,,5ce1372c55fe0d001869c8d8,6682b41eeb79ab8215dff63d,6682bab87ce76f3697eee079,35,Male,"Greek,English",2024-07-01_15h20.51.840,ABmemTask3,2023.2.3,Win32,59.88023952,5.6941,7.3895,space,1.6469,,,,,,,,,,,,,,,,,,,,,,,,,,,,,,,,,,,,,,,,,,,,,,,,,,,,,,,,,,,,,,,,,,,,,,,,,,,,,,,,,,,,,,,,,,,,,,,,,,,,,,,,,,,,,,,,,,,,,,,,,,,,,,,,,,,,,,,,,,,,,,,,,,,,,,,,,,,,,,,,,,,,,,,,,,,,,,,,,,,,,,,,,,,,,,,,,,,,,,,
,,,,,5ce1372c55fe0d001869c8d8,6682b41eeb79ab8215dff63d,6682bab87ce76f3697eee079,35,Male,"Greek,English",2024-07-01_15h20.51.840,ABmemTask3,2023.2.3,Win32,59.88023952,,,,,,7.3908,8.5385,space,1.1147,,,,,,,,,,,,,,,,,,,,,,,,,,,,,,,,,,,,,,,,,,,,,,,,,,,,,,,,,,,,,,,,,,,,,,,,,,,,,,,,,,,,,,,,,,,,,,,,,,,,,,,,,,,,,,,,,,,,,,,,,,,,,,,,,,,,,,,,,,,,,,,,,,,,,,,,,,,,,,,,,,,,,,,,,,,,,,,,,,,,,,,,,,,,,,,,,,
,,,,,5ce1372c55fe0d001869c8d8,6682b41eeb79ab8215dff63d,6682bab87ce76f3697eee079,35,Male,"Greek,English",2024-07-01_15h20.51.840,ABmemTask3,2023.2.3,Win32,59.88023952,,,,,,,,,,,8.5407,9.1719,space,0.5979,,,,,,,,,,,,,,,,,,,,,,,,,,,,,,,,,,,,,,,,,,,,,,,,,,,,,,,,,,,,,,,,,,,,,,,,,,,,,,,,,,,,,,,,,,,,,,,,,,,,,,,,,,,,,,,,,,,,,,,,,,,,,,,,,,,,,,,,,,,,,,,,,,,,,,,,,,,,,,,,,,,,,,,,,,,,,,,,,,,,,,,,,,,,,
,,,,,5ce1372c55fe0d001869c8d8,6682b41eeb79ab8215dff63d,6682bab87ce76f3697eee079,35,Male,"Greek,English",2024-07-01_15h20.51.840,ABmemTask3,2023.2.3,Win32,59.88023952,,,,,,,,,,,,,,,,9.1728,9.5722,space,0.3656,,,,,,,,,,,,,,,,,,,,,,,,,,,,,,,,,,,,,,,,,,,,,,,,,,,,,,,,,,,,,,,,,,,,,,,,,,,,,,,,,,,,,,,,,,,,,,,,,,,,,,,,,,,,,,,,,,,,,,,,,,,,,,,,,,,,,,,,,,,,,,,,,,,,,,,,,,,,,,,,,,,,,,,,,,,,,,,,,,,,,,,,
,,,,,5ce1372c55fe0d001869c8d8,6682b41eeb79ab8215dff63d,6682bab87ce76f3697eee079,35,Male,"Greek,English",2024-07-01_15h20.51.840,ABmemTask3,2023.2.3,Win32,59.88023952,,,,,,,,,,,,,,,,,,,,,9.5732,23.2589,space,13.6446,,,,,,,,,,,,,,,,,,,,,,,,,,,,,,,,,,,,,,,,,,,,,,,,,,,,,,,,,,,,,,,,,,,,,,,,,,,,,,,,,,,,,,,,,,,,,,,,,,,,,,,,,,,,,,,,,,,,,,,,,,,,,,,,,,,,,,,,,,,,,,,,,,,,,,,,,,,,,,,,,,,,,,,,,,,,,,,,,,,
,,,,,5ce1372c55fe0d001869c8d8,6682b41eeb79ab8215dff63d,6682bab87ce76f3697eee079,35,Male,"Greek,English",2024-07-01_15h20.51.840,ABmemTask3,2023.2.3,Win32,59.88023952,,,,,,,,,,,,,,,,,,,,,,,,,,23.2593,68.092,space,44.8116,,,,,,,,,,,,,,,,,,,,,,,,,,,,,,,,,,,,,,,,,,,,,,,,,,,,,,,,,,,,,,,,,,,,,,,,,,,,,,,,,,,,,,,,,,,,,,,,,,,,,,,,,,,,,,,,,,,,,,,,,,,,,,,,,,,,,,,,,,,,,,,,,,,,,,,,,,,,,,,,,,,,,,,,,,,,,,
,,,,,5ce1372c55fe0d001869c8d8,6682b41eeb79ab8215dff63d,6682bab87ce76f3697eee079,35,Male,"Greek,English",2024-07-01_15h20.51.840,ABmemTask3,2023.2.3,Win32,59.88023952,,,,,,,,,,,,,,,,,,,,,,,,,,,,,,,68.1169,69.1049,69.1052,15,69.6049,72.356,0.0078,72.6101,0.2459,0.2501,0.25,0.2502,0.2496,0.2495,0.2485,0.2513,0.2481,0.2505,0.2499,72.6124,73.505,right,0.865,,73.5052,75.0884,left,1.5605,,2,0,2,75.0889,76.0883,0,0,0,0,1,prac_AB,L1_T1P_T2A,1,1,0,6,7,5,5,12,cat,Did you see the cat,0.25,0,resources/,pics/shipinabottle.jpg,pics/table01.jpg,pics/dustpan.jpg,pics/golfball.jpg,pics/giraffe.jpg,pics/cat.jpg,pics/peanut01.jpg,pics/pictureframe04.jpg,pics/fanblades.jpg,pics/laptop01a.jpg,pics/ball02.jpg,pics/blender.jpg,blankImage,blankImage,blankImage,blankImage,blankImage,cat,8,,,,,,,,,,,,,,,,,,,,,,,,,,,,,,,,,,,,,,,,,,,,,,,,,,,,,,,,,,,,,,,,,,,,,,,,,,,,,,,,,,,,,,,,,,,,,,,,,,,,
,,,,,5ce1372c55fe0d001869c8d8,6682b41eeb79ab8215dff63d,6682bab87ce76f3697eee079,35,Male,"Greek,English",2024-07-01_15h20.51.840,ABmemTask3,2023.2.3,Win32,59.88023952,,,,,,,,,,,,,,,,,,,,,,,,,,,,,,,76.0923,77.088,77.088,14,77.5879,79.6885,0.0067,79.9214,0.2289,0.2338,0.2331,0.2334,0.2334,0.2335,0.233,0.2333,0.2332,,,79.9215,80.9382,right,0.998,,80.9383,81.8715,right,0.9189,,4,0,4,81.8717,82.8713,0,1,1,1,1,prac_AB,L1_T1P_T2P,1,1,1,5,6,4,4,10,tree,Did you see the tree,0.24,0,resources/,pics/carrot01.jpg,pics/hammerheadshark.jpg,pics/kangaroo.jpg,pics/proboscismonkey.jpg,pics/tree.jpg,pics/stapler07.jpg,pics/siamesecat.jpg,pics/ball02.jpg,pics/pictureframe04.jpg,pics/mummy.jpg,blankImage,blankImage,blankImage,blankImage,blankImage,blankImage,blankImage,tree,1,,,,,,,,,,,,,,,,,,,,,,,,,,,,,,,,,,,,,,,,,,,,,,,,,,,,,,,,,,,,,,,,,,,,,,,,,,,,,,,,,,,,,,,,,,,,,,,,,,,,
,,,,,5ce1372c55fe0d001869c8d8,6682b41eeb79ab8215dff63d,6682bab87ce76f3697eee079,35,Male,"Greek,English",2024-07-01_15h20.51.840,ABmemTask3,2023.2.3,Win32,59.88023952,,,,,,,,,,,,,,,,,,,,,,,,,,,,,,,82.8832,83.8714,83.8714,14,84.3714,86.9392,0.0051,87.1714,0.2314,0.2324,0.2333,0.2332,0.2335,0.2332,0.2334,0.2331,0.234,0.2323,0.2342,87.1715,89.0549,left,1.8667,,89.055,89.7049,right,0.634,,6,0,6,89.705,90.7047,0,2,2,2,1,prac_AB,L1_T1A_T2P,1,0,1,7,8,6,4,12,grapes,Did you see the grapes,0.23,0,resources/,pics/sailboat.jpg,pics/butterfly.jpg,pics/giraffe.jpg,pics/spoon01.jpg,pics/hose.jpg,pics/nutcracker01.jpg,pics/table01.jpg,pics/stapler13.jpg,pics/pencil01.jpg,pics/football.jpg,pics/triangle.jpg,pics/hairdryer02a.jpg,blankImage,blankImage,blankImage,blankImage,blankImage,grape01,6,,,,,,,,,,,,,,,,,,,,,,,,,,,,,,,,,,,,,,,,,,,,,,,,,,,,,,,,,,,,,,,,,,,,,,,,,,,,,,,,,,,,,,,,,,,,,,,,,,,,
,,,,,5ce1372c55fe0d001869c8d8,6682b41eeb79ab8215dff63d,6682bab87ce76f3697eee079,35,Male,"Greek,English",2024-07-01_15h20.51.840,ABmemTask3,2023.2.3,Win32,59.88023952,,,,,,,,,,,,,,,,,,,,,,,,,,,,,,,90.7157,91.7047,91.7047,13,92.2047,95.2396,0.0055,95.4547,0.2133,0.2167,0.2169,0.217,0.2169,0.2167,0.2168,0.2155,0.2173,0.2162,0.217,95.4547,96.5216,right,1.0476,,96.5218,97.2216,right,0.6839,,8,0,8,97.2217,98.2216,0,3,3,3,1,prac_AB,L5_T1P_T2P,5,1,1,7,12,6,3,15,Human skull,Did you see the Human skull,0.22,0,resources/,pics/peach01.jpg,pics/proboscismonkey.jpg,pics/hose.jpg,pics/laptop01a.jpg,pics/hammerheadshark.jpg,pics/nutcracker01.jpg,pics/humanskull.jpg,pics/table01.jpg,pics/icecube01.jpg,pics/boot02b.jpg,pics/calendar.jpg,pics/stapler03a.jpg,pics/ashtray01.jpg,pics/giraffe.jpg,pics/dromedary.jpg,blankImage,blankImage,humanskull,12,0.2164,0.2163,0.2175,,,,,,,,,,,,,,,,,,,,,,,,,,,,,,,,,,,,,,,,,,,,,,,,,,,,,,,,,,,,,,,,,,,,,,,,,,,,,,,,,,,,,,,,,,,,,,,,,
,,,,,5ce1372c55fe0d001869c8d8,6682b41eeb79ab8215dff63d,6682bab87ce76f3697eee079,35,Male,"Greek,English",2024-07-01_15h20.51.840,ABmemTask3,2023.2.3,Win32,59.88023952,,,,,,,,,,,,,,,,,,,,,,,,,,,,,,,98.2334,99.2214,99.2215,13,99.7214,101.8884,0.0054,102.1047,0.2143,0.2169,0.2157,0.2175,0.2164,0.2166,0.2159,0.2167,0.2166,0.2168,,102.1047,103.3715,left,1.2461,,103.3717,103.9047,right,0.5173,,10,0,10,103.905,104.9047,0,4,4,4,1,prac_AB,L1_T1A_T2P,1,0,1,7,8,6,3,11,dog,Did you see the dog,0.21,0,resources/,pics/ball02.jpg,pics/binder03b.jpg,pics/dromedary.jpg,pics/shipinabottle.jpg,pics/proboscismonkey.jpg,pics/laptop01a.jpg,pics/chainsaw.jpg,pics/stapler13.jpg,pics/nutcracker01.jpg,pics/carrot01.jpg,pics/calendar.jpg,blankImage,blankImage,blankImage,blankImage,blankImage,blankImage,saintbernard,7,,,,,,,,,,,,,,,,,,,,,,,,,,,,,,,,,,,,,,,,,,,,,,,,,,,,,,,,,,,,,,,,,,,,,,,,,,,,,,,,,,,,,,,,,,,,,,,,,,,,
,,,,,5ce1372c55fe0d001869c8d8,6682b41eeb79ab8215dff63d,6682bab87ce76f3697eee079,35,Male,"Greek,English",2024-07-01_15h20.51.840,ABmemTask3,2023.2.3,Win32,59.88023952,,,,,,,,,,,,,,,,,,,,,,,,,,,,,,,104.917,105.9047,105.9048,12,106.4047,109.2059,0.0043,109.4047,0.1976,0.2003,0.1997,0.2005,0.2007,0.1991,0.2007,0.1993,0.2001,0.1996,0.2001,109.4048,110.1216,right,0.698,,110.1218,110.5882,right,0.4492,,12,0,12,110.5882,111.5881,0,5,5,5,1,prac_AB,L5_T1P_T2P,5,1,1,5,10,4,5,15,grater,Did you see the grater,0.2,0,resources/,pics/pencil01.jpg,pics/laptop01a.jpg,pics/hammerheadshark.jpg,pics/cork02.jpg,pics/grater01a.jpg,pics/shipinabottle.jpg,pics/binder03b.jpg,pics/dromedary.jpg,pics/pictureframe04.jpg,pics/stapler04b.jpg,pics/fanblades.jpg,pics/aquarium.jpg,pics/hairdryer02a.jpg,pics/lightswitch01.jpg,pics/piggybank.jpg,blankImage,blankImage,grater01a,11,0.2,0.2003,0.1996,,,,,,,,,,,,,,,,,,,,,,,,,,,,,,,,,,,,,,,,,,,,,,,,,,,,,,,,,,,,,,,,,,,,,,,,,,,,,,,,,,,,,,,,,,,,,,,,,
,,,,,5ce1372c55fe0d001869c8d8,6682b41eeb79ab8215dff63d,6682bab87ce76f3697eee079,35,Male,"Greek,English",2024-07-01_15h20.51.840,ABmemTask3,2023.2.3,Win32,59.88023952,,,,,,,,,,,,,,,,,,,,,,,,,,,,,,,111.5898,112.588,112.5881,11,113.0881,114.5559,0.0039,114.738,0.1815,0.1832,0.1841,0.1828,0.1847,0.1828,0.1828,0.1832,,,,114.7382,116.0382,right,1.2791,,116.0384,117.205,left,1.1549,,14,0,14,117.2051,118.2047,0,6,6,6,1,prac_AB,L1_T1P_T2A,1,1,0,4,5,3,4,9,chalk,Did you see the chalk,0.19,0,resources/,pics/necklace.jpg,pics/starfish01.jpg,pics/safetypin.jpg,pics/chalk.jpg,pics/candleholder01.jpg,pics/bowtie.jpg,pics/match.jpg,pics/candle01.jpg,pics/pencilsharpener02a.jpg,blankImage,blankImage,blankImage,blankImage,blankImage,blankImage,blankImage,blankImage,chalk,9,,,,,,,,,,,,,,,,,,,,,,,,,,,,,,,,,,,,,,,,,,,,,,,,,,,,,,,,,,,,,,,,,,,,,,,,,,,,,,,,,,,,,,,,,,,,,,,,,,,,
,,,,,5ce1372c55fe0d001869c8d8,6682b41eeb79ab8215dff63d,6682bab87ce76f3697eee079,35,Male,"Greek,English",2024-07-01_15h20.51.840,ABmemTask3,2023.2.3,Win32,59.88023952,,,,,,,,,,,,,,,,,,,,,,,,,,,,,,,118.2194,119.2215,119.2216,11,119.7214,121.3717,0.0048,121.5548,0.1844,0.1817,0.1814,0.1846,0.1841,0.1823,0.1838,0.1823,0.1831,,,121.5548,122.105,right,0.5283,,122.1051,122.6716,right,0.5515,,16,0,16,122.6718,123.6714,0,7,7,7,1,prac_AB,L1_T1P_T2P,1,1,1,5,6,4,4,10,pants,Did you see the pants,0.18,0,resources/,pics/kangaroo.jpg,pics/safetypin.jpg,pics/salmon.jpg,pics/sandbarshark.jpg,pics/pants.jpg,pics/stapler03a.jpg,pics/sink.jpg,pics/calendar.jpg,pics/butterfly.jpg,pics/fanblades.jpg,blankImage,blankImage,blankImage,blankImage,blankImage,blankImage,blankImage,pants,2,,,,,,,,,,,,,,,,,,,,,,,,,,,,,,,,,,,,,,,,,,,,,,,,,,,,,,,,,,,,,,,,,,,,,,,,,,,,,,,,,,,,,,,,,,,,,,,,,,,,
,,,,,5ce1372c55fe0d001869c8d8,6682b41eeb79ab8215dff63d,6682bab87ce76f3697eee079,35,Male,"Greek,English",2024-07-01_15h20.51.840,ABmemTask3,2023.2.3,Win32,59.88023952,,,,,,,,,,,,,,,,,,,,,,,,,,,,,,,123.6733,124.6716,124.6716,10,125.1714,127.5052,0.0058,127.6715,0.165,0.1667,0.166,0.1668,0.1657,0.1673,0.167,0.1671,0.1665,0.1662,0.1668,127.6715,128.7884,left,1.1021,,128.7884,129.155,right,0.3498,,18,0,18,129.1551,130.1547,0,8,8,8,1,prac_AB,L5_T1A_T2P,5,0,1,7,12,6,3,15,shirt,Did you see the shirt,0.17,0,resources/,pics/banjo.jpg,pics/chainsaw.jpg,pics/sailboat.jpg,pics/shipinabottle.jpg,pics/lightswitch01.jpg,pics/starfish01.jpg,pics/hen.jpg,pics/ball02.jpg,pics/bowlingpin.jpg,pics/hammerheadshark.jpg,pics/footballhelmet.jpg,pics/stapler10.jpg,pics/laptop01a.jpg,pics/cannon.jpg,pics/golfball.jpg,blankImage,blankImage,shirt02,13,0.1668,0.1655,0.1662,,,,,,,,,,,,,,,,,,,,,,,,,,,,,,,,,,,,,,,,,,,,,,,,,,,,,,,,,,,,,,,,,,,,,,,,,,,,,,,,,,,,,,,,,,,,,,,,,
,,,,,5ce1372c55fe0d001869c8d8,6682b41eeb79ab8215dff63d,6682bab87ce76f3697eee079,35,Male,"Greek,English",2024-07-01_15h20.51.840,ABmemTask3,2023.2.3,Win32,59.88023952,,,,,,,,,,,,,,,,,,,,,,,,,,,,,,,130.1688,131.1715,131.1715,10,131.6715,133.3386,0.0068,133.5048,0.1632,0.1668,0.1672,0.1658,0.1668,0.1646,0.1693,0.1663,0.1665,0.1657,,133.505,134.5049,right,0.9813,,134.5049,134.9381,right,0.4181,,20,0,20,134.9382,135.938,0,9,9,9,1,prac_AB,L1_T1P_T2P,1,1,1,7,8,6,3,11,tongs,Did you see the tongs,0.16,0,resources/,pics/sewingmachine01a.jpg,pics/shovel01.jpg,pics/football.jpg,pics/hen.jpg,pics/banjo.jpg,pics/zebra.jpg,pics/tongs01b.jpg,pics/stapler11.jpg,pics/shipinabottle.jpg,pics/match.jpg,pics/candle01.jpg,blankImage,blankImage,blankImage,blankImage,blankImage,blankImage,tongs01b,5,,,,,,,,,,,,,,,,,,,,,,,,,,,,,,,,,,,,,,,,,,,,,,,,,,,,,,,,,,,,,,,,,,,,,,,,,,,,,,,,,,,,,,,,,,,,,,,,,,,,
,,,,,5ce1372c55fe0d001869c8d8,6682b41eeb79ab8215dff63d,6682bab87ce76f3697eee079,35,Male,"Greek,English",2024-07-01_15h20.51.840,ABmemTask3,2023.2.3,Win32,59.88023952,,,,,,,,,,,,,,,,,,,,,,,,,,,,,,,135.9396,136.938,136.9381,9,137.438,139.0891,0.0042,139.238,0.1484,0.1498,0.15,0.1507,0.1503,0.1489,0.1512,0.1495,0.149,0.1505,0.1496,139.2381,140.4049,left,1.1478,,140.405,141.1383,left,0.7179,,22,0,22,141.1383,142.138,0,10,10,10,1,prac_AB,L1_T1A_T2A,1,0,0,7,8,6,4,12,camera,Did you see the camera,0.15,0,resources/,pics/lightswitch01.jpg,pics/table01.jpg,pics/aquarium.jpg,pics/boot02b.jpg,pics/butterfly.jpg,pics/chainsaw.jpg,pics/binoculars01b.jpg,pics/giraffe.jpg,pics/triangle.jpg,pics/microscope.jpg,pics/mummy.jpg,pics/icecube01.jpg,blankImage,blankImage,blankImage,blankImage,blankImage,camera01a,10,,,,,,,,,,,,,,,,,,,,,,,,,,,,,,,,,,,,,,,,,,,,,,,,,,,,,,,,,,,,,,,,,,,,,,,,,,,,,,,,,,,,,,,,,,,,,,,,,,,,
,,,,,5ce1372c55fe0d001869c8d8,6682b41eeb79ab8215dff63d,6682bab87ce76f3697eee079,35,Male,"Greek,English",2024-07-01_15h20.51.840,ABmemTask3,2023.2.3,Win32,59.88023952,,,,,,,,,,,,,,,,,,,,,,,,,,,,,,,142.1398,143.138,143.1381,8,143.638,144.8386,0.0046,144.9713,0.1314,0.133,0.1333,0.135,0.1314,0.1338,0.1331,0.1339,0.1325,,,144.9714,146.3215,right,1.3319,,146.3216,147.0549,left,0.7172,,22,0,24,147.055,148.0547,0,11,11,11,1,prac_AB,L1_T1P_T2P,1,1,1,6,7,5,3,10,shorts,Did you see the shorts,0.14,0,resources/,pics/snowshoe.jpg,pics/chainsaw.jpg,pics/sailboat.jpg,pics/ball02.jpg,pics/candleholder01.jpg,pics/shorts01.jpg,pics/stapler07.jpg,pics/peach01.jpg,pics/proboscismonkey.jpg,pics/hen.jpg,blankImage,blankImage,blankImage,blankImage,blankImage,blankImage,blankImage,shorts01,4,,,,,,,,,,,,,,,,,,,,,,,,,,,,,,,,,,,,,,,,,,,,,,,,,,,,,,,,,,,,,,,,,,,,,,,,,,,,,,,,,,,,,,,,,,,,,,,,,,,,
,,,,,5ce1372c55fe0d001869c8d8,6682b41eeb79ab8215dff63d,6682bab87ce76f3697eee079,35,Male,"Greek,English",2024-07-01_15h20.51.840,ABmemTask3,2023.2.3,Win32,59.88023952,,,,,,,,,,,,,,,,,,,,,,,,,,,,,,,148.057,149.0547,149.0547,8,149.5547,151.1552,0.0042,151.2881,0.1316,0.1331,0.1333,0.1338,0.1327,0.1333,0.1339,0.1327,0.1334,0.1335,0.1328,151.2881,156.0716,left,4.7647,,156.0716,156.4716,right,0.385,,18,0,26,156.4716,157.4713,0,12,12,12,1,prac_AB,L5_T1P_T2A,5,1,0,5,10,4,3,13,fish,Did you see the fish,0.13,0,resources/,pics/football.jpg,pics/safetypin.jpg,pics/shovel01.jpg,pics/sink.jpg,pics/holdfast.jpg,pics/nutcracker01.jpg,pics/starfish01.jpg,pics/onion.jpg,pics/footballhelmet.jpg,pics/boot02b.jpg,pics/sewingmachine01a.jpg,pics/kangaroo.jpg,pics/banjo.jpg,blankImage,blankImage,blankImage,blankImage,holdfast,14,0.1339,,,,,,,,,,,,,,,,,,,,,,,,,,,,,,,,,,,,,,,,,,,,,,,,,,,,,,,,,,,,,,,,,,,,,,,,,,,,,,,,,,,,,,,,,,,,,,,,,,,
,,,,,5ce1372c55fe0d001869c8d8,6682b41eeb79ab8215dff63d,6682bab87ce76f3697eee079,35,Male,"Greek,English",2024-07-01_15h20.51.840,ABmemTask3,2023.2.3,Win32,59.88023952,,,,,,,,,,,,,,,,,,,,,,,,,,,,,,,157.4835,158.4714,158.4714,7,158.9713,160.0217,0.0059,160.1381,0.1132,0.1173,0.116,0.1164,0.1176,0.1165,0.118,0.1143,0.117,,,160.1381,161.0382,right,0.8852,,161.0383,161.9382,left,0.8834,,18,0,28,161.9383,162.938,0,13,13,13,1,prac_AB,L1_T1P_T2P,1,1,1,5,6,4,4,10,fish,Did you see the fish,0.12,0,resources/,pics/butterfly.jpg,pics/banjo.jpg,pics/leaf02a.jpg,pics/dustpan.jpg,pics/sturgeon.jpg,pics/stapler02.jpg,pics/necklace.jpg,pics/shovel01.jpg,pics/starfish01.jpg,pics/chainsaw.jpg,blankImage,blankImage,blankImage,blankImage,blankImage,blankImage,blankImage,sturgeon,3,,,,,,,,,,,,,,,,,,,,,,,,,,,,,,,,,,,,,,,,,,,,,,,,,,,,,,,,,,,,,,,,,,,,,,,,,,,,,,,,,,,,,,,,,,,,,,,,,,,,
,,,,,5ce1372c55fe0d001869c8d8,6682b41eeb79ab8215dff63d,6682bab87ce76f3697eee079,35,Male,"Greek,English",2024-07-01_15h20.51.840,ABmemTask3,2023.2.3,Win32,59.88023952,,,,,,,,,,,,,,,,,,,,,,,,,,,,,,,,,,,,,,,,,,,,,,,,,,,,,,,,,,,,,,,,,,,,,,,,,,,,,,,,,,,,,,,,,,,,,,,,,,,,,,,,,,,162.9416,168.0915,space,5.1182,,,,,,,,,,,,,,,,,,,,,,,,,,,,,,,,,,,,,,,,,,,,,,,,,,,,,,,,,,,,,,,,,,,,,,,,,,,,,,,,,,,,,,,,,,,,,
,,,,,5ce1372c55fe0d001869c8d8,6682b41eeb79ab8215dff63d,6682bab87ce76f3697eee079,35,Male,"Greek,English",2024-07-01_15h20.51.840,ABmemTask3,2023.2.3,Win32,59.88023952,,,,,,,,,,,,,,,,,,,,,,,,,,,,,,,168.1132,169.1047,169.1047,15,169.6046,172.3556,0.0045,172.6046,0.2482,0.2496,0.2509,0.2497,0.25,0.2494,0.2489,0.2519,0.2478,0.2507,0.2494,172.6047,173.4882,right,0.8628,,173.4882,173.9717,left,0.4656,,2,0,2,173.9717,174.9714,0,0,0,0,1,prac_AB,L1_T1P_T2A,1,1,0,6,7,5,5,12,cat,Did you see the cat,0.25,0,resources/,pics/shipinabottle.jpg,pics/table01.jpg,pics/dustpan.jpg,pics/golfball.jpg,pics/giraffe.jpg,pics/cat.jpg,pics/peanut01.jpg,pics/pictureframe04.jpg,pics/fanblades.jpg,pics/laptop01a.jpg,pics/ball02.jpg,pics/blender.jpg,blankImage,blankImage,blankImage,blankImage,blankImage,cat,8,,,,,,,,,,,,,,,,,,,,,,,,,,,,,,,,,,,,,,,,,,,,,,,,,,,,,,,,,,,,,,,,,,,,,,,,,,,,,,,,,,,,,,,,,,,,,,,,,,,,
,,,,,5ce1372c55fe0d001869c8d8,6682b41eeb79ab8215dff63d,6682bab87ce76f3697eee079,35,Male,"Greek,English",2024-07-01_15h20.51.840,ABmemTask3,2023.2.3,Win32,59.88023952,,,,,,,,,,,,,,,,,,,,,,,,,,,,,,,174.9733,175.9713,175.9714,14,176.4714,178.5725,0.0041,178.8047,0.2317,0.2336,0.2331,0.2332,0.234,0.2334,0.2329,0.2338,0.2328,,,178.8047,179.7548,right,0.9317,,179.7549,180.1215,right,0.3512,,4,0,4,180.1216,181.1215,0,1,1,1,1,prac_AB,L1_T1P_T2P,1,1,1,5,6,4,4,10,tree,Did you see the tree,0.24,0,resources/,pics/carrot01.jpg,pics/hammerheadshark.jpg,pics/kangaroo.jpg,pics/proboscismonkey.jpg,pics/tree.jpg,pics/stapler07.jpg,pics/siamesecat.jpg,pics/ball02.jpg,pics/pictureframe04.jpg,pics/mummy.jpg,blankImage,blankImage,blankImage,blankImage,blankImage,blankImage,blankImage,tree,1,,,,,,,,,,,,,,,,,,,,,,,,,,,,,,,,,,,,,,,,,,,,,,,,,,,,,,,,,,,,,,,,,,,,,,,,,,,,,,,,,,,,,,,,,,,,,,,,,,,,
,,,,,5ce1372c55fe0d001869c8d8,6682b41eeb79ab8215dff63d,6682bab87ce76f3697eee079,35,Male,"Greek,English",2024-07-01_15h20.51.840,ABmemTask3,2023.2.3,Win32,59.88023952,,,,,,,,,,,,,,,,,,,,,,,,,,,,,,,181.1231,182.1214,182.1214,14,182.6214,185.1891,0.0036,185.4214,0.232,0.2337,0.2328,0.2334,0.2336,0.233,0.2341,0.2328,0.2339,0.2325,0.2335,185.4214,186.2716,left,0.8317,,186.2717,187.0882,right,0.8013,,6,0,6,187.0883,188.088,0,2,2,2,1,prac_AB,L1_T1A_T2P,1,0,1,7,8,6,4,12,grapes,Did you see the grapes,0.23,0,resources/,pics/sailboat.jpg,pics/butterfly.jpg,pics/giraffe.jpg,pics/spoon01.jpg,pics/hose.jpg,pics/nutcracker01.jpg,pics/table01.jpg,pics/stapler13.jpg,pics/pencil01.jpg,pics/football.jpg,pics/triangle.jpg,pics/hairdryer02a.jpg,blankImage,blankImage,blankImage,blankImage,blankImage,grape01,6,,,,,,,,,,,,,,,,,,,,,,,,,,,,,,,,,,,,,,,,,,,,,,,,,,,,,,,,,,,,,,,,,,,,,,,,,,,,,,,,,,,,,,,,,,,,,,,,,,,,
,,,,,5ce1372c55fe0d001869c8d8,6682b41eeb79ab8215dff63d,6682bab87ce76f3697eee079,35,Male,"Greek,English",2024-07-01_15h20.51.840,ABmemTask3,2023.2.3,Win32,59.88023952,,,,,,,,,,,,,,,,,,,,,,,,,,,,,,,188.09,189.088,189.0881,13,189.588,192.622,0.004,192.838,0.2153,0.2167,0.2168,0.2166,0.2162,0.2173,0.2163,0.2163,0.2168,0.2166,0.2171,192.8381,193.3215,right,0.4648,,193.3215,193.7381,right,0.4008,,8,0,8,193.7383,194.738,0,3,3,3,1,prac_AB,L5_T1P_T2P,5,1,1,7,12,6,3,15,Human skull,Did you see the Human skull,0.22,0,resources/,pics/peach01.jpg,pics/proboscismonkey.jpg,pics/hose.jpg,pics/laptop01a.jpg,pics/hammerheadshark.jpg,pics/nutcracker01.jpg,pics/humanskull.jpg,pics/table01.jpg,pics/icecube01.jpg,pics/boot02b.jpg,pics/calendar.jpg,pics/stapler03a.jpg,pics/ashtray01.jpg,pics/giraffe.jpg,pics/dromedary.jpg,blankImage,blankImage,humanskull,12,0.2163,0.217,0.2162,,,,,,,,,,,,,,,,,,,,,,,,,,,,,,,,,,,,,,,,,,,,,,,,,,,,,,,,,,,,,,,,,,,,,,,,,,,,,,,,,,,,,,,,,,,,,,,,,
,,,,,5ce1372c55fe0d001869c8d8,6682b41eeb79ab8215dff63d,6682bab87ce76f3697eee079,35,Male,"Greek,English",2024-07-01_15h20.51.840,ABmemTask3,2023.2.3,Win32,59.88023952,,,,,,,,,,,,,,,,,,,,,,,,,,,,,,,194.7397,195.7381,195.7381,13,196.238,198.4052,0.0041,198.6214,0.2151,0.2167,0.2169,0.2166,0.2162,0.2171,0.2181,0.2155,0.2162,0.2167,,198.6214,199.5882,left,0.9462,,199.5882,200.1549,left,0.55,,8,0,10,200.155,201.1547,0,4,4,4,1,prac_AB,L1_T1A_T2P,1,0,1,7,8,6,3,11,dog,Did you see the dog,0.21,0,resources/,pics/ball02.jpg,pics/binder03b.jpg,pics/dromedary.jpg,pics/shipinabottle.jpg,pics/proboscismonkey.jpg,pics/laptop01a.jpg,pics/chainsaw.jpg,pics/stapler13.jpg,pics/nutcracker01.jpg,pics/carrot01.jpg,pics/calendar.jpg,blankImage,blankImage,blankImage,blankImage,blankImage,blankImage,saintbernard,7,,,,,,,,,,,,,,,,,,,,,,,,,,,,,,,,,,,,,,,,,,,,,,,,,,,,,,,,,,,,,,,,,,,,,,,,,,,,,,,,,,,,,,,,,,,,,,,,,,,,
,,,,,5ce1372c55fe0d001869c8d8,6682b41eeb79ab8215dff63d,6682bab87ce76f3697eee079,35,Male,"Greek,English",2024-07-01_15h20.51.840,ABmemTask3,2023.2.3,Win32,59.88023952,,,,,,,,,,,,,,,,,,,,,,,,,,,,,,,201.1569,202.1547,202.1548,12,202.6547,205.456,0.0045,205.6547,0.1983,0.1995,0.1998,0.2006,0.1995,0.2003,0.1997,0.2006,0.2005,0.199,0.2009,205.6548,206.6885,right,1.0125,,206.6891,207.0381,right,0.3341,,10,0,12,207.0383,208.0381,0,5,5,5,1,prac_AB,L5_T1P_T2P,5,1,1,5,10,4,5,15,grater,Did you see the grater,0.2,0,resources/,pics/pencil01.jpg,pics/laptop01a.jpg,pics/hammerheadshark.jpg,pics/cork02.jpg,pics/grater01a.jpg,pics/shipinabottle.jpg,pics/binder03b.jpg,pics/dromedary.jpg,pics/pictureframe04.jpg,pics/stapler04b.jpg,pics/fanblades.jpg,pics/aquarium.jpg,pics/hairdryer02a.jpg,pics/lightswitch01.jpg,pics/piggybank.jpg,blankImage,blankImage,grater01a,11,0.199,0.2,0.2,,,,,,,,,,,,,,,,,,,,,,,,,,,,,,,,,,,,,,,,,,,,,,,,,,,,,,,,,,,,,,,,,,,,,,,,,,,,,,,,,,,,,,,,,,,,,,,,,
,,,,,5ce1372c55fe0d001869c8d8,6682b41eeb79ab8215dff63d,6682bab87ce76f3697eee079,35,Male,"Greek,English",2024-07-01_15h20.51.840,ABmemTask3,2023.2.3,Win32,59.88023952,,,,,,,,,,,,,,,,,,,,,,,,,,,,,,,208.0399,209.0381,209.0381,11,209.5381,211.0051,0.0042,211.188,0.1823,0.1823,0.1836,0.183,0.1834,0.1838,0.1836,0.1827,,,,211.1881,212.3216,left,1.115,,212.3217,214.4383,left,2.1036,,10,0,14,214.4384,215.4381,0,6,6,6,1,prac_AB,L1_T1P_T2A,1,1,0,4,5,3,4,9,chalk,Did you see the chalk,0.19,0,resources/,pics/necklace.jpg,pics/starfish01.jpg,pics/safetypin.jpg,pics/chalk.jpg,pics/candleholder01.jpg,pics/bowtie.jpg,pics/match.jpg,pics/candle01.jpg,pics/pencilsharpener02a.jpg,blankImage,blankImage,blankImage,blankImage,blankImage,blankImage,blankImage,blankImage,chalk,9,,,,,,,,,,,,,,,,,,,,,,,,,,,,,,,,,,,,,,,,,,,,,,,,,,,,,,,,,,,,,,,,,,,,,,,,,,,,,,,,,,,,,,,,,,,,,,,,,,,,
,,,,,5ce1372c55fe0d001869c8d8,6682b41eeb79ab8215dff63d,6682bab87ce76f3697eee079,35,Male,"Greek,English",2024-07-01_15h20.51.840,ABmemTask3,2023.2.3,Win32,59.88023952,,,,,,,,,,,,,,,,,,,,,,,,,,,,,,,215.4492,216.438,216.4381,11,216.938,218.5885,0.004,218.7714,0.1818,0.1833,0.1839,0.1828,0.1836,0.1829,0.1833,0.1836,0.1828,,,218.7714,219.8716,right,1.0829,,219.8717,221.0049,right,1.115,,12,0,16,221.005,222.0047,0,7,7,7,1,prac_AB,L1_T1P_T2P,1,1,1,5,6,4,4,10,pants,Did you see the pants,0.18,0,resources/,pics/kangaroo.jpg,pics/safetypin.jpg,pics/salmon.jpg,pics/sandbarshark.jpg,pics/pants.jpg,pics/stapler03a.jpg,pics/sink.jpg,pics/calendar.jpg,pics/butterfly.jpg,pics/fanblades.jpg,blankImage,blankImage,blankImage,blankImage,blankImage,blankImage,blankImage,pants,2,,,,,,,,,,,,,,,,,,,,,,,,,,,,,,,,,,,,,,,,,,,,,,,,,,,,,,,,,,,,,,,,,,,,,,,,,,,,,,,,,,,,,,,,,,,,,,,,,,,,
,,,,,5ce1372c55fe0d001869c8d8,6682b41eeb79ab8215dff63d,6682bab87ce76f3697eee079,35,Male,"Greek,English",2024-07-01_15h20.51.840,ABmemTask3,2023.2.3,Win32,59.88023952,,,,,,,,,,,,,,,,,,,,,,,,,,,,,,,222.0065,223.0047,223.0048,10,223.5047,225.8386,0.0037,226.0047,0.1652,0.1674,0.1665,0.1674,0.166,0.1662,0.1662,0.1667,0.1671,0.1674,0.1654,226.0048,227.3215,left,1.298,,227.3215,227.7714,right,0.4394,,14,0,18,227.7716,228.7714,0,8,8,8,1,prac_AB,L5_T1A_T2P,5,0,1,7,12,6,3,15,shirt,Did you see the shirt,0.17,0,resources/,pics/banjo.jpg,pics/chainsaw.jpg,pics/sailboat.jpg,pics/shipinabottle.jpg,pics/lightswitch01.jpg,pics/starfish01.jpg,pics/hen.jpg,pics/ball02.jpg,pics/bowlingpin.jpg,pics/hammerheadshark.jpg,pics/footballhelmet.jpg,pics/stapler10.jpg,pics/laptop01a.jpg,pics/cannon.jpg,pics/golfball.jpg,blankImage,blankImage,shirt02,13,0.1673,0.1669,0.1657,,,,,,,,,,,,,,,,,,,,,,,,,,,,,,,,,,,,,,,,,,,,,,,,,,,,,,,,,,,,,,,,,,,,,,,,,,,,,,,,,,,,,,,,,,,,,,,,,
,,,,,5ce1372c55fe0d001869c8d8,6682b41eeb79ab8215dff63d,6682bab87ce76f3697eee079,35,Male,"Greek,English",2024-07-01_15h20.51.840,ABmemTask3,2023.2.3,Win32,59.88023952,,,,,,,,,,,,,,,,,,,,,,,,,,,,,,,228.7874,229.788,229.7881,10,230.2881,231.9552,0.0064,232.1213,0.1636,0.1665,0.1678,0.1659,0.165,0.1675,0.1677,0.1655,0.1684,0.1645,,232.1214,233.3047,right,1.165,,233.3047,236.7549,left,3.4337,,14,0,20,236.755,237.7547,0,9,9,9,1,prac_AB,L1_T1P_T2P,1,1,1,7,8,6,3,11,tongs,Did you see the tongs,0.16,0,resources/,pics/sewingmachine01a.jpg,pics/shovel01.jpg,pics/football.jpg,pics/hen.jpg,pics/banjo.jpg,pics/zebra.jpg,pics/tongs01b.jpg,pics/stapler11.jpg,pics/shipinabottle.jpg,pics/match.jpg,pics/candle01.jpg,blankImage,blankImage,blankImage,blankImage,blankImage,blankImage,tongs01b,5,,,,,,,,,,,,,,,,,,,,,,,,,,,,,,,,,,,,,,,,,,,,,,,,,,,,,,,,,,,,,,,,,,,,,,,,,,,,,,,,,,,,,,,,,,,,,,,,,,,,
,,,,,5ce1372c55fe0d001869c8d8,6682b41eeb79ab8215dff63d,6682bab87ce76f3697eee079,35,Male,"Greek,English",2024-07-01_15h20.51.840,ABmemTask3,2023.2.3,Win32,59.88023952,,,,,,,,,,,,,,,,,,,,,,,,,,,,,,,237.7662,238.7547,238.7548,9,239.2547,240.9054,0.0038,241.0548,0.1488,0.1498,0.1499,0.1498,0.1504,0.1497,0.1499,0.1505,0.1497,0.1505,0.1494,241.0548,242.1714,left,1.1034,,242.1716,242.6382,left,0.4538,,16,0,22,242.6384,243.638,0,10,10,10,1,prac_AB,L1_T1A_T2A,1,0,0,7,8,6,4,12,camera,Did you see the camera,0.15,0,resources/,pics/lightswitch01.jpg,pics/table01.jpg,pics/aquarium.jpg,pics/boot02b.jpg,pics/butterfly.jpg,pics/chainsaw.jpg,pics/binoculars01b.jpg,pics/giraffe.jpg,pics/triangle.jpg,pics/microscope.jpg,pics/mummy.jpg,pics/icecube01.jpg,blankImage,blankImage,blankImage,blankImage,blankImage,camera01a,10,,,,,,,,,,,,,,,,,,,,,,,,,,,,,,,,,,,,,,,,,,,,,,,,,,,,,,,,,,,,,,,,,,,,,,,,,,,,,,,,,,,,,,,,,,,,,,,,,,,,
,,,,,5ce1372c55fe0d001869c8d8,6682b41eeb79ab8215dff63d,6682bab87ce76f3697eee079,35,Male,"Greek,English",2024-07-01_15h20.51.840,ABmemTask3,2023.2.3,Win32,59.88023952,,,,,,,,,,,,,,,,,,,,,,,,,,,,,,,243.6396,244.6381,244.6381,8,245.1381,246.3385,0.004,246.4714,0.1315,0.1341,0.1329,0.1334,0.1332,0.1328,0.1331,0.1343,0.1322,,,246.4715,247.3382,right,0.848,,247.3382,247.6881,right,0.3319,,18,0,24,247.6883,248.6881,0,11,11,11,1,prac_AB,L1_T1P_T2P,1,1,1,6,7,5,3,10,shorts,Did you see the shorts,0.14,0,resources/,pics/snowshoe.jpg,pics/chainsaw.jpg,pics/sailboat.jpg,pics/ball02.jpg,pics/candleholder01.jpg,pics/shorts01.jpg,pics/stapler07.jpg,pics/peach01.jpg,pics/proboscismonkey.jpg,pics/hen.jpg,blankImage,blankImage,blankImage,blankImage,blankImage,blankImage,blankImage,shorts01,4,,,,,,,,,,,,,,,,,,,,,,,,,,,,,,,,,,,,,,,,,,,,,,,,,,,,,,,,,,,,,,,,,,,,,,,,,,,,,,,,,,,,,,,,,,,,,,,,,,,,
,,,,,5ce1372c55fe0d001869c8d8,6682b41eeb79ab8215dff63d,6682bab87ce76f3697eee079,35,Male,"Greek,English",2024-07-01_15h20.51.840,ABmemTask3,2023.2.3,Win32,59.88023952,,,,,,,,,,,,,,,,,,,,,,,,,,,,,,,248.69,249.688,249.688,8,250.188,251.7891,0.0039,251.9214,0.1317,0.1338,0.1331,0.133,0.1339,0.1336,0.1324,0.1346,0.1327,0.1329,0.1338,251.9215,252.7715,right,0.8307,,252.7716,253.2548,left,0.4676,,20,0,26,253.255,254.2547,0,12,12,12,1,prac_AB,L5_T1P_T2A,5,1,0,5,10,4,3,13,fish,Did you see the fish,0.13,0,resources/,pics/football.jpg,pics/safetypin.jpg,pics/shovel01.jpg,pics/sink.jpg,pics/holdfast.jpg,pics/nutcracker01.jpg,pics/starfish01.jpg,pics/onion.jpg,pics/footballhelmet.jpg,pics/boot02b.jpg,pics/sewingmachine01a.jpg,pics/kangaroo.jpg,pics/banjo.jpg,blankImage,blankImage,blankImage,blankImage,holdfast,14,0.133,,,,,,,,,,,,,,,,,,,,,,,,,,,,,,,,,,,,,,,,,,,,,,,,,,,,,,,,,,,,,,,,,,,,,,,,,,,,,,,,,,,,,,,,,,,,,,,,,,,
,,,,,5ce1372c55fe0d001869c8d8,6682b41eeb79ab8215dff63d,6682bab87ce76f3697eee079,35,Male,"Greek,English",2024-07-01_15h20.51.840,ABmemTask3,2023.2.3,Win32,59.88023952,,,,,,,,,,,,,,,,,,,,,,,,,,,,,,,254.266,255.2547,255.2548,7,255.7547,256.8061,0.004,256.9214,0.1148,0.1167,0.1167,0.1172,0.1162,0.1169,0.1169,0.1162,0.1174,,,256.9215,257.6382,right,0.7036,,257.6384,258.0715,left,0.4168,,20,0,28,258.0716,259.0715,0,13,13,13,1,prac_AB,L1_T1P_T2P,1,1,1,5,6,4,4,10,fish,Did you see the fish,0.12,0,resources/,pics/butterfly.jpg,pics/banjo.jpg,pics/leaf02a.jpg,pics/dustpan.jpg,pics/sturgeon.jpg,pics/stapler02.jpg,pics/necklace.jpg,pics/shovel01.jpg,pics/starfish01.jpg,pics/chainsaw.jpg,blankImage,blankImage,blankImage,blankImage,blankImage,blankImage,blankImage,sturgeon,3,,,,,,,,,,,,,,,,,,,,,,,,,,,,,,,,,,,,,,,,,,,,,,,,,,,,,,,,,,,,,,,,,,,,,,,,,,,,,,,,,,,,,,,,,,,,,,,,,,,,
,,,,,5ce1372c55fe0d001869c8d8,6682b41eeb79ab8215dff63d,6682bab87ce76f3697eee079,35,Male,"Greek,English",2024-07-01_15h20.51.840,ABmemTask3,2023.2.3,Win32,59.88023952,,,,,,,,,,,,,,,,,,,,,,,,,,,,,,,,,,,,,,,,,,,,,,,,,,,,,,,,,,,,,,,,,,,,,,,,,,,,,,,,,,,,,,,,,,,,,,,,,,,,,,,,,,,259.0715,260.9882,space,1.8957,,,,,,,,,,,,,,,,,,,,,,,,,,,,,,,,,,,,,,,,,,,,,,,,,,,,,,,,,,,,,,,,,,,,,,,,,,,,,,,,,,,,,,,,,,,,,
,,,,,5ce1372c55fe0d001869c8d8,6682b41eeb79ab8215dff63d,6682bab87ce76f3697eee079,35,Male,"Greek,English",2024-07-01_15h20.51.840,ABmemTask3,2023.2.3,Win32,59.88023952,,,,,,,,,,,,,,,,,,,,,,,,,,,,,,,,,,,,,,,,,,,,,,,,,,,,,,,,,,,,,,,,,,,,,,,,,,,,,,,,,,,,,,,,,,,,,,,,,,,,,,,,,,,261.0103,261.0134,,,,,,,,,,,,,,,,,,,,,,,,,,,,,,,,,,,,,,,,,,,,,,,,,,,,,,,,,,,,,,,,,,,,,,,,,,,,,,,,,,,,,,,,,,,,,,,
,,,,,5ce1372c55fe0d001869c8d8,6682b41eeb79ab8215dff63d,6682bab87ce76f3697eee079,35,Male,"Greek,English",2024-07-01_15h20.51.840,ABmemTask3,2023.2.3,Win32,59.88023952,,,,,,,,,,,,,,,,,,,,,,,,,,,,,,,,,,,,,,,,,,,,,,,,,,,,,,,,,,,,,,,,,,,,,,,,,,,,,,,,,,,,,,,,,,,,,,,,,,,,,,,,,,,261.0182,261.0183,,,,,,,,,,,,,,,,,,,,,,,,,,,,,,,,,,,,,,,,,,,,,,,,,,,,,,,,,,,,,,,,,,,,,,,,,,,,,,,,,,,,,,,,,,,,,,,
,,,,,5ce1372c55fe0d001869c8d8,6682b41eeb79ab8215dff63d,6682bab87ce76f3697eee079,35,Male,"Greek,English",2024-07-01_15h20.51.840,ABmemTask3,2023.2.3,Win32,59.88023952,,,,,,,,,,,,,,,,,,,,,,,,,,,,,,,,,,,,,,,,,,,,,,,,,,,,,,,,,,,,,,,,,,,,,,,,,,,,,,,,,,,,,,,,,,,,,,,,,,,,,,,,,,,261.0233,261.0234,,,,,,,,,,,,,,,,,,,,,,,,,,,,,,,,,,,,,,,,,,,,,,,,,,,,,,,,,,,,,,,,,,,,,,,,,,,,,,,,,,,,,,,,,,,,,,,
,,,,,5ce1372c55fe0d001869c8d8,6682b41eeb79ab8215dff63d,6682bab87ce76f3697eee079,35,Male,"Greek,English",2024-07-01_15h20.51.840,ABmemTask3,2023.2.3,Win32,59.88023952,,,,,,,,,,,,,,,,,,,,,,,,,,,,,,,,,,,,,,,,,,,,,,,,,,,,,,,,,,,,,,,,,,,,,,,,,,,,,,,,,,,,,,,,,,,,,,,,,,,,,,,,,,,261.0263,261.0265,,,,,,,,,,,,,,,,,,,,,,,,,,,,,,,,,,,,,,,,,,,,,,,,,,,,,,,,,,,,,,,,,,,,,,,,,,,,,,,,,,,,,,,,,,,,,,,
,,,,,5ce1372c55fe0d001869c8d8,6682b41eeb79ab8215dff63d,6682bab87ce76f3697eee079,35,Male,"Greek,English",2024-07-01_15h20.51.840,ABmemTask3,2023.2.3,Win32,59.88023952,,,,,,,,,,,,,,,,,,,,,,,,,,,,,,,,,,,,,,,,,,,,,,,,,,,,,,,,,,,,,,,,,,,,,,,,,,,,,,,,,,,,,,,,,,,,,,,,,,,,,,,,,,,261.0291,261.0293,,,,,,,,,,,,,,,,,,,,,,,,,,,,,,,,,,,,,,,,,,,,,,,,,,,,,,,,,,,,,,,,,,,,,,,,,,,,,,,,,,,,,,,,,,,,,,,
,,,,,5ce1372c55fe0d001869c8d8,6682b41eeb79ab8215dff63d,6682bab87ce76f3697eee079,35,Male,"Greek,English",2024-07-01_15h20.51.840,ABmemTask3,2023.2.3,Win32,59.88023952,,,,,,,,,,,,,,,,,,,,,,,,,,,,,,,,,,,,,,,,,,,,,,,,,,,,,,,,,,,,,,,,,,,,,,,,,,,,,,,,,,,,,,,,,,,,,,,,,,,,,,,,,,,261.0317,261.0319,,,,,,,,,,,,,,,,,,,,,,,,,,,,,,,,,,,,,,,,,,,,,,,,,,,,,,,,,,,,,,,,,,,,,,,,,,,,,,,,,,,,,,,,,,,,,,,
,,,,,5ce1372c55fe0d001869c8d8,6682b41eeb79ab8215dff63d,6682bab87ce76f3697eee079,35,Male,"Greek,English",2024-07-01_15h20.51.840,ABmemTask3,2023.2.3,Win32,59.88023952,,,,,,,,,,,,,,,,,,,,,,,,,,,,,,,,,,,,,,,,,,,,,,,,,,,,,,,,,,,,,,,,,,,,,,,,,,,,,,,,,,,,,,,,,,,,,,,,,,,,,,,,,,,261.0351,261.0352,,,,,,,,,,,,,,,,,,,,,,,,,,,,,,,,,,,,,,,,,,,,,,,,,,,,,,,,,,,,,,,,,,,,,,,,,,,,,,,,,,,,,,,,,,,,,,,
,,,,,5ce1372c55fe0d001869c8d8,6682b41eeb79ab8215dff63d,6682bab87ce76f3697eee079,35,Male,"Greek,English",2024-07-01_15h20.51.840,ABmemTask3,2023.2.3,Win32,59.88023952,,,,,,,,,,,,,,,,,,,,,,,,,,,,,,,,,,,,,,,,,,,,,,,,,,,,,,,,,,,,,,,,,,,,,,,,,,,,,,,,,,,,,,,,,,,,,,,,,,,,,,,,,,,261.0378,261.038,,,,,,,,,,,,,,,,,,,,,,,,,,,,,,,,,,,,,,,,,,,,,,,,,,,,,,,,,,,,,,,,,,,,,,,,,,,,,,,,,,,,,,,,,,,,,,,
,,,,,5ce1372c55fe0d001869c8d8,6682b41eeb79ab8215dff63d,6682bab87ce76f3697eee079,35,Male,"Greek,English",2024-07-01_15h20.51.840,ABmemTask3,2023.2.3,Win32,59.88023952,,,,,,,,,,,,,,,,,,,,,,,,,,,,,,,,,,,,,,,,,,,,,,,,,,,,,,,,,,,,,,,,,,,,,,,,,,,,,,,,,,,,,,,,,,,,,,,,,,,,,,,,,,,261.0406,261.0406,,,,,,,,,,,,,,,,,,,,,,,,,,,,,,,,,,,,,,,,,,,,,,,,,,,,,,,,,,,,,,,,,,,,,,,,,,,,,,,,,,,,,,,,,,,,,,,
,,,,,5ce1372c55fe0d001869c8d8,6682b41eeb79ab8215dff63d,6682bab87ce76f3697eee079,35,Male,"Greek,English",2024-07-01_15h20.51.840,ABmemTask3,2023.2.3,Win32,59.88023952,,,,,,,,,,,,,,,,,,,,,,,,,,,,,,,,,,,,,,,,,,,,,,,,,,,,,,,,,,,,,,,,,,,,,,,,,,,,,,,,,,,,,,,,,,,,,,,,,,,,,,,,,,,261.0431,261.0433,,,,,,,,,,,,,,,,,,,,,,,,,,,,,,,,,,,,,,,,,,,,,,,,,,,,,,,,,,,,,,,,,,,,,,,,,,,,,,,,,,,,,,,,,,,,,,,
,,,,,5ce1372c55fe0d001869c8d8,6682b41eeb79ab8215dff63d,6682bab87ce76f3697eee079,35,Male,"Greek,English",2024-07-01_15h20.51.840,ABmemTask3,2023.2.3,Win32,59.88023952,,,,,,,,,,,,,,,,,,,,,,,,,,,,,,,,,,,,,,,,,,,,,,,,,,,,,,,,,,,,,,,,,,,,,,,,,,,,,,,,,,,,,,,,,,,,,,,,,,,,,,,,,,,261.0465,261.0466,,,,,,,,,,,,,,,,,,,,,,,,,,,,,,,,,,,,,,,,,,,,,,,,,,,,,,,,,,,,,,,,,,,,,,,,,,,,,,,,,,,,,,,,,,,,,,,
,,,,,5ce1372c55fe0d001869c8d8,6682b41eeb79ab8215dff63d,6682bab87ce76f3697eee079,35,Male,"Greek,English",2024-07-01_15h20.51.840,ABmemTask3,2023.2.3,Win32,59.88023952,,,,,,,,,,,,,,,,,,,,,,,,,,,,,,,,,,,,,,,,,,,,,,,,,,,,,,,,,,,,,,,,,,,,,,,,,,,,,,,,,,,,,,,,,,,,,,,,,,,,,,,,,,,261.049,261.0491,,,,,,,,,,,,,,,,,,,,,,,,,,,,,,,,,,,,,,,,,,,,,,,,,,,,,,,,,,,,,,,,,,,,,,,,,,,,,,,,,,,,,,,,,,,,,,,
,,,,,5ce1372c55fe0d001869c8d8,6682b41eeb79ab8215dff63d,6682bab87ce76f3697eee079,35,Male,"Greek,English",2024-07-01_15h20.51.840,ABmemTask3,2023.2.3,Win32,59.88023952,,,,,,,,,,,,,,,,,,,,,,,,,,,,,,,,,,,,,,,,,,,,,,,,,,,,,,,,,,,,,,,,,,,,,,,,,,,,,,,,,,,,,,,,,,,,,,,,,,,,,,,,,,,261.052,261.052,,,,,,,,,,,,,,,,,,,,,,,,,,,,,,,,,,,,,,,,,,,,,,,,,,,,,,,,,,,,,,,,,,,,,,,,,,,,,,,,,,,,,,,,,,,,,,,
,,,,,5ce1372c55fe0d001869c8d8,6682b41eeb79ab8215dff63d,6682bab87ce76f3697eee079,35,Male,"Greek,English",2024-07-01_15h20.51.840,ABmemTask3,2023.2.3,Win32,59.88023952,,,,,,,,,,,,,,,,,,,,,,,,,,,,,,,,,,,,,,,,,,,,,,,,,,,,,,,,,,,,,,,,,,,,,,,,,,,,,,,,,,,,,,,,,,,,,,,,,,,,,,,,,,,261.0583,261.0584,,,,,,,,,,,,,,,,,,,,,,,,,,,,,,,,,,,,,,,,,,,,,,,,,,,,,,,,,,,,,,,,,,,,,,,,,,,,,,,,,,,,,,,,,,,,,,,
,,,,,5ce1372c55fe0d001869c8d8,6682b41eeb79ab8215dff63d,6682bab87ce76f3697eee079,35,Male,"Greek,English",2024-07-01_15h20.51.840,ABmemTask3,2023.2.3,Win32,59.88023952,,,,,,,,,,,,,,,,,,,,,,,,,,,,,,,,,,,,,,,,,,,,,,,,,,,,,,,,,,,,,,,,,,,,,,,,,,,,,,,,,,,,,,,,,,,,,,,,,,,,,,,,,,,261.061,261.0611,,,,,,,,,,,,,,,,,,,,,,,,,,,,,,,,,,,,,,,,,,,,,,,,,,,,,,,,,,,,,,,,,,,,,,,,,,,,,,,,,,,,,,,,,,,,,,,
,,,,,5ce1372c55fe0d001869c8d8,6682b41eeb79ab8215dff63d,6682bab87ce76f3697eee079,35,Male,"Greek,English",2024-07-01_15h20.51.840,ABmemTask3,2023.2.3,Win32,59.88023952,,,,,,,,,,,,,,,,,,,,,,,,,,,,,,,,,,,,,,,,,,,,,,,,,,,,,,,,,,,,,,,,,,,,,,,,,,,,,,,,,,,,,,,,,,,,,,,,,,,,,,,,,,,261.0638,261.0639,,,,,,,,,,,,,,,,,,,,,,,,,,,,,,,,,,,,,,,,,,,,,,,,,,,,,,,,,,,,,,,,,,,,,,,,,,,,,,,,,,,,,,,,,,,,,,,
,,,,,5ce1372c55fe0d001869c8d8,6682b41eeb79ab8215dff63d,6682bab87ce76f3697eee079,35,Male,"Greek,English",2024-07-01_15h20.51.840,ABmemTask3,2023.2.3,Win32,59.88023952,,,,,,,,,,,,,,,,,,,,,,,,,,,,,,,,,,,,,,,,,,,,,,,,,,,,,,,,,,,,,,,,,,,,,,,,,,,,,,,,,,,,,,,,,,,,,,,,,,,,,,,,,,,261.0665,261.0667,,,,,,,,,,,,,,,,,,,,,,,,,,,,,,,,,,,,,,,,,,,,,,,,,,,,,,,,,,,,,,,,,,,,,,,,,,,,,,,,,,,,,,,,,,,,,,,
,,,,,5ce1372c55fe0d001869c8d8,6682b41eeb79ab8215dff63d,6682bab87ce76f3697eee079,35,Male,"Greek,English",2024-07-01_15h20.51.840,ABmemTask3,2023.2.3,Win32,59.88023952,,,,,,,,,,,,,,,,,,,,,,,,,,,,,,,,,,,,,,,,,,,,,,,,,,,,,,,,,,,,,,,,,,,,,,,,,,,,,,,,,,,,,,,,,,,,,,,,,,,,,,,,,,,261.0704,261.0706,,,,,,,,,,,,,,,,,,,,,,,,,,,,,,,,,,,,,,,,,,,,,,,,,,,,,,,,,,,,,,,,,,,,,,,,,,,,,,,,,,,,,,,,,,,,,,,
,,,,,5ce1372c55fe0d001869c8d8,6682b41eeb79ab8215dff63d,6682bab87ce76f3697eee079,35,Male,"Greek,English",2024-07-01_15h20.51.840,ABmemTask3,2023.2.3,Win32,59.88023952,,,,,,,,,,,,,,,,,,,,,,,,,,,,,,,,,,,,,,,,,,,,,,,,,,,,,,,,,,,,,,,,,,,,,,,,,,,,,,,,,,,,,,,,,,,,,,,,,,,,,,,,,,,261.0726,261.0728,,,,,,,,,,,,,,,,,,,,,,,,,,,,,,,,,,,,,,,,,,,,,,,,,,,,,,,,,,,,,,,,,,,,,,,,,,,,,,,,,,,,,,,,,,,,,,,
,,,,,5ce1372c55fe0d001869c8d8,6682b41eeb79ab8215dff63d,6682bab87ce76f3697eee079,35,Male,"Greek,English",2024-07-01_15h20.51.840,ABmemTask3,2023.2.3,Win32,59.88023952,,,,,,,,,,,,,,,,,,,,,,,,,,,,,,,,,,,,,,,,,,,,,,,,,,,,,,,,,,,,,,,,,,,,,,,,,,,,,,,,,,,,,,,,,,,,,,,,,,,,,,,,,,,261.075,261.0751,,,,,,,,,,,,,,,,,,,,,,,,,,,,,,,,,,,,,,,,,,,,,,,,,,,,,,,,,,,,,,,,,,,,,,,,,,,,,,,,,,,,,,,,,,,,,,,
,,,,,5ce1372c55fe0d001869c8d8,6682b41eeb79ab8215dff63d,6682bab87ce76f3697eee079,35,Male,"Greek,English",2024-07-01_15h20.51.840,ABmemTask3,2023.2.3,Win32,59.88023952,,,,,,,,,,,,,,,,,,,,,,,,,,,,,,,,,,,,,,,,,,,,,,,,,,,,,,,,,,,,,,,,,,,,,,,,,,,,,,,,,,,,,,,,,,,,,,,,,,,,,,,,,,,,,,,,261.0759,278.0912,space,16.9889,,,,,,,,,,,,,,,,,,,,,,,,,,,,,,,,,,,,,,,,,,,,,,,,,,,,,,,,,,,,,,,,,,,,,,,,,,,,,,,,,,,,,,,,
,,,,,5ce1372c55fe0d001869c8d8,6682b41eeb79ab8215dff63d,6682bab87ce76f3697eee079,35,Male,"Greek,English",2024-07-01_15h20.51.840,ABmemTask3,2023.2.3,Win32,59.88023952,,,,,,,,,,,,,,,,,,,,,,,,,,,,,,,,,278.1026,599,278.6047,,,,,,,,,,,,,,,,,,,,,,,,,,0,,,,,,,,,prac_MEM,old,,,,,,,,,,,10,,,,,,,,,,,,,,,,,,,,,,,,,,,,,,,,,,,278.6049,284.423,2,5,5.7871,,284.4255,285.4216,0,0,0,0,1,1,1,pics/tree.jpg,,,,,,,,,,,,,,,,,,,,,,,,,,,,,,,,,,,,,,,,,,,,,,,,,,,,,,,,,,,,,,,,,,,,,,,
,,,,,5ce1372c55fe0d001869c8d8,6682b41eeb79ab8215dff63d,6682bab87ce76f3697eee079,35,Male,"Greek,English",2024-07-01_15h20.51.840,ABmemTask3,2023.2.3,Win32,59.88023952,,,,,,,,,,,,,,,,,,,,,,,,,,,,,,,,,285.4328,599,285.9214,,,,,,,,,,,,,,,,,,,,,,,,,,0,,,,,,,,,prac_MEM,new,,,,,,,,,,,10,,,,,,,,,,,,,,,,,,,,,,,,,,,,,,,,,,,285.9214,290.8548,-2,5,4.9169,,290.8578,291.8547,0,1,1,9,1,999,999,pics/moth.jpg,,,,,,,,,,,,,,,,,,,,,,,,,,,,,,,,,,,,,,,,,,,,,,,,,,,,,,,,,,,,,,,,,,,,,,,
,,,,,5ce1372c55fe0d001869c8d8,6682b41eeb79ab8215dff63d,6682bab87ce76f3697eee079,35,Male,"Greek,English",2024-07-01_15h20.51.840,ABmemTask3,2023.2.3,Win32,59.88023952,,,,,,,,,,,,,,,,,,,,,,,,,,,,,,,,,291.8663,599,292.3547,,,,,,,,,,,,,,,,,,,,,,,,,,0,,,,,,,,,prac_MEM,old,,,,,,,,,,,10,,,,,,,,,,,,,,,,,,,,,,,,,,,,,,,,,,,292.3548,298.5381,-5,1,6.1649,,298.541,299.5381,0,2,2,4,1,5,1,pics/tongs01b.jpg,,,,,,,,,,,,,,,,,,,,,,,,,,,,,,,,,,,,,,,,,,,,,,,,,,,,,,,,,,,,,,,,,,,,,,,
,,,,,5ce1372c55fe0d001869c8d8,6682b41eeb79ab8215dff63d,6682bab87ce76f3697eee079,35,Male,"Greek,English",2024-07-01_15h20.51.840,ABmemTask3,2023.2.3,Win32,59.88023952,,,,,,,,,,,,,,,,,,,,,,,,,,,,,,,,,299.5493,599,300.0381,,,,,,,,,,,,,,,,,,,,,,,,,,0,,,,,,,,,prac_MEM,new,,,,,,,,,,,10,,,,,,,,,,,,,,,,,,,,,,,,,,,,,,,,,,,300.0382,302.4381,-9,5,2.3788,,302.4411,303.4383,0,3,3,10,1,999,999,pics/tomato01.jpg,,,,,,,,,,,,,,,,,,,,,,,,,,,,,,,,,,,,,,,,,,,,,,,,,,,,,,,,,,,,,,,,,,,,,,,
,,,,,5ce1372c55fe0d001869c8d8,6682b41eeb79ab8215dff63d,6682bab87ce76f3697eee079,35,Male,"Greek,English",2024-07-01_15h20.51.840,ABmemTask3,2023.2.3,Win32,59.88023952,,,,,,,,,,,,,,,,,,,,,,,,,,,,,,,,,303.4493,599,303.9381,,,,,,,,,,,,,,,,,,,,,,,,,,0,,,,,,,,,prac_MEM,new,,,,,,,,,,,10,,,,,,,,,,,,,,,,,,,,,,,,,,,,,,,,,,,303.9382,305.7381,-6,1,1.7801,,305.7401,306.7381,0,4,4,8,1,999,999,pics/thread02.jpg,,,,,,,,,,,,,,,,,,,,,,,,,,,,,,,,,,,,,,,,,,,,,,,,,,,,,,,,,,,,,,,,,,,,,,,
,,,,,5ce1372c55fe0d001869c8d8,6682b41eeb79ab8215dff63d,6682bab87ce76f3697eee079,35,Male,"Greek,English",2024-07-01_15h20.51.840,ABmemTask3,2023.2.3,Win32,59.88023952,,,,,,,,,,,,,,,,,,,,,,,,,,,,,,,,,306.7493,599,307.2381,,,,,,,,,,,,,,,,,,,,,,,,,,0,,,,,,,,,prac_MEM,old,,,,,,,,,,,10,,,,,,,,,,,,,,,,,,,,,,,,,,,,,,,,,,,307.2381,310.238,-9,1,2.9826,,310.2408,311.238,0,5,5,3,1,4,1,pics/shorts01.jpg,,,,,,,,,,,,,,,,,,,,,,,,,,,,,,,,,,,,,,,,,,,,,,,,,,,,,,,,,,,,,,,,,,,,,,,
,,,,,5ce1372c55fe0d001869c8d8,6682b41eeb79ab8215dff63d,6682bab87ce76f3697eee079,35,Male,"Greek,English",2024-07-01_15h20.51.840,ABmemTask3,2023.2.3,Win32,59.88023952,,,,,,,,,,,,,,,,,,,,,,,,,,,,,,,,,311.2495,599,311.7381,,,,,,,,,,,,,,,,,,,,,,,,,,0,,,,,,,,,prac_MEM,old,,,,,,,,,,,10,,,,,,,,,,,,,,,,,,,,,,,,,,,,,,,,,,,311.7381,314.8214,-6,6,3.0654,,314.8244,315.8215,0,6,6,6,1,12,5,pics/humanskull.jpg,,,,,,,,,,,,,,,,,,,,,,,,,,,,,,,,,,,,,,,,,,,,,,,,,,,,,,,,,,,,,,,,,,,,,,,
,,,,,5ce1372c55fe0d001869c8d8,6682b41eeb79ab8215dff63d,6682bab87ce76f3697eee079,35,Male,"Greek,English",2024-07-01_15h20.51.840,ABmemTask3,2023.2.3,Win32,59.88023952,,,,,,,,,,,,,,,,,,,,,,,,,,,,,,,,,315.8327,599,316.3214,,,,,,,,,,,,,,,,,,,,,,,,,,0,,,,,,,,,prac_MEM,old,,,,,,,,,,,10,,,,,,,,,,,,,,,,,,,,,,,,,,,,,,,,,,,316.3215,317.9548,-3,6,1.6154,,317.9567,318.9548,0,7,7,2,1,3,1,pics/sturgeon.jpg,,,,,,,,,,,,,,,,,,,,,,,,,,,,,,,,,,,,,,,,,,,,,,,,,,,,,,,,,,,,,,,,,,,,,,,
,,,,,5ce1372c55fe0d001869c8d8,6682b41eeb79ab8215dff63d,6682bab87ce76f3697eee079,35,Male,"Greek,English",2024-07-01_15h20.51.840,ABmemTask3,2023.2.3,Win32,59.88023952,,,,,,,,,,,,,,,,,,,,,,,,,,,,,,,,,318.9559,599,319.4548,,,,,,,,,,,,,,,,,,,,,,,,,,0,,,,,,,,,prac_MEM,old,,,,,,,,,,,10,,,,,,,,,,,,,,,,,,,,,,,,,,,,,,,,,,,319.4548,322.2552,-1,5,2.7841,,322.2611,323.2548,0,8,8,5,1,11,5,pics/grater01a.jpg,,,,,,,,,,,,,,,,,,,,,,,,,,,,,,,,,,,,,,,,,,,,,,,,,,,,,,,,,,,,,,,,,,,,,,,
,,,,,5ce1372c55fe0d001869c8d8,6682b41eeb79ab8215dff63d,6682bab87ce76f3697eee079,35,Male,"Greek,English",2024-07-01_15h20.51.840,ABmemTask3,2023.2.3,Win32,59.88023952,,,,,,,,,,,,,,,,,,,,,,,,,,,,,,,,,323.2687,599,323.7713,,,,,,,,,,,,,,,,,,,,,,,,,,0,,,,,,,,,prac_MEM,new,,,,,,,,,,,10,,,,,,,,,,,,,,,,,,,,,,,,,,,,,,,,,,,323.7714,325.6547,2,1,1.8661,,325.6564,326.6547,0,9,9,7,1,999,999,pics/cherry01.jpg,,,,,,,,,,,,,,,,,,,,,,,,,,,,,,,,,,,,,,,,,,,,,,,,,,,,,,,,,,,,,,,,,,,,,,,
,,,,,5ce1372c55fe0d001869c8d8,6682b41eeb79ab8215dff63d,6682bab87ce76f3697eee079,35,Male,"Greek,English",2024-07-01_15h20.51.840,ABmemTask3,2023.2.3,Win32,59.88023952,,,,,,,,,,,,,,,,,,,,,,,,,,,,,,,,,326.6678,599,327.1713,,,,,,,,,,,,,,,,,,,,,,,,,,0,,,,,,,,,prac_MEM,old,,,,,,,,,,,10,,,,,,,,,,,,,,,,,,,,,,,,,,,,,,,,,,,327.1713,328.6882,5,6,1.4992,,328.694,329.6881,0,10,10,1,1,2,1,pics/pants.jpg,,,,,,,,,,,,,,,,,,,,,,,,,,,,,,,,,,,,,,,,,,,,,,,,,,,,,,,,,,,,,,,,,,,,,,,
,,,,,5ce1372c55fe0d001869c8d8,6682b41eeb79ab8215dff63d,6682bab87ce76f3697eee079,35,Male,"Greek,English",2024-07-01_15h20.51.840,ABmemTask3,2023.2.3,Win32,59.88023952,,,,,,,,,,,,,,,,,,,,,,,,,,,,,,,,,,,,,,,,,,,,,,,,,,,,,,,,,,,,,,,,,,,,,,,,,,,,,,,,,,,,,,,,,,,,,,,,,,,,,,,,,,,,,,,,,,,,,,,,,,,,,,,,,,,,,329.6891,332.338,332.3381,332.3423,,,,,,,,,,,,,,,,,,,,,,,,,,,,,,,,,,,,,,,,,,,,,,,,,,,,,,,,,,,,,,,,,,,
,,,,,5ce1372c55fe0d001869c8d8,6682b41eeb79ab8215dff63d,6682bab87ce76f3697eee079,35,Male,"Greek,English",2024-07-01_15h20.51.840,ABmemTask3,2023.2.3,Win32,59.88023952,,,,,,,,,,,,,,,,,,space,23.7105,,,,,,,,,,,,,,,,,,,,,,,,,,,,,,,,,,,,,,,,,,,,,,,,,,,,,,,,,,,,,,,,,,,,,,,,,,,,,,,,,,,,,,,,,,,,,,,,,,,,,,,,,,,,,,,,,,,,,,332.3425,356.0911,,,,,,,,,,,,,,,,,,,,,,,,,,,,,,,,,,,,,,,,,,,,,,,,,,,,,,,,,,,,,,,,,
,,,,,5ce1372c55fe0d001869c8d8,6682b41eeb79ab8215dff63d,6682bab87ce76f3697eee079,35,Male,"Greek,English",2024-07-01_15h20.51.840,ABmemTask3,2023.2.3,Win32,59.88023952,,,,,,,,,,,,,,,,,,,,,,,,,,,,,,,,,,,,,,,,,,,,,,,,,,,,,,,,,,,,,,,,,,,,,,,,,,,,,,,,,,,,,,,,,,,,,,,,,,,,,,,,,,,,,,,,,,,,,,,,,,,,,,,,,,,,,,,,,,,356.0916,368.659,space,12.5311,,,,,,,,,,,,,,,,,,,,,,,,,,,,,,,,,,,,,,,,,,,,,,,,,,,,,,,,,,,,,
,,,,,5ce1372c55fe0d001869c8d8,6682b41eeb79ab8215dff63d,6682bab87ce76f3697eee079,35,Male,"Greek,English",2024-07-01_15h20.51.840,ABmemTask3,2023.2.3,Win32,59.88023952,,,,,,,,,,,,,,,,,,,,,,,,,,,,,,,368.6697,369.6714,369.6715,7,370.1715,371.4559,0.0041,371.5714,0.1152,0.1168,0.1172,0.1152,0.1171,0.1158,0.1168,0.1165,0.1167,0.1176,0.1163,371.5716,372.4215,right,0.8313,,372.4216,373.1382,left,0.6995,,2,0,2,373.1383,374.138,,,,,,1_AB,L1_T1P_T2A,1,1,0,7,8,6,4,12,Tennis racket,Did you see the Tennis racket,0.12,0,resources/,pics/banjo.jpg,pics/leaf02a.jpg,pics/shovel01.jpg,pics/microscope.jpg,pics/cork02.jpg,pics/seagull.jpg,pics/tennisracket.jpg,pics/binder03b.jpg,pics/floortile02.jpg,pics/carrot01.jpg,pics/candle01.jpg,pics/siamesecat.jpg,blankImage,blankImage,blankImage,blankImage,blankImage,tennisracket,38,,,,,,,,,,,,,,,,,,,,,,,,,,,,,,,,,,,,,,,,,0,0,0,37,1,,,,,,,,,,,,,,,,,,,,,,,,,,,,,,,,,,,,,,,,,,,,,,,,,,,,,,,
,,,,,5ce1372c55fe0d001869c8d8,6682b41eeb79ab8215dff63d,6682bab87ce76f3697eee079,35,Male,"Greek,English",2024-07-01_15h20.51.840,ABmemTask3,2023.2.3,Win32,59.88023952,,,,,,,,,,,,,,,,,,,,,,,,,,,,,,,374.1505,375.1547,375.1547,7,375.6547,376.5893,0.0041,376.7047,0.1168,0.1147,0.1171,0.1162,0.1172,0.1171,0.1155,0.1171,,,,376.7047,377.7549,right,1.0316,,377.7555,378.1714,left,0.4061,,4,0,4,378.1715,379.1714,,,,,,1_AB,L1_T1P_T2A,1,1,0,4,5,3,4,9,blueberry,Did you see the blueberry,0.12,0,resources/,pics/sealion.jpg,pics/piggybank.jpg,pics/sink.jpg,pics/blueberry01.jpg,pics/onion.jpg,pics/sailboat.jpg,pics/seaturtle.jpg,pics/hen.jpg,pics/fanblades.jpg,blankImage,blankImage,blankImage,blankImage,blankImage,blankImage,blankImage,blankImage,blueberry01,35,,,,,,,,,,,,,,,,,,,,,,,,,,,,,,,,,,,,,,,,,0,1,1,34,1,,,,,,,,,,,,,,,,,,,,,,,,,,,,,,,,,,,,,,,,,,,,,,,,,,,,,,,
,,,,,5ce1372c55fe0d001869c8d8,6682b41eeb79ab8215dff63d,6682bab87ce76f3697eee079,35,Male,"Greek,English",2024-07-01_15h20.51.840,ABmemTask3,2023.2.3,Win32,59.88023952,,,,,,,,,,,,,,,,,,,,,,,,,,,,,,,379.1733,380.1714,380.1715,7,380.6714,381.6051,0.004,381.7214,0.1151,0.1169,0.1167,0.1165,0.1169,0.1161,0.1186,0.115,,,,381.7215,382.4215,left,0.6838,,382.4217,383.2716,left,0.8355,,6,0,6,383.2716,384.2714,,,,,,1_AB,L1_T1A_T2A,1,0,0,4,5,3,4,9,License Plate,Did you see the License Plate,0.12,0,resources/,pics/snowshoe.jpg,pics/kangaroo.jpg,pics/noparkingsign.jpg,pics/match.jpg,pics/hose.jpg,pics/blender.jpg,pics/ashtray01.jpg,pics/ball02.jpg,pics/sink.jpg,blankImage,blankImage,blankImage,blankImage,blankImage,blankImage,blankImage,blankImage,licenseplate,40,,,,,,,,,,,,,,,,,,,,,,,,,,,,,,,,,,,,,,,,,0,2,2,39,1,,,,,,,,,,,,,,,,,,,,,,,,,,,,,,,,,,,,,,,,,,,,,,,,,,,,,,,
,,,,,5ce1372c55fe0d001869c8d8,6682b41eeb79ab8215dff63d,6682bab87ce76f3697eee079,35,Male,"Greek,English",2024-07-01_15h20.51.840,ABmemTask3,2023.2.3,Win32,59.88023952,,,,,,,,,,,,,,,,,,,,,,,,,,,,,,,384.2826,385.2714,385.2715,7,385.7714,386.8221,0.004,386.9381,0.117,0.116,0.1161,0.1162,0.1164,0.1169,0.1164,0.1168,0.1166,,,386.9382,387.8548,right,0.9001,,387.855,388.5382,left,0.6675,,8,0,8,388.5382,389.5382,,,,,,1_AB,L1_T1P_T2A,1,1,0,6,7,5,3,10,Duct tape,Did you see the Duct tape,0.12,0,resources/,pics/butterfly.jpg,pics/noparkingsign.jpg,pics/pictureframe04.jpg,pics/cork02.jpg,pics/fanblades.jpg,pics/ducttape.jpg,pics/icecube01.jpg,pics/siamesecat.jpg,pics/sink.jpg,pics/sandbarshark.jpg,blankImage,blankImage,blankImage,blankImage,blankImage,blankImage,blankImage,ducttape,36,,,,,,,,,,,,,,,,,,,,,,,,,,,,,,,,,,,,,,,,,0,3,3,35,1,,,,,,,,,,,,,,,,,,,,,,,,,,,,,,,,,,,,,,,,,,,,,,,,,,,,,,,
,,,,,5ce1372c55fe0d001869c8d8,6682b41eeb79ab8215dff63d,6682bab87ce76f3697eee079,35,Male,"Greek,English",2024-07-01_15h20.51.840,ABmemTask3,2023.2.3,Win32,59.88023952,,,,,,,,,,,,,,,,,,,,,,,,,,,,,,,389.5402,390.538,390.5381,7,391.0381,392.6724,0.0047,392.7882,0.1146,0.1167,0.1176,0.1158,0.1168,0.1167,0.1172,0.1159,0.1168,0.1168,0.1173,392.7883,393.7882,right,0.981,,393.7883,394.3549,right,0.5504,,10,0,10,394.355,395.3548,,,,,,1_AB,L5_T1P_T2P,5,1,1,5,10,4,5,15,dolphin,Did you see the dolphin,0.12,0,resources/,pics/banjo.jpg,pics/shipinabottle.jpg,pics/laptop01a.jpg,pics/onion.jpg,pics/dolphin01.jpg,pics/sink.jpg,pics/seaturtle.jpg,pics/butterfly.jpg,pics/hen.jpg,pics/stapler10.jpg,pics/proboscismonkey.jpg,pics/starfish01.jpg,pics/salmon.jpg,pics/spiderweb.jpg,pics/cymbal.jpg,blankImage,blankImage,dolphin01,49,0.116,0.116,0.1177,,,,,,,,,,,,,,,,,,,,,,,,,,,,,,,,,,,,,,0,4,4,48,1,,,,,,,,,,,,,,,,,,,,,,,,,,,,,,,,,,,,,,,,,,,,,,,,,,,,,,,
,,,,,5ce1372c55fe0d001869c8d8,6682b41eeb79ab8215dff63d,6682bab87ce76f3697eee079,35,Male,"Greek,English",2024-07-01_15h20.51.840,ABmemTask3,2023.2.3,Win32,59.88023952,,,,,,,,,,,,,,,,,,,,,,,,,,,,,,,395.3575,396.3547,396.3549,7,396.8549,398.2557,0.0045,398.3714,0.1159,0.1158,0.1163,0.1166,0.1178,0.1173,0.1152,0.117,0.1171,0.1166,0.1144,398.3715,399.8049,left,1.4181,,399.805,400.205,left,0.3879,,10,0,12,400.205,401.2048,,,,,,1_AB,L1_T1A_T2P,1,0,1,7,8,6,5,13,Basketball,Did you see the Basketball,0.12,0,resources/,pics/cork02.jpg,pics/table01.jpg,pics/christmaslights.jpg,pics/nutcracker01.jpg,pics/golfball.jpg,pics/hammerheadshark.jpg,pics/seaturtle.jpg,pics/stapler04b.jpg,pics/lock03a.jpg,pics/snowshoe.jpg,pics/sewingmachine01a.jpg,pics/peach01.jpg,pics/hose.jpg,blankImage,blankImage,blankImage,blankImage,basketball01,24,0.1182,,,,,,,,,,,,,,,,,,,,,,,,,,,,,,,,,,,,,,,,0,5,5,23,1,,,,,,,,,,,,,,,,,,,,,,,,,,,,,,,,,,,,,,,,,,,,,,,,,,,,,,,
,,,,,5ce1372c55fe0d001869c8d8,6682b41eeb79ab8215dff63d,6682bab87ce76f3697eee079,35,Male,"Greek,English",2024-07-01_15h20.51.840,ABmemTask3,2023.2.3,Win32,59.88023952,,,,,,,,,,,,,,,,,,,,,,,,,,,,,,,401.2066,402.2048,402.2048,7,402.7047,403.8719,0.004,403.988,0.1149,0.1167,0.1171,0.1161,0.1173,0.1159,0.1171,0.1168,0.1163,0.1165,,403.9881,405.3215,right,1.3151,,405.3217,405.7882,right,0.4486,,12,0,14,405.7882,406.7881,,,,,,1_AB,L1_T1P_T2P,1,1,1,7,8,6,3,11,pliers,Did you see the pliers,0.12,0,resources/,pics/mummy.jpg,pics/binder03b.jpg,pics/bowtie.jpg,pics/toiletpaper01a.jpg,pics/football.jpg,pics/blender.jpg,pics/needlenosepliers01.jpg,pics/stapler13.jpg,pics/zebra.jpg,pics/hammerheadshark.jpg,pics/sealion.jpg,blankImage,blankImage,blankImage,blankImage,blankImage,blankImage,needlenosepliers01,6,,,,,,,,,,,,,,,,,,,,,,,,,,,,,,,,,,,,,,,,,0,6,6,5,1,,,,,,,,,,,,,,,,,,,,,,,,,,,,,,,,,,,,,,,,,,,,,,,,,,,,,,,
,,,,,5ce1372c55fe0d001869c8d8,6682b41eeb79ab8215dff63d,6682bab87ce76f3697eee079,35,Male,"Greek,English",2024-07-01_15h20.51.840,ABmemTask3,2023.2.3,Win32,59.88023952,,,,,,,,,,,,,,,,,,,,,,,,,,,,,,,406.7994,407.7881,407.7881,7,408.2881,409.5736,0.0043,409.688,0.1149,0.1168,0.1161,0.1167,0.1171,0.1162,0.117,0.1167,0.1162,0.1172,0.1178,409.6882,410.3217,right,0.6144,,410.3218,412.3216,left,1.9843,,12,0,16,412.3217,413.3214,,,,,,1_AB,L1_T1P_T2P,1,1,1,6,7,5,5,12,rope,Did you see the rope,0.12,0,resources/,pics/toiletpaper01a.jpg,pics/sewingmachine01a.jpg,pics/birdhouse.jpg,pics/sealion.jpg,pics/safetypin.jpg,pics/rope03.jpg,pics/stapler04.jpg,pics/binder03b.jpg,pics/ashtray01.jpg,pics/sandbarshark.jpg,pics/chainsaw.jpg,pics/nutcracker01.jpg,blankImage,blankImage,blankImage,blankImage,blankImage,rope03,4,,,,,,,,,,,,,,,,,,,,,,,,,,,,,,,,,,,,,,,,,0,7,7,3,1,,,,,,,,,,,,,,,,,,,,,,,,,,,,,,,,,,,,,,,,,,,,,,,,,,,,,,,
,,,,,5ce1372c55fe0d001869c8d8,6682b41eeb79ab8215dff63d,6682bab87ce76f3697eee079,35,Male,"Greek,English",2024-07-01_15h20.51.840,ABmemTask3,2023.2.3,Win32,59.88023952,,,,,,,,,,,,,,,,,,,,,,,,,,,,,,,413.3327,414.3214,414.3215,7,414.8215,416.2227,0.0035,416.3382,0.1153,0.1171,0.1163,0.1167,0.117,0.1182,0.1156,0.1174,0.1154,0.1162,0.1182,416.3382,418.3717,left,2.0145,,418.3717,418.8216,right,0.4331,,10,0,18,418.8217,419.8214,,,,,,1_AB,L1_T1A_T2A,1,0,0,7,8,6,5,13,fan,Did you see the fan,0.12,0,resources/,pics/leaf02a.jpg,pics/dustpan.jpg,pics/pencil01.jpg,pics/kangaroo.jpg,pics/golfball.jpg,pics/lightswitch01.jpg,pics/nutcracker01.jpg,pics/calendar.jpg,pics/hose.jpg,pics/starfish01.jpg,pics/siamesecat.jpg,pics/bowlingpin.jpg,pics/necklace.jpg,blankImage,blankImage,blankImage,blankImage,fan,42,0.1157,,,,,,,,,,,,,,,,,,,,,,,,,,,,,,,,,,,,,,,,0,8,8,41,1,,,,,,,,,,,,,,,,,,,,,,,,,,,,,,,,,,,,,,,,,,,,,,,,,,,,,,,
,,,,,5ce1372c55fe0d001869c8d8,6682b41eeb79ab8215dff63d,6682bab87ce76f3697eee079,35,Male,"Greek,English",2024-07-01_15h20.51.840,ABmemTask3,2023.2.3,Win32,59.88023952,,,,,,,,,,,,,,,,,,,,,,,,,,,,,,,419.8228,420.8214,420.8215,7,421.3214,422.8391,0.004,422.9548,0.1149,0.1165,0.1168,0.1168,0.1166,0.1164,0.1168,0.1171,0.1167,0.1167,0.116,422.9548,424.0548,right,1.0814,,424.055,424.4216,left,0.3489,,12,0,20,424.4217,425.4215,,,,,,1_AB,L5_T1P_T2A,5,1,0,6,11,5,3,14,Kiwi,Did you see the Kiwi,0.12,0,resources/,pics/candleholder01.jpg,pics/kangaroo.jpg,pics/banjo.jpg,pics/binoculars01b.jpg,pics/microscope.jpg,pics/kiwi03.jpg,pics/bowtie.jpg,pics/peanut01.jpg,pics/backpack01a.jpg,pics/zebra.jpg,pics/toiletpaper01a.jpg,pics/hen.jpg,pics/spoon01.jpg,pics/calendar.jpg,blankImage,blankImage,blankImage,kiwi03,59,0.1172,0.1162,,,,,,,,,,,,,,,,,,,,,,,,,,,,,,,,,,,,,,,0,9,9,58,1,,,,,,,,,,,,,,,,,,,,,,,,,,,,,,,,,,,,,,,,,,,,,,,,,,,,,,,
,,,,,5ce1372c55fe0d001869c8d8,6682b41eeb79ab8215dff63d,6682bab87ce76f3697eee079,35,Male,"Greek,English",2024-07-01_15h20.51.840,ABmemTask3,2023.2.3,Win32,59.88023952,,,,,,,,,,,,,,,,,,,,,,,,,,,,,,,425.4239,426.4214,426.4214,7,426.9215,428.3224,0.0039,428.438,0.1148,0.1175,0.116,0.1174,0.1157,0.1169,0.1166,0.1165,0.1182,0.1153,0.1172,428.438,429.4383,right,0.9816,,429.4384,429.9049,right,0.451,,14,0,22,429.905,430.9048,,,,,,1_AB,L5_T1P_T2P,5,1,1,4,9,3,4,13,Forklift,Did you see the Forklift,0.12,0,resources/,pics/dustpan.jpg,pics/table01.jpg,pics/sink.jpg,pics/forklift.jpg,pics/dromedary.jpg,pics/proboscismonkey.jpg,pics/cymbal.jpg,pics/shovel01.jpg,pics/stapler10.jpg,pics/backpack01a.jpg,pics/binder03b.jpg,pics/banjo.jpg,pics/candleholder01.jpg,blankImage,blankImage,blankImage,blankImage,forklift,47,0.1162,,,,,,,,,,,,,,,,,,,,,,,,,,,,,,,,,,,,,,,,0,10,10,46,1,,,,,,,,,,,,,,,,,,,,,,,,,,,,,,,,,,,,,,,,,,,,,,,,,,,,,,,
,,,,,5ce1372c55fe0d001869c8d8,6682b41eeb79ab8215dff63d,6682bab87ce76f3697eee079,35,Male,"Greek,English",2024-07-01_15h20.51.840,ABmemTask3,2023.2.3,Win32,59.88023952,,,,,,,,,,,,,,,,,,,,,,,,,,,,,,,430.9067,431.9047,431.9047,7,432.4048,433.3391,0.0041,433.4547,0.1156,0.116,0.1174,0.1157,0.1169,0.1168,0.1165,0.1167,,,,433.4548,434.7716,left,1.2961,,434.7717,435.7715,right,0.984,,16,0,24,435.7717,436.7714,,,,,,1_AB,L1_T1A_T2P,1,0,1,5,6,4,3,9,Trailer,Did you see the Trailer,0.12,0,resources/,pics/pencil01.jpg,pics/football.jpg,pics/hairdryer02a.jpg,pics/wheel01.jpg,pics/chainsaw.jpg,pics/stapler10.jpg,pics/peanut01.jpg,pics/triangle.jpg,pics/sink.jpg,blankImage,blankImage,blankImage,blankImage,blankImage,blankImage,blankImage,blankImage,boxtrailer,29,,,,,,,,,,,,,,,,,,,,,,,,,,,,,,,,,,,,,,,,,0,11,11,28,1,,,,,,,,,,,,,,,,,,,,,,,,,,,,,,,,,,,,,,,,,,,,,,,,,,,,,,,
,,,,,5ce1372c55fe0d001869c8d8,6682b41eeb79ab8215dff63d,6682bab87ce76f3697eee079,35,Male,"Greek,English",2024-07-01_15h20.51.840,ABmemTask3,2023.2.3,Win32,59.88023952,,,,,,,,,,,,,,,,,,,,,,,,,,,,,,,436.7825,437.7714,437.7714,7,438.2715,439.4393,0.0044,439.5547,0.1149,0.1161,0.1167,0.1171,0.1161,0.1168,0.1168,0.1167,0.1172,0.1166,,439.5548,440.505,right,0.9297,,440.505,440.7715,left,0.2506,,16,0,26,440.7717,441.7714,,,,,,1_AB,L1_T1P_T2P,1,1,1,7,8,6,3,11,bird,Did you see the bird,0.12,0,resources/,pics/sealion.jpg,pics/backpack01a.jpg,pics/hose.jpg,pics/table01.jpg,pics/wheel01.jpg,pics/seaturtle.jpg,pics/americangoldfinch.jpg,pics/stapler08.jpg,pics/siamesecat.jpg,pics/hammerheadshark.jpg,pics/ashtray01.jpg,blankImage,blankImage,blankImage,blankImage,blankImage,blankImage,americangoldfinch,23,,,,,,,,,,,,,,,,,,,,,,,,,,,,,,,,,,,,,,,,,0,12,12,22,1,,,,,,,,,,,,,,,,,,,,,,,,,,,,,,,,,,,,,,,,,,,,,,,,,,,,,,,
,,,,,5ce1372c55fe0d001869c8d8,6682b41eeb79ab8215dff63d,6682bab87ce76f3697eee079,35,Male,"Greek,English",2024-07-01_15h20.51.840,ABmemTask3,2023.2.3,Win32,59.88023952,,,,,,,,,,,,,,,,,,,,,,,,,,,,,,,441.7743,442.7714,442.7715,7,443.2714,444.4412,0.0041,444.5549,0.1152,0.1163,0.117,0.1162,0.117,0.1171,0.116,0.1166,0.1202,0.1154,,444.555,446.0883,right,1.5096,,446.0883,446.4715,right,0.3675,,18,0,28,446.4716,447.4713,,,,,,1_AB,L1_T1P_T2P,1,1,1,7,8,6,3,11,sock,Did you see the sock,0.12,0,resources/,pics/hen.jpg,pics/christmaslights.jpg,pics/salmon.jpg,pics/sealion.jpg,pics/seaturtle.jpg,pics/giraffe.jpg,pics/athleticsock.jpg,pics/stapler01.jpg,pics/shovel01.jpg,pics/leaf02a.jpg,pics/backpack01a.jpg,blankImage,blankImage,blankImage,blankImage,blankImage,blankImage,athleticsock,11,,,,,,,,,,,,,,,,,,,,,,,,,,,,,,,,,,,,,,,,,0,13,13,10,1,,,,,,,,,,,,,,,,,,,,,,,,,,,,,,,,,,,,,,,,,,,,,,,,,,,,,,,
,,,,,5ce1372c55fe0d001869c8d8,6682b41eeb79ab8215dff63d,6682bab87ce76f3697eee079,35,Male,"Greek,English",2024-07-01_15h20.51.840,ABmemTask3,2023.2.3,Win32,59.88023952,,,,,,,,,,,,,,,,,,,,,,,,,,,,,,,447.4729,448.4714,448.4715,7,448.9714,450.1384,0.0038,450.2547,0.1148,0.1176,0.1157,0.1168,0.1164,0.1168,0.1163,0.1165,0.1168,0.1167,,450.2547,451.0048,right,0.7351,,451.005,452.4383,right,1.4175,,20,0,30,452.4384,453.4381,,,,,,1_AB,L1_T1P_T2P,1,1,1,7,8,6,3,11,toothpick,Did you see the toothpick,0.12,0,resources/,pics/candleholder01.jpg,pics/blender.jpg,pics/siamesecat.jpg,pics/peanut01.jpg,pics/spiderweb.jpg,pics/football.jpg,pics/toothpick02.jpg,pics/stapler04b.jpg,pics/seagull.jpg,pics/pictureframe04.jpg,pics/shipinabottle.jpg,blankImage,blankImage,blankImage,blankImage,blankImage,blankImage,toothpick02,17,,,,,,,,,,,,,,,,,,,,,,,,,,,,,,,,,,,,,,,,,0,14,14,16,1,,,,,,,,,,,,,,,,,,,,,,,,,,,,,,,,,,,,,,,,,,,,,,,,,,,,,,,
,,,,,5ce1372c55fe0d001869c8d8,6682b41eeb79ab8215dff63d,6682bab87ce76f3697eee079,35,Male,"Greek,English",2024-07-01_15h20.51.840,ABmemTask3,2023.2.3,Win32,59.88023952,,,,,,,,,,,,,,,,,,,,,,,,,,,,,,,453.4519,454.4548,454.4548,7,454.9547,456.0051,0.0043,456.1214,0.1145,0.1176,0.116,0.1166,0.1166,0.117,0.1162,0.1171,0.1167,,,456.1215,456.8718,right,0.7312,,456.8718,457.1049,left,0.2171,,20,0,32,457.105,458.1048,,,,,,1_AB,L1_T1P_T2P,1,1,1,4,5,3,5,10,flute,Did you see the flute,0.12,0,resources/,pics/peach01.jpg,pics/seaturtle.jpg,pics/dromedary.jpg,pics/recorder01.jpg,pics/stapler08.jpg,pics/giraffe.jpg,pics/blender.jpg,pics/necklace.jpg,pics/sink.jpg,pics/dustpan.jpg,blankImage,blankImage,blankImage,blankImage,blankImage,blankImage,blankImage,recorder01,7,,,,,,,,,,,,,,,,,,,,,,,,,,,,,,,,,,,,,,,,,0,15,15,6,1,,,,,,,,,,,,,,,,,,,,,,,,,,,,,,,,,,,,,,,,,,,,,,,,,,,,,,,
,,,,,5ce1372c55fe0d001869c8d8,6682b41eeb79ab8215dff63d,6682bab87ce76f3697eee079,35,Male,"Greek,English",2024-07-01_15h20.51.840,ABmemTask3,2023.2.3,Win32,59.88023952,,,,,,,,,,,,,,,,,,,,,,,,,,,,,,,458.1065,459.1048,459.1048,7,459.6048,460.7716,0.0043,460.888,0.1147,0.1174,0.116,0.1174,0.1159,0.117,0.1164,0.1169,0.1157,0.1163,,460.8881,461.9881,left,1.086,,461.9882,462.5714,right,0.5726,,22,0,34,462.5715,463.5714,,,,,,1_AB,L1_T1A_T2P,1,0,1,7,8,6,3,11,turkey,Did you see the turkey,0.12,0,resources/,pics/proboscismonkey.jpg,pics/blender.jpg,pics/sealion.jpg,pics/snowshoe.jpg,pics/carrot01.jpg,pics/microscope.jpg,pics/piggybank.jpg,pics/stapler12.jpg,pics/peanut01.jpg,pics/dustpan.jpg,pics/footballhelmet.jpg,blankImage,blankImage,blankImage,blankImage,blankImage,blankImage,turkey,26,,,,,,,,,,,,,,,,,,,,,,,,,,,,,,,,,,,,,,,,,0,16,16,25,1,,,,,,,,,,,,,,,,,,,,,,,,,,,,,,,,,,,,,,,,,,,,,,,,,,,,,,,
,,,,,5ce1372c55fe0d001869c8d8,6682b41eeb79ab8215dff63d,6682bab87ce76f3697eee079,35,Male,"Greek,English",2024-07-01_15h20.51.840,ABmemTask3,2023.2.3,Win32,59.88023952,,,,,,,,,,,,,,,,,,,,,,,,,,,,,,,463.5731,464.5714,464.5715,7,465.0715,466.3559,0.0036,466.4714,0.1163,0.1156,0.1174,0.1163,0.1164,0.1164,0.1173,0.1162,0.1165,0.1168,0.117,466.4715,467.505,right,1.0149,,467.505,468.4549,right,0.9342,,24,0,36,468.4549,469.4547,,,,,,1_AB,L1_T1P_T2P,1,1,1,7,8,6,4,12,hammer,Did you see the hammer,0.12,0,resources/,pics/microscope.jpg,pics/blender.jpg,pics/dustpan.jpg,pics/snowshoe.jpg,pics/mummy.jpg,pics/bowtie.jpg,pics/hammer01.jpg,pics/stapler04b.jpg,pics/seaturtle.jpg,pics/candle01.jpg,pics/necklace.jpg,pics/cannon.jpg,blankImage,blankImage,blankImage,blankImage,blankImage,hammer01,21,,,,,,,,,,,,,,,,,,,,,,,,,,,,,,,,,,,,,,,,,0,17,17,20,1,,,,,,,,,,,,,,,,,,,,,,,,,,,,,,,,,,,,,,,,,,,,,,,,,,,,,,,
,,,,,5ce1372c55fe0d001869c8d8,6682b41eeb79ab8215dff63d,6682bab87ce76f3697eee079,35,Male,"Greek,English",2024-07-01_15h20.51.840,ABmemTask3,2023.2.3,Win32,59.88023952,,,,,,,,,,,,,,,,,,,,,,,,,,,,,,,469.4565,470.4547,470.4548,7,470.9547,471.8886,0.0038,472.0048,0.1153,0.1165,0.1166,0.1171,0.1176,0.1151,0.1177,0.1162,,,,472.0048,472.6716,right,0.6494,,472.6717,472.9217,right,0.2339,,26,0,38,472.9217,473.9213,,,,,,1_AB,L1_T1P_T2P,1,1,1,5,6,4,3,9,Ant,Did you see the Ant,0.12,0,resources/,pics/kangaroo.jpg,pics/giraffe.jpg,pics/footballhelmet.jpg,pics/onion.jpg,pics/ant.jpg,pics/stapler04b.jpg,pics/banjo.jpg,pics/zebra.jpg,pics/dromedary.jpg,blankImage,blankImage,blankImage,blankImage,blankImage,blankImage,blankImage,blankImage,ant,15,,,,,,,,,,,,,,,,,,,,,,,,,,,,,,,,,,,,,,,,,0,18,18,14,1,,,,,,,,,,,,,,,,,,,,,,,,,,,,,,,,,,,,,,,,,,,,,,,,,,,,,,,
,,,,,5ce1372c55fe0d001869c8d8,6682b41eeb79ab8215dff63d,6682bab87ce76f3697eee079,35,Male,"Greek,English",2024-07-01_15h20.51.840,ABmemTask3,2023.2.3,Win32,59.88023952,,,,,,,,,,,,,,,,,,,,,,,,,,,,,,,473.9229,474.9214,474.9214,7,475.4214,476.4724,0.0037,476.588,0.115,0.1169,0.1168,0.1164,0.1165,0.1172,0.1171,0.1162,0.1171,,,476.5881,478.0049,left,1.3972,,478.005,478.1548,right,0.134,,28,0,40,478.1549,479.1549,,,,,,1_AB,L1_T1A_T2P,1,0,1,5,6,4,4,10,button,Did you see the button,0.12,0,resources/,pics/pencil01.jpg,pics/necklace.jpg,pics/sink.jpg,pics/noparkingsign.jpg,pics/banjo.jpg,pics/stapler03b.jpg,pics/candle01.jpg,pics/icecube01.jpg,pics/shovel01.jpg,pics/pencilsharpener02a.jpg,blankImage,blankImage,blankImage,blankImage,blankImage,blankImage,blankImage,button01,25,,,,,,,,,,,,,,,,,,,,,,,,,,,,,,,,,,,,,,,,,0,19,19,24,1,,,,,,,,,,,,,,,,,,,,,,,,,,,,,,,,,,,,,,,,,,,,,,,,,,,,,,,
,,,,,5ce1372c55fe0d001869c8d8,6682b41eeb79ab8215dff63d,6682bab87ce76f3697eee079,35,Male,"Greek,English",2024-07-01_15h20.51.840,ABmemTask3,2023.2.3,Win32,59.88023952,,,,,,,,,,,,,,,,,,,,,,,,,,,,,,,479.1584,480.1547,480.1548,7,480.6548,481.822,0.0042,481.9381,0.1148,0.1176,0.116,0.1171,0.1165,0.1161,0.1165,0.1171,0.1159,0.1179,,481.9383,485.2382,left,3.282,,485.2383,485.5217,right,0.2675,,30,0,42,485.5217,486.5215,,,,,,1_AB,L1_T1A_T2P,1,0,1,5,6,4,5,11,Recorder,Did you see the Recorder,0.12,0,resources/,pics/bowtie.jpg,pics/nutcracker01.jpg,pics/hairdryer02a.jpg,pics/shovel01.jpg,pics/onion.jpg,pics/stapler13.jpg,pics/safetypin.jpg,pics/spiderweb.jpg,pics/seagull.jpg,pics/dustpan.jpg,pics/icecube01.jpg,blankImage,blankImage,blankImage,blankImage,blankImage,blankImage,recorder04,28,,,,,,,,,,,,,,,,,,,,,,,,,,,,,,,,,,,,,,,,,0,20,20,27,1,,,,,,,,,,,,,,,,,,,,,,,,,,,,,,,,,,,,,,,,,,,,,,,,,,,,,,,
,,,,,5ce1372c55fe0d001869c8d8,6682b41eeb79ab8215dff63d,6682bab87ce76f3697eee079,35,Male,"Greek,English",2024-07-01_15h20.51.840,ABmemTask3,2023.2.3,Win32,59.88023952,,,,,,,,,,,,,,,,,,,,,,,,,,,,,,,486.5326,487.5215,487.5215,7,488.0214,489.5385,0.0045,489.6547,0.1143,0.1169,0.1172,0.1163,0.1168,0.1163,0.1167,0.1166,0.1168,0.1164,0.1169,489.6548,490.2383,right,0.5632,,490.2384,490.5883,right,0.3319,,32,0,44,490.5883,491.588,,,,,,1_AB,L5_T1P_T2P,5,1,1,4,9,3,5,14,pliers,Did you see the pliers,0.12,0,resources/,pics/calendar.jpg,pics/footballhelmet.jpg,pics/seaturtle.jpg,pics/pliers02b.jpg,pics/wheel01.jpg,pics/cannon.jpg,pics/proboscismonkey.jpg,pics/shovel01.jpg,pics/stapler06.jpg,pics/football.jpg,pics/hose.jpg,pics/dustpan.jpg,pics/spiderweb.jpg,pics/golfball.jpg,blankImage,blankImage,blankImage,pliers02b,48,0.1163,0.1164,,,,,,,,,,,,,,,,,,,,,,,,,,,,,,,,,,,,,,,0,21,21,47,1,,,,,,,,,,,,,,,,,,,,,,,,,,,,,,,,,,,,,,,,,,,,,,,,,,,,,,,
,,,,,5ce1372c55fe0d001869c8d8,6682b41eeb79ab8215dff63d,6682bab87ce76f3697eee079,35,Male,"Greek,English",2024-07-01_15h20.51.840,ABmemTask3,2023.2.3,Win32,59.88023952,,,,,,,,,,,,,,,,,,,,,,,,,,,,,,,491.5897,492.588,492.5881,7,493.0881,494.255,0.0034,494.3714,0.1164,0.1163,0.1162,0.1168,0.1166,0.1171,0.1163,0.117,0.1159,0.1168,,494.3715,495.0383,right,0.646,,495.0383,495.5215,right,0.4678,,30,0,46,495.5216,496.5214,,,,,,1_AB,L1_T1P_T2A,1,1,0,7,8,6,3,11,eggplant,Did you see the eggplant,0.12,0,resources/,pics/salmon.jpg,pics/fanblades.jpg,pics/hammerheadshark.jpg,pics/wheel01.jpg,pics/snowshoe.jpg,pics/birdhouse.jpg,pics/eggplant.jpg,pics/spiderweb.jpg,pics/zebra.jpg,pics/pencilsharpener02a.jpg,pics/backpack01a.jpg,blankImage,blankImage,blankImage,blankImage,blankImage,blankImage,eggplant,32,,,,,,,,,,,,,,,,,,,,,,,,,,,,,,,,,,,,,,,,,0,22,22,31,1,,,,,,,,,,,,,,,,,,,,,,,,,,,,,,,,,,,,,,,,,,,,,,,,,,,,,,,
,,,,,5ce1372c55fe0d001869c8d8,6682b41eeb79ab8215dff63d,6682bab87ce76f3697eee079,35,Male,"Greek,English",2024-07-01_15h20.51.840,ABmemTask3,2023.2.3,Win32,59.88023952,,,,,,,,,,,,,,,,,,,,,,,,,,,,,,,496.5228,497.5214,497.5215,7,498.0214,498.9553,0.0043,499.0714,0.1149,0.118,0.1145,0.1173,0.1169,0.1163,0.1172,0.1162,,,,499.0715,499.9548,right,0.865,,499.955,500.5216,right,0.5512,,32,0,48,500.5217,501.5214,,,,,,1_AB,L1_T1P_T2P,1,1,1,5,6,4,3,9,cabbage,Did you see the cabbage,0.12,0,resources/,pics/match.jpg,pics/icecube01.jpg,pics/noparkingsign.jpg,pics/christmaslights.jpg,pics/cabbage.jpg,pics/stapler03a.jpg,pics/carrot01.jpg,pics/dustpan.jpg,pics/cannon.jpg,blankImage,blankImage,blankImage,blankImage,blankImage,blankImage,blankImage,blankImage,cabbage,14,,,,,,,,,,,,,,,,,,,,,,,,,,,,,,,,,,,,,,,,,0,23,23,13,1,,,,,,,,,,,,,,,,,,,,,,,,,,,,,,,,,,,,,,,,,,,,,,,,,,,,,,,
,,,,,5ce1372c55fe0d001869c8d8,6682b41eeb79ab8215dff63d,6682bab87ce76f3697eee079,35,Male,"Greek,English",2024-07-01_15h20.51.840,ABmemTask3,2023.2.3,Win32,59.88023952,,,,,,,,,,,,,,,,,,,,,,,,,,,,,,,501.523,502.5215,502.5215,7,503.0214,504.422,0.0038,504.538,0.1163,0.1154,0.1167,0.1172,0.1163,0.1176,0.116,0.1166,0.1164,0.1167,0.1165,504.5381,505.6049,left,1.0479,,505.6049,505.9215,right,0.301,,32,0,50,505.9217,506.9214,,,,,,1_AB,L1_T1P_T2P,1,1,1,7,8,6,5,13,Totem Pole,Did you see the Totem Pole,0.12,0,resources/,pics/laptop01a.jpg,pics/carrot01.jpg,pics/wheel01.jpg,pics/icecube01.jpg,pics/ashtray01.jpg,pics/lock03a.jpg,pics/totempole.jpg,pics/stapler08.jpg,pics/golfball.jpg,pics/pencil01.jpg,pics/banjo.jpg,pics/sandbarshark.jpg,pics/shipinabottle.jpg,blankImage,blankImage,blankImage,blankImage,totempole,22,0.1165,,,,,,,,,,,,,,,,,,,,,,,,,,,,,,,,,,,,,,,,0,24,24,21,1,,,,,,,,,,,,,,,,,,,,,,,,,,,,,,,,,,,,,,,,,,,,,,,,,,,,,,,
,,,,,5ce1372c55fe0d001869c8d8,6682b41eeb79ab8215dff63d,6682bab87ce76f3697eee079,35,Male,"Greek,English",2024-07-01_15h20.51.840,ABmemTask3,2023.2.3,Win32,59.88023952,,,,,,,,,,,,,,,,,,,,,,,,,,,,,,,506.9235,507.9216,507.9218,7,508.4213,509.2385,0.0045,509.3547,0.1144,0.1175,0.1181,0.1157,0.1162,0.1158,0.1165,,,,,509.3548,511.9049,left,2.5303,,511.905,512.7883,right,0.868,,32,0,52,512.7884,513.7883,,,,,,1_AB,L1_T1P_T2P,1,1,1,4,5,3,3,8,Recycling bin,Did you see the Recycling bin,0.12,0,resources/,pics/microscope.jpg,pics/dustpan.jpg,pics/seagull.jpg,pics/recyclingbin.jpg,pics/stapler06.jpg,pics/bowtie.jpg,pics/dromedary.jpg,pics/salmon.jpg,blankImage,blankImage,blankImage,blankImage,blankImage,blankImage,blankImage,blankImage,blankImage,recyclingbin,16,,,,,,,,,,,,,,,,,,,,,,,,,,,,,,,,,,,,,,,,,0,25,25,15,1,,,,,,,,,,,,,,,,,,,,,,,,,,,,,,,,,,,,,,,,,,,,,,,,,,,,,,,
,,,,,5ce1372c55fe0d001869c8d8,6682b41eeb79ab8215dff63d,6682bab87ce76f3697eee079,35,Male,"Greek,English",2024-07-01_15h20.51.840,ABmemTask3,2023.2.3,Win32,59.88023952,,,,,,,,,,,,,,,,,,,,,,,,,,,,,,,513.8043,514.8048,514.8049,7,515.3048,516.5885,0.0042,516.7048,0.115,0.1161,0.1172,0.1162,0.1167,0.1166,0.1166,0.117,0.1163,0.1166,0.1165,516.7049,517.3383,right,0.6149,,517.3384,517.5548,right,0.2008,,34,0,54,517.5548,518.5548,,,,,,1_AB,L1_T1P_T2P,1,1,1,6,7,5,5,12,Bear,Did you see the Bear,0.12,0,resources/,pics/necklace.jpg,pics/hen.jpg,pics/dromedary.jpg,pics/piggybank.jpg,pics/sandbarshark.jpg,pics/grizzly.jpg,pics/stapler12.jpg,pics/bowlingpin.jpg,pics/christmaslights.jpg,pics/icecube01.jpg,pics/match.jpg,pics/lock03a.jpg,blankImage,blankImage,blankImage,blankImage,blankImage,grizzly,18,,,,,,,,,,,,,,,,,,,,,,,,,,,,,,,,,,,,,,,,,0,26,26,17,1,,,,,,,,,,,,,,,,,,,,,,,,,,,,,,,,,,,,,,,,,,,,,,,,,,,,,,,
,,,,,5ce1372c55fe0d001869c8d8,6682b41eeb79ab8215dff63d,6682bab87ce76f3697eee079,35,Male,"Greek,English",2024-07-01_15h20.51.840,ABmemTask3,2023.2.3,Win32,59.88023952,,,,,,,,,,,,,,,,,,,,,,,,,,,,,,,518.5565,519.5548,519.5548,7,520.0547,521.5721,0.0037,521.6882,0.1152,0.1173,0.116,0.1172,0.1165,0.1161,0.1185,0.1151,0.1162,0.1166,0.1175,521.6882,522.3715,right,0.6699,,522.3717,523.6716,right,1.2843,,32,0,56,523.6717,524.6714,,,,,,1_AB,L5_T1P_T2A,5,1,0,4,9,3,5,14,Frisbee,Did you see the Frisbee,0.12,0,resources/,pics/giraffe.jpg,pics/christmaslights.jpg,pics/bowtie.jpg,pics/frisbee.jpg,pics/banjo.jpg,pics/calendar.jpg,pics/butterfly.jpg,pics/onion.jpg,pics/starfish01.jpg,pics/footballhelmet.jpg,pics/blender.jpg,pics/candleholder01.jpg,pics/hairdryer02a.jpg,pics/dromedary.jpg,blankImage,blankImage,blankImage,frisbee,58,0.1159,0.1167,,,,,,,,,,,,,,,,,,,,,,,,,,,,,,,,,,,,,,,0,27,27,57,1,,,,,,,,,,,,,,,,,,,,,,,,,,,,,,,,,,,,,,,,,,,,,,,,,,,,,,,
,,,,,5ce1372c55fe0d001869c8d8,6682b41eeb79ab8215dff63d,6682bab87ce76f3697eee079,35,Male,"Greek,English",2024-07-01_15h20.51.840,ABmemTask3,2023.2.3,Win32,59.88023952,,,,,,,,,,,,,,,,,,,,,,,,,,,,,,,524.6853,525.6881,525.6882,7,526.1882,527.9385,0.0065,528.0548,0.1137,0.1146,0.1189,0.1157,0.1159,0.1171,0.1162,0.1168,0.1166,0.1171,0.1166,528.0548,528.9049,right,0.8317,,528.9051,529.2383,left,0.3172,,34,0,58,529.2384,530.2381,,,,,,1_AB,L5_T1P_T2A,5,1,0,6,11,5,5,16,belt,Did you see the belt,0.12,0,resources/,pics/banjo.jpg,pics/birdhouse.jpg,pics/spoon01.jpg,pics/table01.jpg,pics/candle01.jpg,pics/belt02a.jpg,pics/peach01.jpg,pics/chainsaw.jpg,pics/toiletpaper01a.jpg,pics/proboscismonkey.jpg,pics/cymbal.jpg,pics/binoculars01b.jpg,pics/cannon.jpg,pics/noparkingsign.jpg,pics/sailboat.jpg,pics/carrot01.jpg,blankImage,belt02a,61,0.1163,0.1169,0.1167,,,,,,,,,,,,,,,,,,,,,,,,,,,,,,,,,,,,,,0,28,28,60,1,0.1165,,,,,,,,,,,,,,,,,,,,,,,,,,,,,,,,,,,,,,,,,,,,,,,,,,,,,,
,,,,,5ce1372c55fe0d001869c8d8,6682b41eeb79ab8215dff63d,6682bab87ce76f3697eee079,35,Male,"Greek,English",2024-07-01_15h20.51.840,ABmemTask3,2023.2.3,Win32,59.88023952,,,,,,,,,,,,,,,,,,,,,,,,,,,,,,,530.2492,531.2381,531.2381,7,531.7381,532.6753,0.0038,532.7881,0.1152,0.116,0.1173,0.1167,0.1168,0.1177,0.1157,0.1185,,,,532.7882,534.2381,left,1.434,,534.2382,534.5883,right,0.3387,,34,0,60,534.5884,535.5881,,,,,,1_AB,L1_T1P_T2P,1,1,1,4,5,3,4,9,antenna,Did you see the antenna,0.12,0,resources/,pics/microscope.jpg,pics/spoon01.jpg,pics/dromedary.jpg,pics/antenna.jpg,pics/stapler03.jpg,pics/hen.jpg,pics/leaf02a.jpg,pics/candle01.jpg,pics/sealion.jpg,blankImage,blankImage,blankImage,blankImage,blankImage,blankImage,blankImage,blankImage,antenna,9,,,,,,,,,,,,,,,,,,,,,,,,,,,,,,,,,,,,,,,,,0,29,29,8,1,,,,,,,,,,,,,,,,,,,,,,,,,,,,,,,,,,,,,,,,,,,,,,,,,,,,,,,
,,,,,5ce1372c55fe0d001869c8d8,6682b41eeb79ab8215dff63d,6682bab87ce76f3697eee079,35,Male,"Greek,English",2024-07-01_15h20.51.840,ABmemTask3,2023.2.3,Win32,59.88023952,,,,,,,,,,,,,,,,,,,,,,,,,,,,,,,535.5895,536.5881,536.5882,7,537.0881,538.3726,0.0039,538.488,0.1155,0.1167,0.116,0.1168,0.1174,0.1158,0.1166,0.1166,0.1166,0.1167,0.1175,538.4881,539.4715,left,0.9655,,539.4716,539.6549,right,0.1675,,34,0,62,539.655,540.6548,,,,,,1_AB,L1_T1P_T2P,1,1,1,7,8,6,4,12,Turnstile,Did you see the Turnstile,0.12,0,resources/,pics/golfball.jpg,pics/hose.jpg,pics/siamesecat.jpg,pics/binoculars01b.jpg,pics/hen.jpg,pics/candleholder01.jpg,pics/turnstile.jpg,pics/stapler03a.jpg,pics/giraffe.jpg,pics/pictureframe04.jpg,pics/sandbarshark.jpg,pics/spoon01.jpg,blankImage,blankImage,blankImage,blankImage,blankImage,turnstile,13,,,,,,,,,,,,,,,,,,,,,,,,,,,,,,,,,,,,,,,,,0,30,30,12,1,,,,,,,,,,,,,,,,,,,,,,,,,,,,,,,,,,,,,,,,,,,,,,,,,,,,,,,
,,,,,5ce1372c55fe0d001869c8d8,6682b41eeb79ab8215dff63d,6682bab87ce76f3697eee079,35,Male,"Greek,English",2024-07-01_15h20.51.840,ABmemTask3,2023.2.3,Win32,59.88023952,,,,,,,,,,,,,,,,,,,,,,,,,,,,,,,540.6564,541.6547,541.6548,7,542.1548,543.3221,0.0039,543.438,0.1149,0.1168,0.1167,0.1169,0.1172,0.1157,0.1173,0.1162,0.1175,0.1156,,543.4381,544.1549,right,0.698,,544.155,544.5883,left,0.4154,,36,0,64,544.5883,545.5881,,,,,,1_AB,L1_T1P_T2A,1,1,0,7,8,6,3,11,Spear,Did you see the Spear,0.12,0,resources/,pics/butterfly.jpg,pics/banjo.jpg,pics/chainsaw.jpg,pics/christmaslights.jpg,pics/dustpan.jpg,pics/shovel01.jpg,pics/spear02.jpg,pics/table01.jpg,pics/starfish01.jpg,pics/bowlingpin.jpg,pics/carrot01.jpg,blankImage,blankImage,blankImage,blankImage,blankImage,blankImage,spear02,39,,,,,,,,,,,,,,,,,,,,,,,,,,,,,,,,,,,,,,,,,0,31,31,38,1,,,,,,,,,,,,,,,,,,,,,,,,,,,,,,,,,,,,,,,,,,,,,,,,,,,,,,,
,,,,,5ce1372c55fe0d001869c8d8,6682b41eeb79ab8215dff63d,6682bab87ce76f3697eee079,35,Male,"Greek,English",2024-07-01_15h20.51.840,ABmemTask3,2023.2.3,Win32,59.88023952,,,,,,,,,,,,,,,,,,,,,,,,,,,,,,,545.5894,546.5881,546.5882,7,547.0881,548.2558,0.0038,548.3714,0.1146,0.117,0.1168,0.1164,0.1161,0.1176,0.1168,0.116,0.1176,0.1162,,548.3715,549.2883,right,0.8984,,549.2884,549.5216,left,0.2173,,38,0,66,549.5217,550.5215,,,,,,1_AB,L1_T1P_T2A,1,1,0,6,7,5,4,11,lamp,Did you see the lamp,0.12,0,resources/,pics/chainsaw.jpg,pics/fanblades.jpg,pics/salmon.jpg,pics/proboscismonkey.jpg,pics/boot02b.jpg,pics/lamp04a.jpg,pics/blender.jpg,pics/sink.jpg,pics/pencil01.jpg,pics/floortile02.jpg,pics/shovel01.jpg,blankImage,blankImage,blankImage,blankImage,blankImage,blankImage,lamp04a,37,,,,,,,,,,,,,,,,,,,,,,,,,,,,,,,,,,,,,,,,,0,32,32,36,1,,,,,,,,,,,,,,,,,,,,,,,,,,,,,,,,,,,,,,,,,,,,,,,,,,,,,,,
,,,,,5ce1372c55fe0d001869c8d8,6682b41eeb79ab8215dff63d,6682bab87ce76f3697eee079,35,Male,"Greek,English",2024-07-01_15h20.51.840,ABmemTask3,2023.2.3,Win32,59.88023952,,,,,,,,,,,,,,,,,,,,,,,,,,,,,,,550.5233,551.5214,551.5215,7,552.0214,553.0725,0.0038,553.1881,0.1151,0.1168,0.1169,0.1165,0.1165,0.1167,0.1171,0.1165,0.1166,,,553.1882,554.0217,left,0.818,,554.0218,554.4383,right,0.4007,,34,0,68,554.4385,555.438,,,,,,1_AB,L1_T1P_T2A,1,1,0,6,7,5,3,10,Electric toothbrush,Did you see the Electric toothbrush,0.12,0,resources/,pics/football.jpg,pics/sailboat.jpg,pics/cymbal.jpg,pics/hen.jpg,pics/pencil01.jpg,pics/electrictoothbrush01c.jpg,pics/bowlingpin.jpg,pics/wheel01.jpg,pics/birdhouse.jpg,pics/leaf02a.jpg,blankImage,blankImage,blankImage,blankImage,blankImage,blankImage,blankImage,electrictoothbrush01c,34,,,,,,,,,,,,,,,,,,,,,,,,,,,,,,,,,,,,,,,,,0,33,33,33,1,,,,,,,,,,,,,,,,,,,,,,,,,,,,,,,,,,,,,,,,,,,,,,,,,,,,,,,
,,,,,5ce1372c55fe0d001869c8d8,6682b41eeb79ab8215dff63d,6682bab87ce76f3697eee079,35,Male,"Greek,English",2024-07-01_15h20.51.840,ABmemTask3,2023.2.3,Win32,59.88023952,,,,,,,,,,,,,,,,,,,,,,,,,,,,,,,555.4396,556.4381,556.4382,7,556.9381,558.1052,0.0043,558.2214,0.1145,0.1172,0.1163,0.1171,0.1165,0.1161,0.1166,0.1167,0.1165,0.1169,,558.2215,558.9717,right,0.7368,,558.9717,561.3717,left,2.3839,,36,0,70,561.3717,562.3714,,,,,,1_AB,L1_T1P_T2A,1,1,0,7,8,6,3,11,garlic,Did you see the garlic,0.12,0,resources/,pics/zebra.jpg,pics/banjo.jpg,pics/pencilsharpener02a.jpg,pics/football.jpg,pics/candle01.jpg,pics/footballhelmet.jpg,pics/garlic01a.jpg,pics/birdhouse.jpg,pics/peach01.jpg,pics/pictureframe04.jpg,pics/binder03b.jpg,blankImage,blankImage,blankImage,blankImage,blankImage,blankImage,garlic01a,33,,,,,,,,,,,,,,,,,,,,,,,,,,,,,,,,,,,,,,,,,0,34,34,32,1,,,,,,,,,,,,,,,,,,,,,,,,,,,,,,,,,,,,,,,,,,,,,,,,,,,,,,,
,,,,,5ce1372c55fe0d001869c8d8,6682b41eeb79ab8215dff63d,6682bab87ce76f3697eee079,35,Male,"Greek,English",2024-07-01_15h20.51.840,ABmemTask3,2023.2.3,Win32,59.88023952,,,,,,,,,,,,,,,,,,,,,,,,,,,,,,,562.3826,563.3714,563.3715,7,563.8714,564.8056,0.0037,564.9214,0.1152,0.1173,0.1162,0.1162,0.117,0.1166,0.1174,0.1157,,,,564.9215,565.6723,right,0.7335,,565.6726,566.1715,right,0.487,,38,0,72,566.1715,567.1714,,,,,,1_AB,L1_T1P_T2P,1,1,1,5,6,4,3,9,paint brush,Did you see the paint brush,0.12,0,resources/,pics/nutcracker01.jpg,pics/piggybank.jpg,pics/spiderweb.jpg,pics/table01.jpg,pics/paintbrush01.jpg,pics/stapler09.jpg,pics/hose.jpg,pics/cannon.jpg,pics/mummy.jpg,blankImage,blankImage,blankImage,blankImage,blankImage,blankImage,blankImage,blankImage,paintbrush01,20,,,,,,,,,,,,,,,,,,,,,,,,,,,,,,,,,,,,,,,,,0,35,35,19,1,,,,,,,,,,,,,,,,,,,,,,,,,,,,,,,,,,,,,,,,,,,,,,,,,,,,,,,
,,,,,5ce1372c55fe0d001869c8d8,6682b41eeb79ab8215dff63d,6682bab87ce76f3697eee079,35,Male,"Greek,English",2024-07-01_15h20.51.840,ABmemTask3,2023.2.3,Win32,59.88023952,,,,,,,,,,,,,,,,,,,,,,,,,,,,,,,567.1719,568.1715,568.1715,7,568.6714,569.9562,0.004,570.0714,0.1147,0.1173,0.1163,0.1168,0.1164,0.1167,0.1168,0.1168,0.1172,0.1163,0.1172,570.0715,570.6715,right,0.5827,,570.6718,570.9216,right,0.2339,,40,0,74,570.9217,571.9214,,,,,,1_AB,L1_T1P_T2P,1,1,1,6,7,5,5,12,jeep,Did you see the jeep,0.12,0,resources/,pics/sandbarshark.jpg,pics/laptop01a.jpg,pics/peach01.jpg,pics/binoculars01b.jpg,pics/giraffe.jpg,pics/jeep.jpg,pics/stapler03b.jpg,pics/fanblades.jpg,pics/cannon.jpg,pics/starfish01.jpg,pics/piggybank.jpg,pics/noparkingsign.jpg,blankImage,blankImage,blankImage,blankImage,blankImage,jeep,2,,,,,,,,,,,,,,,,,,,,,,,,,,,,,,,,,,,,,,,,,0,36,36,1,1,,,,,,,,,,,,,,,,,,,,,,,,,,,,,,,,,,,,,,,,,,,,,,,,,,,,,,,
,,,,,5ce1372c55fe0d001869c8d8,6682b41eeb79ab8215dff63d,6682bab87ce76f3697eee079,35,Male,"Greek,English",2024-07-01_15h20.51.840,ABmemTask3,2023.2.3,Win32,59.88023952,,,,,,,,,,,,,,,,,,,,,,,,,,,,,,,571.9228,572.9214,572.9215,7,573.4214,575.0551,0.0037,575.1714,0.115,0.117,0.1178,0.1152,0.1172,0.1161,0.1169,0.1164,0.1173,0.1163,0.1167,575.1715,576.4716,left,1.2805,,576.4717,576.6549,right,0.1694,,42,0,76,576.655,577.6547,,,,,,1_AB,L5_T1A_T2P,5,0,1,7,12,6,3,15,scissors,Did you see the scissors,0.12,0,resources/,pics/cannon.jpg,pics/mummy.jpg,pics/shovel01.jpg,pics/christmaslights.jpg,pics/snowshoe.jpg,pics/candle01.jpg,pics/bowtie.jpg,pics/giraffe.jpg,pics/carrot01.jpg,pics/spoon01.jpg,pics/seaturtle.jpg,pics/stapler10.jpg,pics/footballhelmet.jpg,pics/onion.jpg,pics/wheel01.jpg,blankImage,blankImage,scissors01,57,0.1166,0.1166,0.1167,,,,,,,,,,,,,,,,,,,,,,,,,,,,,,,,,,,,,,0,37,37,56,1,,,,,,,,,,,,,,,,,,,,,,,,,,,,,,,,,,,,,,,,,,,,,,,,,,,,,,,
,,,,,5ce1372c55fe0d001869c8d8,6682b41eeb79ab8215dff63d,6682bab87ce76f3697eee079,35,Male,"Greek,English",2024-07-01_15h20.51.840,ABmemTask3,2023.2.3,Win32,59.88023952,,,,,,,,,,,,,,,,,,,,,,,,,,,,,,,577.6561,578.6547,578.6547,7,579.1547,580.0887,0.0036,580.2048,0.115,0.1176,0.1159,0.1172,0.1173,0.1156,0.1174,0.1157,,,,580.2048,583.1883,right,2.9648,,583.1884,583.805,left,0.601,,42,0,78,583.8051,584.8047,,,,,,1_AB,L1_T1P_T2P,1,1,1,4,5,3,4,9,Chefs hat,Did you see the Chefs hat,0.12,0,resources/,pics/sewingmachine01a.jpg,pics/icecube01.jpg,pics/fanblades.jpg,pics/chefshat.jpg,pics/stapler06.jpg,pics/ashtray01.jpg,pics/blender.jpg,pics/sandbarshark.jpg,pics/lock03a.jpg,blankImage,blankImage,blankImage,blankImage,blankImage,blankImage,blankImage,blankImage,chefshat,12,,,,,,,,,,,,,,,,,,,,,,,,,,,,,,,,,,,,,,,,,0,38,38,11,1,,,,,,,,,,,,,,,,,,,,,,,,,,,,,,,,,,,,,,,,,,,,,,,,,,,,,,,
,,,,,5ce1372c55fe0d001869c8d8,6682b41eeb79ab8215dff63d,6682bab87ce76f3697eee079,35,Male,"Greek,English",2024-07-01_15h20.51.840,ABmemTask3,2023.2.3,Win32,59.88023952,,,,,,,,,,,,,,,,,,,,,,,,,,,,,,,584.8158,585.8048,585.8048,7,586.3048,587.4726,0.0036,587.588,0.1154,0.1165,0.1168,0.1169,0.1169,0.1162,0.1172,0.1162,0.1175,0.1168,,587.5882,588.4382,left,0.8275,,588.4383,589.5051,left,1.051,,44,0,80,589.5051,590.5047,,,,,,1_AB,L1_T1A_T2A,1,0,0,7,8,6,3,11,Poker chips,Did you see the Poker chips,0.12,0,resources/,pics/candle01.jpg,pics/proboscismonkey.jpg,pics/fanblades.jpg,pics/dromedary.jpg,pics/aquarium.jpg,pics/salmon.jpg,pics/hose.jpg,pics/kangaroo.jpg,pics/noparkingsign.jpg,pics/carrot01.jpg,pics/leaf02a.jpg,blankImage,blankImage,blankImage,blankImage,blankImage,blankImage,pokerchips,41,,,,,,,,,,,,,,,,,,,,,,,,,,,,,,,,,,,,,,,,,0,39,39,40,1,,,,,,,,,,,,,,,,,,,,,,,,,,,,,,,,,,,,,,,,,,,,,,,,,,,,,,,
,,,,,5ce1372c55fe0d001869c8d8,6682b41eeb79ab8215dff63d,6682bab87ce76f3697eee079,35,Male,"Greek,English",2024-07-01_15h20.51.840,ABmemTask3,2023.2.3,Win32,59.88023952,,,,,,,,,,,,,,,,,,,,,,,,,,,,,,,590.5162,591.5048,591.5049,7,592.0048,593.522,0.0038,593.6381,0.115,0.1171,0.1163,0.1165,0.1174,0.1161,0.1168,0.1173,0.1159,0.117,0.1168,593.6382,594.605,left,0.948,,594.6051,594.9383,right,0.3171,,46,0,82,594.9383,595.9381,,,,,,1_AB,L5_T1A_T2P,5,0,1,4,9,3,5,14,lemon,Did you see the lemon,0.12,0,resources/,pics/seaturtle.jpg,pics/lightswitch01.jpg,pics/candle01.jpg,pics/cannon.jpg,pics/seagull.jpg,pics/spoon01.jpg,pics/spiderweb.jpg,pics/sewingmachine01a.jpg,pics/stapler05.jpg,pics/binoculars01b.jpg,pics/zebra.jpg,pics/sealion.jpg,pics/shovel01.jpg,pics/wheel01.jpg,blankImage,blankImage,blankImage,lemon02,56,0.1167,0.116,,,,,,,,,,,,,,,,,,,,,,,,,,,,,,,,,,,,,,,0,40,40,55,1,,,,,,,,,,,,,,,,,,,,,,,,,,,,,,,,,,,,,,,,,,,,,,,,,,,,,,,
,,,,,5ce1372c55fe0d001869c8d8,6682b41eeb79ab8215dff63d,6682bab87ce76f3697eee079,35,Male,"Greek,English",2024-07-01_15h20.51.840,ABmemTask3,2023.2.3,Win32,59.88023952,,,,,,,,,,,,,,,,,,,,,,,,,,,,,,,595.94,596.9381,596.9382,7,597.4382,598.8392,0.0041,598.9547,0.1149,0.1171,0.1168,0.1158,0.1169,0.1167,0.1165,0.1169,0.1164,0.116,0.1176,598.9548,600.005,left,1.0314,,600.0051,600.3881,right,0.3671,,48,0,84,600.3884,601.3881,,,,,,1_AB,L1_T1A_T2P,1,0,1,7,8,6,5,13,statue,Did you see the statue,0.12,0,resources/,pics/giraffe.jpg,pics/seaturtle.jpg,pics/peach01.jpg,pics/boot02b.jpg,pics/backpack01a.jpg,pics/sandbarshark.jpg,pics/microscope.jpg,pics/stapler07.jpg,pics/snowshoe.jpg,pics/laptop01a.jpg,pics/necklace.jpg,pics/zebra.jpg,pics/carrot01.jpg,blankImage,blankImage,blankImage,blankImage,statue,27,0.1162,,,,,,,,,,,,,,,,,,,,,,,,,,,,,,,,,,,,,,,,0,41,41,26,1,,,,,,,,,,,,,,,,,,,,,,,,,,,,,,,,,,,,,,,,,,,,,,,,,,,,,,,
,,,,,5ce1372c55fe0d001869c8d8,6682b41eeb79ab8215dff63d,6682bab87ce76f3697eee079,35,Male,"Greek,English",2024-07-01_15h20.51.840,ABmemTask3,2023.2.3,Win32,59.88023952,,,,,,,,,,,,,,,,,,,,,,,,,,,,,,,601.3907,602.3881,602.3882,7,602.8881,604.0554,0.0039,604.1714,0.1156,0.1165,0.1168,0.1168,0.1162,0.1164,0.1169,0.1165,0.1167,0.1173,,604.1715,605.5881,right,1.3983,,605.5883,605.9549,right,0.3509,,50,0,86,605.955,606.9547,,,,,,1_AB,L1_T1P_T2P,1,1,1,7,8,6,3,11,medal,Did you see the medal,0.12,0,resources/,pics/hen.jpg,pics/starfish01.jpg,pics/nutcracker01.jpg,pics/ball02.jpg,pics/fanblades.jpg,pics/christmaslights.jpg,pics/medal02b.jpg,pics/stapler09.jpg,pics/carrot01.jpg,pics/hammerheadshark.jpg,pics/sailboat.jpg,blankImage,blankImage,blankImage,blankImage,blankImage,blankImage,medal02b,19,,,,,,,,,,,,,,,,,,,,,,,,,,,,,,,,,,,,,,,,,0,42,42,18,1,,,,,,,,,,,,,,,,,,,,,,,,,,,,,,,,,,,,,,,,,,,,,,,,,,,,,,,
,,,,,5ce1372c55fe0d001869c8d8,6682b41eeb79ab8215dff63d,6682bab87ce76f3697eee079,35,Male,"Greek,English",2024-07-01_15h20.51.840,ABmemTask3,2023.2.3,Win32,59.88023952,,,,,,,,,,,,,,,,,,,,,,,,,,,,,,,606.9657,607.9548,607.9548,7,608.4548,610.0885,0.004,610.2048,0.1151,0.1168,0.1164,0.1164,0.1176,0.1156,0.1176,0.1166,0.1161,0.1163,0.1168,610.2048,611.1715,left,0.9537,,611.1715,611.4883,right,0.3015,,52,0,88,611.4884,612.4881,,,,,,1_AB,L5_T1A_T2P,5,0,1,5,10,4,5,15,scorpion,Did you see the scorpion,0.12,0,resources/,pics/pictureframe04.jpg,pics/binder03b.jpg,pics/pencil01.jpg,pics/leaf02a.jpg,pics/icecube01.jpg,pics/dromedary.jpg,pics/toiletpaper01a.jpg,pics/peanut01.jpg,pics/golfball.jpg,pics/stapler03.jpg,pics/carrot01.jpg,pics/peach01.jpg,pics/sealion.jpg,pics/football.jpg,pics/zebra.jpg,blankImage,blankImage,scorpion,54,0.1163,0.1167,0.1166,,,,,,,,,,,,,,,,,,,,,,,,,,,,,,,,,,,,,,0,43,43,53,1,,,,,,,,,,,,,,,,,,,,,,,,,,,,,,,,,,,,,,,,,,,,,,,,,,,,,,,
,,,,,5ce1372c55fe0d001869c8d8,6682b41eeb79ab8215dff63d,6682bab87ce76f3697eee079,35,Male,"Greek,English",2024-07-01_15h20.51.840,ABmemTask3,2023.2.3,Win32,59.88023952,,,,,,,,,,,,,,,,,,,,,,,,,,,,,,,612.4996,613.4881,613.4882,7,613.9881,615.5057,0.004,615.6214,0.1151,0.1169,0.1162,0.1172,0.1166,0.1168,0.1163,0.1159,0.1175,0.1165,0.1166,615.6215,616.2884,right,0.6485,,616.2884,616.4715,right,0.1673,,54,0,90,616.4716,617.4715,,,,,,1_AB,L5_T1P_T2P,5,1,1,4,9,3,5,14,asparagus,Did you see the asparagus,0.12,0,resources/,pics/siamesecat.jpg,pics/starfish01.jpg,pics/aquarium.jpg,pics/asparagus.jpg,pics/salmon.jpg,pics/binoculars01b.jpg,pics/ball02.jpg,pics/calendar.jpg,pics/stapler10.jpg,pics/giraffe.jpg,pics/dromedary.jpg,pics/seaturtle.jpg,pics/sandbarshark.jpg,pics/shipinabottle.jpg,blankImage,blankImage,blankImage,asparagus,44,0.1166,0.1165,,,,,,,,,,,,,,,,,,,,,,,,,,,,,,,,,,,,,,,0,44,44,43,1,,,,,,,,,,,,,,,,,,,,,,,,,,,,,,,,,,,,,,,,,,,,,,,,,,,,,,,
,,,,,5ce1372c55fe0d001869c8d8,6682b41eeb79ab8215dff63d,6682bab87ce76f3697eee079,35,Male,"Greek,English",2024-07-01_15h20.51.840,ABmemTask3,2023.2.3,Win32,59.88023952,,,,,,,,,,,,,,,,,,,,,,,,,,,,,,,617.4731,618.4715,618.4715,7,618.9714,620.3718,0.0051,620.4881,0.114,0.1168,0.1162,0.117,0.1166,0.1177,0.1162,0.1168,0.1158,0.1175,0.1156,620.4882,621.0217,right,0.5129,,621.0217,621.2217,right,0.1875,,56,0,92,621.2218,622.2214,,,,,,1_AB,L1_T1P_T2P,1,1,1,7,8,6,5,13,strawberry,Did you see the strawberry,0.12,0,resources/,pics/sealion.jpg,pics/backpack01a.jpg,pics/binoculars01b.jpg,pics/ball02.jpg,pics/proboscismonkey.jpg,pics/pictureframe04.jpg,pics/strawberry.jpg,pics/stapler12.jpg,pics/seaturtle.jpg,pics/dustpan.jpg,pics/bowlingpin.jpg,pics/hammerheadshark.jpg,pics/hen.jpg,blankImage,blankImage,blankImage,blankImage,strawberry,10,0.1167,,,,,,,,,,,,,,,,,,,,,,,,,,,,,,,,,,,,,,,,0,45,45,9,1,,,,,,,,,,,,,,,,,,,,,,,,,,,,,,,,,,,,,,,,,,,,,,,,,,,,,,,
,,,,,5ce1372c55fe0d001869c8d8,6682b41eeb79ab8215dff63d,6682bab87ce76f3697eee079,35,Male,"Greek,English",2024-07-01_15h20.51.840,ABmemTask3,2023.2.3,Win32,59.88023952,,,,,,,,,,,,,,,,,,,,,,,,,,,,,,,622.2229,623.2214,623.2215,7,623.7215,625.2387,0.0038,625.3548,0.1165,0.1153,0.1183,0.1154,0.1176,0.1157,0.1163,0.1166,0.1166,0.1167,0.1166,625.3548,626.805,right,1.4303,,626.805,627.955,left,1.1344,,56,0,94,627.9551,628.9548,,,,,,1_AB,L5_T1P_T2P,5,1,1,5,10,4,4,14,Fox,Did you see the Fox,0.12,0,resources/,pics/hammerheadshark.jpg,pics/bowlingpin.jpg,pics/pictureframe04.jpg,pics/peanut01.jpg,pics/redfox.jpg,pics/cymbal.jpg,pics/spoon01.jpg,pics/banjo.jpg,pics/butterfly.jpg,pics/stapler11.jpg,pics/football.jpg,pics/safetypin.jpg,pics/triangle.jpg,pics/onion.jpg,blankImage,blankImage,blankImage,redfox,45,0.1172,0.1159,,,,,,,,,,,,,,,,,,,,,,,,,,,,,,,,,,,,,,,0,46,46,44,1,,,,,,,,,,,,,,,,,,,,,,,,,,,,,,,,,,,,,,,,,,,,,,,,,,,,,,,
,,,,,5ce1372c55fe0d001869c8d8,6682b41eeb79ab8215dff63d,6682bab87ce76f3697eee079,35,Male,"Greek,English",2024-07-01_15h20.51.840,ABmemTask3,2023.2.3,Win32,59.88023952,,,,,,,,,,,,,,,,,,,,,,,,,,,,,,,628.9661,629.955,629.9551,7,630.4548,631.505,0.005,631.6214,0.1147,0.118,0.1171,0.1139,0.1163,0.1171,0.117,0.1161,0.1169,,,631.6215,632.8049,right,1.1651,,632.8051,632.9562,right,0.1396,,58,0,96,632.9567,633.9547,,,,,,1_AB,L1_T1P_T2P,1,1,1,5,6,4,4,10,thermometer,Did you see the thermometer,0.12,0,resources/,pics/triangle.jpg,pics/shovel01.jpg,pics/mummy.jpg,pics/noparkingsign.jpg,pics/thermometer02b.jpg,pics/stapler04.jpg,pics/piggybank.jpg,pics/golfball.jpg,pics/laptop01a.jpg,pics/aquarium.jpg,blankImage,blankImage,blankImage,blankImage,blankImage,blankImage,blankImage,thermometer02b,8,,,,,,,,,,,,,,,,,,,,,,,,,,,,,,,,,,,,,,,,,0,47,47,7,1,,,,,,,,,,,,,,,,,,,,,,,,,,,,,,,,,,,,,,,,,,,,,,,,,,,,,,,
,,,,,5ce1372c55fe0d001869c8d8,6682b41eeb79ab8215dff63d,6682bab87ce76f3697eee079,35,Male,"Greek,English",2024-07-01_15h20.51.840,ABmemTask3,2023.2.3,Win32,59.88023952,,,,,,,,,,,,,,,,,,,,,,,,,,,,,,,633.9562,634.9547,634.9548,7,635.4548,636.972,0.0041,637.088,0.115,0.117,0.1163,0.1167,0.1164,0.1169,0.1175,0.1156,0.1163,0.117,0.1172,637.0881,637.805,right,0.6961,,637.805,637.9882,right,0.1721,,60,0,98,637.9883,638.9881,,,,,,1_AB,L5_T1P_T2P,5,1,1,6,11,5,3,14,mail box,Did you see the mail box,0.12,0,resources/,pics/pictureframe04.jpg,pics/seaturtle.jpg,pics/blender.jpg,pics/carrot01.jpg,pics/nutcracker01.jpg,pics/mailbox02.jpg,pics/seagull.jpg,pics/sink.jpg,pics/siamesecat.jpg,pics/spiderweb.jpg,pics/stapler08.jpg,pics/safetypin.jpg,pics/candle01.jpg,pics/mummy.jpg,blankImage,blankImage,blankImage,mailbox02,43,0.116,0.1167,,,,,,,,,,,,,,,,,,,,,,,,,,,,,,,,,,,,,,,0,48,48,42,1,,,,,,,,,,,,,,,,,,,,,,,,,,,,,,,,,,,,,,,,,,,,,,,,,,,,,,,
,,,,,5ce1372c55fe0d001869c8d8,6682b41eeb79ab8215dff63d,6682bab87ce76f3697eee079,35,Male,"Greek,English",2024-07-01_15h20.51.840,ABmemTask3,2023.2.3,Win32,59.88023952,,,,,,,,,,,,,,,,,,,,,,,,,,,,,,,638.9898,639.9882,639.9882,7,640.488,642.1225,0.0043,642.2381,0.1149,0.1169,0.1166,0.1165,0.1165,0.1167,0.1167,0.1166,0.1173,0.1159,0.1168,642.2381,642.9216,right,0.6648,,642.9217,643.2049,right,0.2714,,62,0,100,643.2051,644.2048,,,,,,1_AB,L5_T1P_T2P,5,1,1,6,11,5,4,15,toast,Did you see the toast,0.12,0,resources/,pics/piggybank.jpg,pics/leaf02a.jpg,pics/carrot01.jpg,pics/birdhouse.jpg,pics/bowlingpin.jpg,pics/toast.jpg,pics/spiderweb.jpg,pics/cork02.jpg,pics/sink.jpg,pics/nutcracker01.jpg,pics/stapler02.jpg,pics/ashtray01.jpg,pics/fanblades.jpg,pics/pencil01.jpg,pics/lightswitch01.jpg,blankImage,blankImage,toast,46,0.1167,0.1166,0.1167,,,,,,,,,,,,,,,,,,,,,,,,,,,,,,,,,,,,,,0,49,49,45,1,,,,,,,,,,,,,,,,,,,,,,,,,,,,,,,,,,,,,,,,,,,,,,,,,,,,,,,
,,,,,5ce1372c55fe0d001869c8d8,6682b41eeb79ab8215dff63d,6682bab87ce76f3697eee079,35,Male,"Greek,English",2024-07-01_15h20.51.840,ABmemTask3,2023.2.3,Win32,59.88023952,,,,,,,,,,,,,,,,,,,,,,,,,,,,,,,644.2064,645.2048,645.2048,7,645.7049,646.9896,0.0041,647.1048,0.1153,0.1167,0.1168,0.116,0.1175,0.116,0.1168,0.1169,0.1165,0.1162,0.1174,647.1048,647.655,right,0.5306,,647.6551,647.805,right,0.1382,,64,0,102,647.8051,648.8047,,,,,,1_AB,L5_T1P_T2P,5,1,1,4,9,3,3,12,Sheep,Did you see the Sheep,0.12,0,resources/,pics/icecube01.jpg,pics/cymbal.jpg,pics/wheel01.jpg,pics/sheep.jpg,pics/starfish01.jpg,pics/safetypin.jpg,pics/siamesecat.jpg,pics/lock03a.jpg,pics/stapler01.jpg,pics/sink.jpg,pics/fanblades.jpg,pics/bowlingpin.jpg,blankImage,blankImage,blankImage,blankImage,blankImage,sheep,52,,,,,,,,,,,,,,,,,,,,,,,,,,,,,,,,,,,,,,,,,0,50,50,51,1,,,,,,,,,,,,,,,,,,,,,,,,,,,,,,,,,,,,,,,,,,,,,,,,,,,,,,,
,,,,,5ce1372c55fe0d001869c8d8,6682b41eeb79ab8215dff63d,6682bab87ce76f3697eee079,35,Male,"Greek,English",2024-07-01_15h20.51.840,ABmemTask3,2023.2.3,Win32,59.88023952,,,,,,,,,,,,,,,,,,,,,,,,,,,,,,,648.8066,649.8047,649.8047,7,650.3048,652.172,0.0036,652.2881,0.1153,0.1166,0.1169,0.1164,0.1168,0.1165,0.1167,0.1168,0.1175,0.1171,0.1155,652.2882,653.505,left,1.198,,653.505,653.6715,right,0.1507,,62,0,104,653.6716,654.6716,,,,,,1_AB,L5_T1A_T2A,5,0,0,7,12,6,5,17,Bib,Did you see the Bib,0.12,0,resources/,pics/hammerheadshark.jpg,pics/wheel01.jpg,pics/binder03b.jpg,pics/hairdryer02a.jpg,pics/christmaslights.jpg,pics/sandbarshark.jpg,pics/binoculars01b.jpg,pics/piggybank.jpg,pics/aquarium.jpg,pics/candleholder01.jpg,pics/sink.jpg,pics/calendar.jpg,pics/birdhouse.jpg,pics/bowtie.jpg,pics/onion.jpg,pics/golfball.jpg,pics/sailboat.jpg,bib,62,0.1168,0.1161,0.1171,,,,,,,,,,,,,,,,,,,,,,,,,,,,,,,,,,,,,,0,51,51,61,1,0.1164,0.1164,,,,,,,,,,,,,,,,,,,,,,,,,,,,,,,,,,,,,,,,,,,,,,,,,,,,,
,,,,,5ce1372c55fe0d001869c8d8,6682b41eeb79ab8215dff63d,6682bab87ce76f3697eee079,35,Male,"Greek,English",2024-07-01_15h20.51.840,ABmemTask3,2023.2.3,Win32,59.88023952,,,,,,,,,,,,,,,,,,,,,,,,,,,,,,,654.683,655.6715,655.6716,7,656.1714,657.2217,0.0041,657.3381,0.1152,0.1171,0.1164,0.1165,0.1167,0.1182,0.1149,0.1172,0.1156,,,657.3382,658.6717,right,1.3158,,658.6718,659.3549,right,0.6671,,64,0,106,659.355,660.3548,,,,,,1_AB,L1_T1P_T2P,1,1,1,4,5,3,5,10,chair,Did you see the chair,0.12,0,resources/,pics/zebra.jpg,pics/floortile02.jpg,pics/cork02.jpg,pics/chair.jpg,pics/stapler07.jpg,pics/sealion.jpg,pics/shovel01.jpg,pics/piggybank.jpg,pics/candleholder01.jpg,pics/laptop01a.jpg,blankImage,blankImage,blankImage,blankImage,blankImage,blankImage,blankImage,chair,3,,,,,,,,,,,,,,,,,,,,,,,,,,,,,,,,,,,,,,,,,0,52,52,2,1,,,,,,,,,,,,,,,,,,,,,,,,,,,,,,,,,,,,,,,,,,,,,,,,,,,,,,,
,,,,,5ce1372c55fe0d001869c8d8,6682b41eeb79ab8215dff63d,6682bab87ce76f3697eee079,35,Male,"Greek,English",2024-07-01_15h20.51.840,ABmemTask3,2023.2.3,Win32,59.88023952,,,,,,,,,,,,,,,,,,,,,,,,,,,,,,,660.3668,661.3548,661.3549,7,661.8548,663.4886,0.004,663.6048,0.1151,0.1169,0.1172,0.1156,0.1171,0.1161,0.1177,0.1161,0.1167,0.1166,0.1166,663.6049,664.0716,right,0.4482,,664.0718,664.2549,right,0.1692,,66,0,108,664.255,665.2548,,,,,,1_AB,L5_T1P_T2P,5,1,1,5,10,4,5,15,ribbon,Did you see the ribbon,0.12,0,resources/,pics/giraffe.jpg,pics/boot02b.jpg,pics/cymbal.jpg,pics/leaf02a.jpg,pics/ribbon04.jpg,pics/lightswitch01.jpg,pics/necklace.jpg,pics/calendar.jpg,pics/kangaroo.jpg,pics/stapler12.jpg,pics/hose.jpg,pics/carrot01.jpg,pics/match.jpg,pics/sink.jpg,pics/candleholder01.jpg,blankImage,blankImage,ribbon04,53,0.1163,0.1163,0.1168,,,,,,,,,,,,,,,,,,,,,,,,,,,,,,,,,,,,,,0,53,53,52,1,,,,,,,,,,,,,,,,,,,,,,,,,,,,,,,,,,,,,,,,,,,,,,,,,,,,,,,
,,,,,5ce1372c55fe0d001869c8d8,6682b41eeb79ab8215dff63d,6682bab87ce76f3697eee079,35,Male,"Greek,English",2024-07-01_15h20.51.840,ABmemTask3,2023.2.3,Win32,59.88023952,,,,,,,,,,,,,,,,,,,,,,,,,,,,,,,665.2562,666.2549,666.2549,7,666.7548,667.806,0.0038,667.9215,0.1149,0.1174,0.117,0.1159,0.1164,0.117,0.1166,0.1174,0.1165,,,667.9215,668.5556,right,0.621,,668.5559,671.5217,left,2.9506,,66,0,110,671.5217,672.5214,,,,,,1_AB,L1_T1P_T2P,1,1,1,4,5,3,5,10,vacuum,Did you see the vacuum,0.12,0,resources/,pics/birdhouse.jpg,pics/floortile02.jpg,pics/toiletpaper01a.jpg,pics/vacuumcleaner01.jpg,pics/stapler02.jpg,pics/spoon01.jpg,pics/banjo.jpg,pics/binder03b.jpg,pics/leaf02a.jpg,pics/aquarium.jpg,blankImage,blankImage,blankImage,blankImage,blankImage,blankImage,blankImage,vacuumcleaner01,5,,,,,,,,,,,,,,,,,,,,,,,,,,,,,,,,,,,,,,,,,0,54,54,4,1,,,,,,,,,,,,,,,,,,,,,,,,,,,,,,,,,,,,,,,,,,,,,,,,,,,,,,,
,,,,,5ce1372c55fe0d001869c8d8,6682b41eeb79ab8215dff63d,6682bab87ce76f3697eee079,35,Male,"Greek,English",2024-07-01_15h20.51.840,ABmemTask3,2023.2.3,Win32,59.88023952,,,,,,,,,,,,,,,,,,,,,,,,,,,,,,,672.5345,673.5382,673.5383,7,674.0381,674.8565,0.0039,674.9714,0.1153,0.1165,0.1171,0.1163,0.117,0.1162,0.1176,,,,,674.9715,676.0883,left,1.0952,,676.0884,676.2382,right,0.137,,68,0,112,676.2383,677.2381,,,,,,1_AB,L1_T1A_T2P,1,0,1,4,5,3,3,8,Parking meter,Did you see the Parking meter,0.12,0,resources/,pics/leaf02a.jpg,pics/carrot01.jpg,pics/sink.jpg,pics/butterfly.jpg,pics/stapler10.jpg,pics/pictureframe04.jpg,pics/spiderweb.jpg,pics/icecube01.jpg,blankImage,blankImage,blankImage,blankImage,blankImage,blankImage,blankImage,blankImage,blankImage,parkingmeter,30,,,,,,,,,,,,,,,,,,,,,,,,,,,,,,,,,,,,,,,,,0,55,55,29,1,,,,,,,,,,,,,,,,,,,,,,,,,,,,,,,,,,,,,,,,,,,,,,,,,,,,,,,
,,,,,5ce1372c55fe0d001869c8d8,6682b41eeb79ab8215dff63d,6682bab87ce76f3697eee079,35,Male,"Greek,English",2024-07-01_15h20.51.840,ABmemTask3,2023.2.3,Win32,59.88023952,,,,,,,,,,,,,,,,,,,,,,,,,,,,,,,677.2401,678.2382,678.2382,7,678.7381,680.2559,0.004,680.3715,0.115,0.1165,0.1168,0.1165,0.1163,0.1176,0.1161,0.1168,0.1167,0.1174,0.1161,680.3715,681.105,right,0.7151,,681.105,681.3383,right,0.2177,,70,0,114,681.3384,682.3381,,,,,,1_AB,L5_T1P_T2P,5,1,1,6,11,5,3,14,truck,Did you see the truck,0.12,0,resources/,pics/calendar.jpg,pics/mummy.jpg,pics/ashtray01.jpg,pics/pencilsharpener02a.jpg,pics/dustpan.jpg,pics/boxtruck.jpg,pics/lightswitch01.jpg,pics/pictureframe04.jpg,pics/starfish01.jpg,pics/zebra.jpg,pics/stapler12.jpg,pics/bowtie.jpg,pics/candleholder01.jpg,pics/candle01.jpg,blankImage,blankImage,blankImage,boxtruck,50,0.116,0.117,,,,,,,,,,,,,,,,,,,,,,,,,,,,,,,,,,,,,,,0,56,56,49,1,,,,,,,,,,,,,,,,,,,,,,,,,,,,,,,,,,,,,,,,,,,,,,,,,,,,,,,
,,,,,5ce1372c55fe0d001869c8d8,6682b41eeb79ab8215dff63d,6682bab87ce76f3697eee079,35,Male,"Greek,English",2024-07-01_15h20.51.840,ABmemTask3,2023.2.3,Win32,59.88023952,,,,,,,,,,,,,,,,,,,,,,,,,,,,,,,682.3397,683.3381,683.3382,7,683.8381,685.1226,0.0038,685.2381,0.1152,0.1169,0.1163,0.1168,0.1165,0.1169,0.117,0.1162,0.1165,0.1167,0.1171,685.2382,686.055,left,0.8005,,686.0551,686.2882,right,0.2173,,72,0,116,686.2882,687.2881,,,,,,1_AB,L5_T1A_T2P,5,0,1,4,9,3,3,12,rooster,Did you see the rooster,0.12,0,resources/,pics/table01.jpg,pics/icecube01.jpg,pics/dustpan.jpg,pics/lock03a.jpg,pics/sailboat.jpg,pics/salmon.jpg,pics/banjo.jpg,pics/zebra.jpg,pics/stapler09.jpg,pics/peach01.jpg,pics/chainsaw.jpg,pics/football.jpg,blankImage,blankImage,blankImage,blankImage,blankImage,rooster,55,,,,,,,,,,,,,,,,,,,,,,,,,,,,,,,,,,,,,,,,,0,57,57,54,1,,,,,,,,,,,,,,,,,,,,,,,,,,,,,,,,,,,,,,,,,,,,,,,,,,,,,,,
