consent1.started,consent1.stopped,key_resp_8.keys,key_resp_8.rt,key_resp_8.duration,PROLIFIC_PID,STUDY_ID,SESSION_ID,age,sex,native language,date,expName,psychopyVersion,OS,frameRate,consent2.started,consent2.stopped,key_resp_9.keys,key_resp_9.rt,key_resp_9.duration,consent3.started,consent3.stopped,key_resp_10.keys,key_resp_10.rt,key_resp_10.duration,consent4.started,consent4.stopped,key_resp_11.keys,key_resp_11.rt,key_resp_11.duration,consent5.started,consent5.stopped,key_resp_12.keys,key_resp_12.rt,key_resp_12.duration,bonusInstruct.started,bonusInstruct.stopped,key_resp_14.keys,key_resp_14.rt,key_resp_14.duration,practiceInstruct.started,practiceInstruct.stopped,key_resp.keys,key_resp.rt,key_resp.duration,cueWord_2.started,cueWord_2.stopped,fix.started,frameTarget,fix.stopped,trial.started,img1Add,trial.stopped,img2Add,img3Add,img4Add,img5Add,img6Add,img7Add,img8Add,img9Add,img10Add,img11Add,img12Add,prompt1.started,prompt1.stopped,key_resp_2.keys,key_resp_2.rt,key_resp_2.duration,prompt2.started,prompt2.stopped,key_resp_3.keys,key_resp_3.rt,key_resp_3.duration,runningAcc_AB,runningTotal,runningCount_AB,feedback.started,feedback.stopped,trials.thisRepN,trials.thisTrialN,trials.thisN,trials.thisIndex,trials.ran,TrialType,CondType,Lag,T1_PA,T2_PA,T1Loc,T2Loc,PreDistractor,PostDistractor,TotalImg,cueWord,T1cue,StimLength,isi,PicFolder,Img1,Img2,Img3,Img4,Img5,Img6,Img7,Img8,Img9,Img10,Img11,Img12,Img13,Img14,Img15,Img16,Img17,T1_Identity,trialID,img13Add,img14Add,img15Add,ABfeedback.started,ABfeedback.stopped,key_resp_13.keys,key_resp_13.rt,key_resp_13.duration,MemPracticeInstruction.started,MemPracticeInstruction.stopped,key_resp_5.keys,key_resp_5.rt,key_resp_5.duration,memTrial.started,memTrial.stopped,Mem_runningPoints,key_resp_4.keys,key_resp_4.rt,key_resp_4.duration,memTrialFeedback.started,memTrialFeedback.stopped,trials_2.thisRepN,trials_2.thisTrialN,trials_2.thisN,trials_2.thisIndex,trials_2.ran,ABtrialID,priorLag,image,memFeedback.started,memFeedback.frame,memFeedback.ended,memFeedback.stopped,bonus.started,bonus.stopped,memoryBlockABInstruct.started,memoryBlockABInstruct.stopped,key_resp_6.keys,key_resp_6.rt,key_resp_6.duration,AB_block_1.thisRepN,AB_block_1.thisTrialN,AB_block_1.thisN,AB_block_1.thisIndex,AB_block_1.ran,img16Add,img17Add,AB_break1.started,AB_break1.stopped,PerceiveBlockABInstruct.started,PerceiveBlockABInstruct.stopped,key_resp_7.keys,key_resp_7.rt,key_resp_7.duration,AB_block_2.thisRepN,AB_block_2.thisTrialN,AB_block_2.thisN,AB_block_2.thisIndex,AB_block_2.ran,AB_break2.started,AB_break2.stopped,AB_block_3.thisRepN,AB_block_3.thisTrialN,AB_block_3.thisN,AB_block_3.thisIndex,AB_block_3.ran,AB_break3.started,AB_break3.stopped,AB_block_4.thisRepN,AB_block_4.thisTrialN,AB_block_4.thisN,AB_block_4.thisIndex,AB_block_4.ran,AB_break4.started,AB_break4.stopped,AB_block_5.thisRepN,AB_block_5.thisTrialN,AB_block_5.thisN,AB_block_5.thisIndex,AB_block_5.ran,AB_break5.started,AB_break5.stopped,AB_block_6.thisRepN,AB_block_6.thisTrialN,AB_block_6.thisN,AB_block_6.thisIndex,AB_block_6.ran,AB_break6.started,AB_break6.stopped,MemInstructionSURPRISE.started,MemInstructionSURPRISE.stopped,MemInstruction.started,MemInstruction.stopped,memBreak.started,memBreak.stopped,Mem_block_1.thisRepN,Mem_block_1.thisTrialN,Mem_block_1.thisN,Mem_block_1.thisIndex,Mem_block_1.ran
0.0003,69.7396,space,69.7128,,652d355292daf75ed7f323e6,6682b41eeb79ab8215dff63d,6682bae84a6bc3d0b4174125,30,WOMEN,"TURKISH, ENGLISH",2024-07-01_15h21.16.789,ABmemTask3,2023.2.3,Win32,60.24096386,,,,,,,,,,,,,,,,,,,,,,,,,,,,,,,,,,,,,,,,,,,,,,,,,,,,,,,,,,,,,,,,,,,,,,,,,,,,,,,,,,,,,,,,,,,,,,,,,,,,,,,,,,,,,,,,,,,,,,,,,,,,,,,,,,,,,,,,,,,,,,,,,,,,,,,,,,,,,,,,,,,,,,,,,,,,,,,,,,,,,,,,,,,,,,,,,,,,,,,,,,,
,,,,,652d355292daf75ed7f323e6,6682b41eeb79ab8215dff63d,6682bae84a6bc3d0b4174125,30,WOMEN,"TURKISH, ENGLISH",2024-07-01_15h21.16.789,ABmemTask3,2023.2.3,Win32,60.24096386,69.7398,137.683,space,67.8981,,,,,,,,,,,,,,,,,,,,,,,,,,,,,,,,,,,,,,,,,,,,,,,,,,,,,,,,,,,,,,,,,,,,,,,,,,,,,,,,,,,,,,,,,,,,,,,,,,,,,,,,,,,,,,,,,,,,,,,,,,,,,,,,,,,,,,,,,,,,,,,,,,,,,,,,,,,,,,,,,,,,,,,,,,,,,,,,,,,,,,,,,,,,,,,,,,,,,,,
,,,,,652d355292daf75ed7f323e6,6682b41eeb79ab8215dff63d,6682bae84a6bc3d0b4174125,30,WOMEN,"TURKISH, ENGLISH",2024-07-01_15h21.16.789,ABmemTask3,2023.2.3,Win32,60.24096386,,,,,,137.6831,174.1992,space,36.4694,,,,,,,,,,,,,,,,,,,,,,,,,,,,,,,,,,,,,,,,,,,,,,,,,,,,,,,,,,,,,,,,,,,,,,,,,,,,,,,,,,,,,,,,,,,,,,,,,,,,,,,,,,,,,,,,,,,,,,,,,,,,,,,,,,,,,,,,,,,,,,,,,,,,,,,,,,,,,,,,,,,,,,,,,,,,,,,,,,,,,,,,,,,,,,,,,,
,,,,,652d355292daf75ed7f323e6,6682b41eeb79ab8215dff63d,6682bae84a6bc3d0b4174125,30,WOMEN,"TURKISH, ENGLISH",2024-07-01_15h21.16.789,ABmemTask3,2023.2.3,Win32,60.24096386,,,,,,,,,,,174.1993,203.9303,space,29.6848,,,,,,,,,,,,,,,,,,,,,,,,,,,,,,,,,,,,,,,,,,,,,,,,,,,,,,,,,,,,,,,,,,,,,,,,,,,,,,,,,,,,,,,,,,,,,,,,,,,,,,,,,,,,,,,,,,,,,,,,,,,,,,,,,,,,,,,,,,,,,,,,,,,,,,,,,,,,,,,,,,,,,,,,,,,,,,,,,,,,,,,,,,,,,
,,,,,652d355292daf75ed7f323e6,6682b41eeb79ab8215dff63d,6682bae84a6bc3d0b4174125,30,WOMEN,"TURKISH, ENGLISH",2024-07-01_15h21.16.789,ABmemTask3,2023.2.3,Win32,60.24096386,,,,,,,,,,,,,,,,203.9305,278.696,space,74.723,,,,,,,,,,,,,,,,,,,,,,,,,,,,,,,,,,,,,,,,,,,,,,,,,,,,,,,,,,,,,,,,,,,,,,,,,,,,,,,,,,,,,,,,,,,,,,,,,,,,,,,,,,,,,,,,,,,,,,,,,,,,,,,,,,,,,,,,,,,,,,,,,,,,,,,,,,,,,,,,,,,,,,,,,,,,,,,,,,,,,,,,
,,,,,652d355292daf75ed7f323e6,6682b41eeb79ab8215dff63d,6682bae84a6bc3d0b4174125,30,WOMEN,"TURKISH, ENGLISH",2024-07-01_15h21.16.789,ABmemTask3,2023.2.3,Win32,60.24096386,,,,,,,,,,,,,,,,,,,,,278.6962,380.4232,space,101.6949,,,,,,,,,,,,,,,,,,,,,,,,,,,,,,,,,,,,,,,,,,,,,,,,,,,,,,,,,,,,,,,,,,,,,,,,,,,,,,,,,,,,,,,,,,,,,,,,,,,,,,,,,,,,,,,,,,,,,,,,,,,,,,,,,,,,,,,,,,,,,,,,,,,,,,,,,,,,,,,,,,,,,,,,,,,,,,,,,,,
,,,,,652d355292daf75ed7f323e6,6682b41eeb79ab8215dff63d,6682bae84a6bc3d0b4174125,30,WOMEN,"TURKISH, ENGLISH",2024-07-01_15h21.16.789,ABmemTask3,2023.2.3,Win32,60.24096386,,,,,,,,,,,,,,,,,,,,,,,,,,380.4236,486.4031,space,105.9451,,,,,,,,,,,,,,,,,,,,,,,,,,,,,,,,,,,,,,,,,,,,,,,,,,,,,,,,,,,,,,,,,,,,,,,,,,,,,,,,,,,,,,,,,,,,,,,,,,,,,,,,,,,,,,,,,,,,,,,,,,,,,,,,,,,,,,,,,,,,,,,,,,,,,,,,,,,,,,,,,,,,,,,,,,,,,,
,,,,,652d355292daf75ed7f323e6,6682b41eeb79ab8215dff63d,6682bae84a6bc3d0b4174125,30,WOMEN,"TURKISH, ENGLISH",2024-07-01_15h21.16.789,ABmemTask3,2023.2.3,Win32,60.24096386,,,,,,,,,,,,,,,,,,,,,,,,,,,,,,,486.4223,487.423,487.4233,15,487.9256,491.4405,0.0026,491.7485,0.3163,0.3164,0.3167,0.3173,0.3154,0.3174,0.3264,0.3297,0.3102,0.3167,0.3299,491.7496,499.2829,left,7.5051,,499.2831,505.8612,left,6.5441,,0,0,2,505.8614,506.8701,0,0,0,0,1,prac_AB,L1_T1P_T2A,1,1,0,6,7,5,5,12,cat,Did you see the cat,0.25,0,resources/,pics/shipinabottle.jpg,pics/table01.jpg,pics/dustpan.jpg,pics/golfball.jpg,pics/giraffe.jpg,pics/cat.jpg,pics/peanut01.jpg,pics/pictureframe04.jpg,pics/fanblades.jpg,pics/laptop01a.jpg,pics/ball02.jpg,pics/blender.jpg,blankImage,blankImage,blankImage,blankImage,blankImage,cat,8,,,,,,,,,,,,,,,,,,,,,,,,,,,,,,,,,,,,,,,,,,,,,,,,,,,,,,,,,,,,,,,,,,,,,,,,,,,,,,,,,,,,,,,,,,,,,,,,,,,,
,,,,,652d355292daf75ed7f323e6,6682b41eeb79ab8215dff63d,6682bae84a6bc3d0b4174125,30,WOMEN,"TURKISH, ENGLISH",2024-07-01_15h21.16.789,ABmemTask3,2023.2.3,Win32,60.24096386,,,,,,,,,,,,,,,,,,,,,,,,,,,,,,,506.8803,507.8731,507.8732,14,508.3718,511.0769,0.0015,511.3715,0.2981,0.3005,0.3003,0.3002,0.2995,0.2985,0.3003,0.3013,0.3053,,,511.3716,512.5586,right,1.1649,,512.5587,513.5449,right,0.964,,2,0,4,513.545,514.5494,0,1,1,1,1,prac_AB,L1_T1P_T2P,1,1,1,5,6,4,4,10,tree,Did you see the tree,0.24,0,resources/,pics/carrot01.jpg,pics/hammerheadshark.jpg,pics/kangaroo.jpg,pics/proboscismonkey.jpg,pics/tree.jpg,pics/stapler07.jpg,pics/siamesecat.jpg,pics/ball02.jpg,pics/pictureframe04.jpg,pics/mummy.jpg,blankImage,blankImage,blankImage,blankImage,blankImage,blankImage,blankImage,tree,1,,,,,,,,,,,,,,,,,,,,,,,,,,,,,,,,,,,,,,,,,,,,,,,,,,,,,,,,,,,,,,,,,,,,,,,,,,,,,,,,,,,,,,,,,,,,,,,,,,,,
,,,,,652d355292daf75ed7f323e6,6682b41eeb79ab8215dff63d,6682bae84a6bc3d0b4174125,30,WOMEN,"TURKISH, ENGLISH",2024-07-01_15h21.16.789,ABmemTask3,2023.2.3,Win32,60.24096386,,,,,,,,,,,,,,,,,,,,,,,,,,,,,,,514.5595,515.5501,515.5502,14,516.0553,519.3048,0.0017,519.6146,0.3137,0.3011,0.2947,0.2888,0.2944,0.2939,0.2951,0.2943,0.2888,0.2949,0.2884,519.6148,521.2958,left,1.6476,,521.2959,523.7158,left,2.3888,,2,0,6,523.7159,524.7091,0,2,2,2,1,prac_AB,L1_T1A_T2P,1,0,1,7,8,6,4,12,grapes,Did you see the grapes,0.23,0,resources/,pics/sailboat.jpg,pics/butterfly.jpg,pics/giraffe.jpg,pics/spoon01.jpg,pics/hose.jpg,pics/nutcracker01.jpg,pics/table01.jpg,pics/stapler13.jpg,pics/pencil01.jpg,pics/football.jpg,pics/triangle.jpg,pics/hairdryer02a.jpg,blankImage,blankImage,blankImage,blankImage,blankImage,grape01,6,,,,,,,,,,,,,,,,,,,,,,,,,,,,,,,,,,,,,,,,,,,,,,,,,,,,,,,,,,,,,,,,,,,,,,,,,,,,,,,,,,,,,,,,,,,,,,,,,,,,
,,,,,652d355292daf75ed7f323e6,6682b41eeb79ab8215dff63d,6682bae84a6bc3d0b4174125,30,WOMEN,"TURKISH, ENGLISH",2024-07-01_15h21.16.789,ABmemTask3,2023.2.3,Win32,60.24096386,,,,,,,,,,,,,,,,,,,,,,,,,,,,,,,524.7188,525.6928,525.6928,13,526.1917,530.0756,0.002,530.339,0.2679,0.2714,0.2714,0.2827,0.2835,0.2842,0.2725,0.2774,0.2728,0.2747,0.2681,530.3392,531.62,right,1.2549,,531.6201,532.4769,right,0.8171,,4,0,8,532.477,533.4643,0,3,3,3,1,prac_AB,L5_T1P_T2P,5,1,1,7,12,6,3,15,Human skull,Did you see the Human skull,0.22,0,resources/,pics/peach01.jpg,pics/proboscismonkey.jpg,pics/hose.jpg,pics/laptop01a.jpg,pics/hammerheadshark.jpg,pics/nutcracker01.jpg,pics/humanskull.jpg,pics/table01.jpg,pics/icecube01.jpg,pics/boot02b.jpg,pics/calendar.jpg,pics/stapler03a.jpg,pics/ashtray01.jpg,pics/giraffe.jpg,pics/dromedary.jpg,blankImage,blankImage,humanskull,12,0.2846,0.282,0.2888,,,,,,,,,,,,,,,,,,,,,,,,,,,,,,,,,,,,,,,,,,,,,,,,,,,,,,,,,,,,,,,,,,,,,,,,,,,,,,,,,,,,,,,,,,,,,,,,,
,,,,,652d355292daf75ed7f323e6,6682b41eeb79ab8215dff63d,6682bae84a6bc3d0b4174125,30,WOMEN,"TURKISH, ENGLISH",2024-07-01_15h21.16.789,ABmemTask3,2023.2.3,Win32,60.24096386,,,,,,,,,,,,,,,,,,,,,,,,,,,,,,,533.4653,534.4614,534.4615,13,534.9524,537.7488,0.0019,538.0195,0.2846,0.2731,0.2746,0.2838,0.2833,0.2832,0.3067,0.2612,0.2732,0.2711,,538.0197,538.9498,left,0.8899,,538.9498,540.3099,left,1.3336,,4,0,10,540.3099,541.3149,0,4,4,4,1,prac_AB,L1_T1A_T2P,1,0,1,7,8,6,3,11,dog,Did you see the dog,0.21,0,resources/,pics/ball02.jpg,pics/binder03b.jpg,pics/dromedary.jpg,pics/shipinabottle.jpg,pics/proboscismonkey.jpg,pics/laptop01a.jpg,pics/chainsaw.jpg,pics/stapler13.jpg,pics/nutcracker01.jpg,pics/carrot01.jpg,pics/calendar.jpg,blankImage,blankImage,blankImage,blankImage,blankImage,blankImage,saintbernard,7,,,,,,,,,,,,,,,,,,,,,,,,,,,,,,,,,,,,,,,,,,,,,,,,,,,,,,,,,,,,,,,,,,,,,,,,,,,,,,,,,,,,,,,,,,,,,,,,,,,,
,,,,,652d355292daf75ed7f323e6,6682b41eeb79ab8215dff63d,6682bae84a6bc3d0b4174125,30,WOMEN,"TURKISH, ENGLISH",2024-07-01_15h21.16.789,ABmemTask3,2023.2.3,Win32,60.24096386,,,,,,,,,,,,,,,,,,,,,,,,,,,,,,,541.3154,542.3093,542.3093,12,542.7997,546.349,0.0016,546.598,0.2482,0.2495,0.2505,0.2438,0.256,0.2499,0.2601,0.2567,0.2541,0.2662,0.2567,546.5981,547.7863,right,1.1543,,547.7864,548.8029,right,0.9884,,6,0,12,548.803,549.8012,0,5,5,5,1,prac_AB,L5_T1P_T2P,5,1,1,5,10,4,5,15,grater,Did you see the grater,0.2,0,resources/,pics/pencil01.jpg,pics/laptop01a.jpg,pics/hammerheadshark.jpg,pics/cork02.jpg,pics/grater01a.jpg,pics/shipinabottle.jpg,pics/binder03b.jpg,pics/dromedary.jpg,pics/pictureframe04.jpg,pics/stapler04b.jpg,pics/fanblades.jpg,pics/aquarium.jpg,pics/hairdryer02a.jpg,pics/lightswitch01.jpg,pics/piggybank.jpg,blankImage,blankImage,grater01a,11,0.2506,0.2557,0.25,,,,,,,,,,,,,,,,,,,,,,,,,,,,,,,,,,,,,,,,,,,,,,,,,,,,,,,,,,,,,,,,,,,,,,,,,,,,,,,,,,,,,,,,,,,,,,,,,
,,,,,652d355292daf75ed7f323e6,6682b41eeb79ab8215dff63d,6682bae84a6bc3d0b4174125,30,WOMEN,"TURKISH, ENGLISH",2024-07-01_15h21.16.789,ABmemTask3,2023.2.3,Win32,60.24096386,,,,,,,,,,,,,,,,,,,,,,,,,,,,,,,549.8118,550.8066,550.8067,11,551.3145,553.1821,0.0014,553.4058,0.2276,0.2334,0.2333,0.2333,0.2334,0.2332,0.2334,0.2389,,,,553.4061,554.3766,right,0.9344,,554.3767,556.1356,left,1.7254,,8,0,14,556.1358,557.1395,0,6,6,6,1,prac_AB,L1_T1P_T2A,1,1,0,4,5,3,4,9,chalk,Did you see the chalk,0.19,0,resources/,pics/necklace.jpg,pics/starfish01.jpg,pics/safetypin.jpg,pics/chalk.jpg,pics/candleholder01.jpg,pics/bowtie.jpg,pics/match.jpg,pics/candle01.jpg,pics/pencilsharpener02a.jpg,blankImage,blankImage,blankImage,blankImage,blankImage,blankImage,blankImage,blankImage,chalk,9,,,,,,,,,,,,,,,,,,,,,,,,,,,,,,,,,,,,,,,,,,,,,,,,,,,,,,,,,,,,,,,,,,,,,,,,,,,,,,,,,,,,,,,,,,,,,,,,,,,,
,,,,,652d355292daf75ed7f323e6,6682b41eeb79ab8215dff63d,6682bae84a6bc3d0b4174125,30,WOMEN,"TURKISH, ENGLISH",2024-07-01_15h21.16.789,ABmemTask3,2023.2.3,Win32,60.24096386,,,,,,,,,,,,,,,,,,,,,,,,,,,,,,,557.1496,558.1401,558.1403,11,558.6313,560.7325,0.0016,560.9695,0.2277,0.2329,0.2342,0.2293,0.2364,0.2334,0.2332,0.2354,0.2374,,,560.9698,594.3874,left,33.3785,,594.3875,660.2642,right,65.8545,,8,0,16,660.2643,661.2791,0,7,7,7,1,prac_AB,L1_T1P_T2P,1,1,1,5,6,4,4,10,pants,Did you see the pants,0.18,0,resources/,pics/kangaroo.jpg,pics/safetypin.jpg,pics/salmon.jpg,pics/sandbarshark.jpg,pics/pants.jpg,pics/stapler03a.jpg,pics/sink.jpg,pics/calendar.jpg,pics/butterfly.jpg,pics/fanblades.jpg,blankImage,blankImage,blankImage,blankImage,blankImage,blankImage,blankImage,pants,2,,,,,,,,,,,,,,,,,,,,,,,,,,,,,,,,,,,,,,,,,,,,,,,,,,,,,,,,,,,,,,,,,,,,,,,,,,,,,,,,,,,,,,,,,,,,,,,,,,,,
,,,,,652d355292daf75ed7f323e6,6682b41eeb79ab8215dff63d,6682bae84a6bc3d0b4174125,30,WOMEN,"TURKISH, ENGLISH",2024-07-01_15h21.16.789,ABmemTask3,2023.2.3,Win32,60.24096386,,,,,,,,,,,,,,,,,,,,,,,,,,,,,,,661.2887,662.2964,662.2965,10,662.7871,665.7742,0.0017,665.991,0.215,0.2105,0.2059,0.2113,0.2056,0.2154,0.2161,0.2206,0.2132,0.2234,0.2111,665.9911,667.0344,left,1.0094,,667.0345,668.7854,left,1.7249,,8,0,18,668.7855,669.7762,0,8,8,8,1,prac_AB,L5_T1A_T2P,5,0,1,7,12,6,3,15,shirt,Did you see the shirt,0.17,0,resources/,pics/banjo.jpg,pics/chainsaw.jpg,pics/sailboat.jpg,pics/shipinabottle.jpg,pics/lightswitch01.jpg,pics/starfish01.jpg,pics/hen.jpg,pics/ball02.jpg,pics/bowlingpin.jpg,pics/hammerheadshark.jpg,pics/footballhelmet.jpg,pics/stapler10.jpg,pics/laptop01a.jpg,pics/cannon.jpg,pics/golfball.jpg,blankImage,blankImage,shirt02,13,0.2112,0.2055,0.2209,,,,,,,,,,,,,,,,,,,,,,,,,,,,,,,,,,,,,,,,,,,,,,,,,,,,,,,,,,,,,,,,,,,,,,,,,,,,,,,,,,,,,,,,,,,,,,,,,
,,,,,652d355292daf75ed7f323e6,6682b41eeb79ab8215dff63d,6682bae84a6bc3d0b4174125,30,WOMEN,"TURKISH, ENGLISH",2024-07-01_15h21.16.789,ABmemTask3,2023.2.3,Win32,60.24096386,,,,,,,,,,,,,,,,,,,,,,,,,,,,,,,669.7861,670.7744,670.7744,10,671.2808,673.3977,0.0015,673.6026,0.2056,0.2101,0.2061,0.2216,0.2001,0.2138,0.212,0.2175,0.2179,0.2111,,673.603,674.4416,right,0.8169,,674.4417,675.4541,right,0.9908,,10,0,20,675.4542,676.443,0,9,9,9,1,prac_AB,L1_T1P_T2P,1,1,1,7,8,6,3,11,tongs,Did you see the tongs,0.16,0,resources/,pics/sewingmachine01a.jpg,pics/shovel01.jpg,pics/football.jpg,pics/hen.jpg,pics/banjo.jpg,pics/zebra.jpg,pics/tongs01b.jpg,pics/stapler11.jpg,pics/shipinabottle.jpg,pics/match.jpg,pics/candle01.jpg,blankImage,blankImage,blankImage,blankImage,blankImage,blankImage,tongs01b,5,,,,,,,,,,,,,,,,,,,,,,,,,,,,,,,,,,,,,,,,,,,,,,,,,,,,,,,,,,,,,,,,,,,,,,,,,,,,,,,,,,,,,,,,,,,,,,,,,,,,
,,,,,652d355292daf75ed7f323e6,6682b41eeb79ab8215dff63d,6682bae84a6bc3d0b4174125,30,WOMEN,"TURKISH, ENGLISH",2024-07-01_15h21.16.789,ABmemTask3,2023.2.3,Win32,60.24096386,,,,,,,,,,,,,,,,,,,,,,,,,,,,,,,676.4435,677.4357,677.4359,9,677.9379,680.1187,0.0017,680.3178,0.1958,0.2005,0.2029,0.1921,0.1876,0.2002,0.1999,0.2002,0.2,0.2001,0.1999,680.3182,681.0236,left,0.6651,,681.0236,682.3612,left,1.3169,,12,0,22,682.3613,683.3524,0,10,10,10,1,prac_AB,L1_T1A_T2A,1,0,0,7,8,6,4,12,camera,Did you see the camera,0.15,0,resources/,pics/lightswitch01.jpg,pics/table01.jpg,pics/aquarium.jpg,pics/boot02b.jpg,pics/butterfly.jpg,pics/chainsaw.jpg,pics/binoculars01b.jpg,pics/giraffe.jpg,pics/triangle.jpg,pics/microscope.jpg,pics/mummy.jpg,pics/icecube01.jpg,blankImage,blankImage,blankImage,blankImage,blankImage,camera01a,10,,,,,,,,,,,,,,,,,,,,,,,,,,,,,,,,,,,,,,,,,,,,,,,,,,,,,,,,,,,,,,,,,,,,,,,,,,,,,,,,,,,,,,,,,,,,,,,,,,,,
,,,,,652d355292daf75ed7f323e6,6682b41eeb79ab8215dff63d,6682bae84a6bc3d0b4174125,30,WOMEN,"TURKISH, ENGLISH",2024-07-01_15h21.16.789,ABmemTask3,2023.2.3,Win32,60.24096386,,,,,,,,,,,,,,,,,,,,,,,,,,,,,,,683.3532,684.3546,684.3548,8,684.858,686.3861,0.001,686.564,0.1762,0.1793,0.1669,0.1664,0.1667,0.1665,0.1668,0.1668,0.1717,,,686.5642,687.4526,right,0.8615,,687.4527,688.8173,left,1.3422,,12,0,24,688.8174,689.8123,0,11,11,11,1,prac_AB,L1_T1P_T2P,1,1,1,6,7,5,3,10,shorts,Did you see the shorts,0.14,0,resources/,pics/snowshoe.jpg,pics/chainsaw.jpg,pics/sailboat.jpg,pics/ball02.jpg,pics/candleholder01.jpg,pics/shorts01.jpg,pics/stapler07.jpg,pics/peach01.jpg,pics/proboscismonkey.jpg,pics/hen.jpg,blankImage,blankImage,blankImage,blankImage,blankImage,blankImage,blankImage,shorts01,4,,,,,,,,,,,,,,,,,,,,,,,,,,,,,,,,,,,,,,,,,,,,,,,,,,,,,,,,,,,,,,,,,,,,,,,,,,,,,,,,,,,,,,,,,,,,,,,,,,,,
,,,,,652d355292daf75ed7f323e6,6682b41eeb79ab8215dff63d,6682bae84a6bc3d0b4174125,30,WOMEN,"TURKISH, ENGLISH",2024-07-01_15h21.16.789,ABmemTask3,2023.2.3,Win32,60.24096386,,,,,,,,,,,,,,,,,,,,,,,,,,,,,,,689.822,690.798,690.7981,8,691.3038,693.3807,0.0016,693.5571,0.1759,0.1666,0.194,0.1603,0.1787,0.167,0.1828,0.1719,0.1725,0.1668,0.1725,693.5571,696.4064,right,2.8147,,696.4064,697.9298,left,1.5027,,14,0,26,697.9299,698.921,0,12,12,12,1,prac_AB,L5_T1P_T2A,5,1,0,5,10,4,3,13,fish,Did you see the fish,0.13,0,resources/,pics/football.jpg,pics/safetypin.jpg,pics/shovel01.jpg,pics/sink.jpg,pics/holdfast.jpg,pics/nutcracker01.jpg,pics/starfish01.jpg,pics/onion.jpg,pics/footballhelmet.jpg,pics/boot02b.jpg,pics/sewingmachine01a.jpg,pics/kangaroo.jpg,pics/banjo.jpg,blankImage,blankImage,blankImage,blankImage,holdfast,14,0.1665,,,,,,,,,,,,,,,,,,,,,,,,,,,,,,,,,,,,,,,,,,,,,,,,,,,,,,,,,,,,,,,,,,,,,,,,,,,,,,,,,,,,,,,,,,,,,,,,,,,
,,,,,652d355292daf75ed7f323e6,6682b41eeb79ab8215dff63d,6682bae84a6bc3d0b4174125,30,WOMEN,"TURKISH, ENGLISH",2024-07-01_15h21.16.789,ABmemTask3,2023.2.3,Win32,60.24096386,,,,,,,,,,,,,,,,,,,,,,,,,,,,,,,698.9302,699.9295,699.9298,7,700.4178,701.7751,0.0013,701.9248,0.1597,0.1468,0.1466,0.1534,0.15,0.1499,0.15,0.1501,0.1498,,,701.9249,702.7847,right,0.8381,,702.7847,704.2524,left,1.4401,,14,0,28,704.2524,705.2538,0,13,13,13,1,prac_AB,L1_T1P_T2P,1,1,1,5,6,4,4,10,fish,Did you see the fish,0.12,0,resources/,pics/butterfly.jpg,pics/banjo.jpg,pics/leaf02a.jpg,pics/dustpan.jpg,pics/sturgeon.jpg,pics/stapler02.jpg,pics/necklace.jpg,pics/shovel01.jpg,pics/starfish01.jpg,pics/chainsaw.jpg,blankImage,blankImage,blankImage,blankImage,blankImage,blankImage,blankImage,sturgeon,3,,,,,,,,,,,,,,,,,,,,,,,,,,,,,,,,,,,,,,,,,,,,,,,,,,,,,,,,,,,,,,,,,,,,,,,,,,,,,,,,,,,,,,,,,,,,,,,,,,,,
,,,,,652d355292daf75ed7f323e6,6682b41eeb79ab8215dff63d,6682bae84a6bc3d0b4174125,30,WOMEN,"TURKISH, ENGLISH",2024-07-01_15h21.16.789,ABmemTask3,2023.2.3,Win32,60.24096386,,,,,,,,,,,,,,,,,,,,,,,,,,,,,,,,,,,,,,,,,,,,,,,,,,,,,,,,,,,,,,,,,,,,,,,,,,,,,,,,,,,,,,,,,,,,,,,,,,,,,,,,,,,705.2551,726.9936,space,21.6994,,,,,,,,,,,,,,,,,,,,,,,,,,,,,,,,,,,,,,,,,,,,,,,,,,,,,,,,,,,,,,,,,,,,,,,,,,,,,,,,,,,,,,,,,,,,,
,,,,,652d355292daf75ed7f323e6,6682b41eeb79ab8215dff63d,6682bae84a6bc3d0b4174125,30,WOMEN,"TURKISH, ENGLISH",2024-07-01_15h21.16.789,ABmemTask3,2023.2.3,Win32,60.24096386,,,,,,,,,,,,,,,,,,,,,,,,,,,,,,,727.0071,727.9959,727.996,15,728.4857,732.0192,0.0012,732.3347,0.3105,0.3063,0.3148,0.3231,0.3268,0.3234,0.3306,0.3248,0.3226,0.3155,0.3342,732.3349,733.0188,right,0.6385,,733.0188,734.1853,right,1.1441,,-2,0,2,734.1853,735.187,0,0,0,0,1,prac_AB,L1_T1P_T2A,1,1,0,6,7,5,5,12,cat,Did you see the cat,0.25,0,resources/,pics/shipinabottle.jpg,pics/table01.jpg,pics/dustpan.jpg,pics/golfball.jpg,pics/giraffe.jpg,pics/cat.jpg,pics/peanut01.jpg,pics/pictureframe04.jpg,pics/fanblades.jpg,pics/laptop01a.jpg,pics/ball02.jpg,pics/blender.jpg,blankImage,blankImage,blankImage,blankImage,blankImage,cat,8,,,,,,,,,,,,,,,,,,,,,,,,,,,,,,,,,,,,,,,,,,,,,,,,,,,,,,,,,,,,,,,,,,,,,,,,,,,,,,,,,,,,,,,,,,,,,,,,,,,,
,,,,,652d355292daf75ed7f323e6,6682b41eeb79ab8215dff63d,6682bae84a6bc3d0b4174125,30,WOMEN,"TURKISH, ENGLISH",2024-07-01_15h21.16.789,ABmemTask3,2023.2.3,Win32,60.24096386,,,,,,,,,,,,,,,,,,,,,,,,,,,,,,,735.1971,736.1796,736.1797,14,736.691,739.3412,0.001,739.6461,0.2886,0.2887,0.3005,0.2942,0.289,0.3034,0.2966,0.2943,0.2942,,,739.6462,741.0074,right,1.3332,,741.0074,741.5975,left,0.5682,,-2,0,4,741.5976,742.5871,0,1,1,1,1,prac_AB,L1_T1P_T2P,1,1,1,5,6,4,4,10,tree,Did you see the tree,0.24,0,resources/,pics/carrot01.jpg,pics/hammerheadshark.jpg,pics/kangaroo.jpg,pics/proboscismonkey.jpg,pics/tree.jpg,pics/stapler07.jpg,pics/siamesecat.jpg,pics/ball02.jpg,pics/pictureframe04.jpg,pics/mummy.jpg,blankImage,blankImage,blankImage,blankImage,blankImage,blankImage,blankImage,tree,1,,,,,,,,,,,,,,,,,,,,,,,,,,,,,,,,,,,,,,,,,,,,,,,,,,,,,,,,,,,,,,,,,,,,,,,,,,,,,,,,,,,,,,,,,,,,,,,,,,,,
,,,,,652d355292daf75ed7f323e6,6682b41eeb79ab8215dff63d,6682bae84a6bc3d0b4174125,30,WOMEN,"TURKISH, ENGLISH",2024-07-01_15h21.16.789,ABmemTask3,2023.2.3,Win32,60.24096386,,,,,,,,,,,,,,,,,,,,,,,,,,,,,,,742.5882,743.5831,743.5833,14,744.0907,747.3529,0.0008,747.6463,0.3106,0.322,0.2778,0.2996,0.3013,0.2949,0.2883,0.2944,0.2893,0.294,0.2894,747.6465,749.2415,left,1.5622,,749.2416,751.3717,right,2.0973,,0,0,6,751.3717,752.3789,0,2,2,2,1,prac_AB,L1_T1A_T2P,1,0,1,7,8,6,4,12,grapes,Did you see the grapes,0.23,0,resources/,pics/sailboat.jpg,pics/butterfly.jpg,pics/giraffe.jpg,pics/spoon01.jpg,pics/hose.jpg,pics/nutcracker01.jpg,pics/table01.jpg,pics/stapler13.jpg,pics/pencil01.jpg,pics/football.jpg,pics/triangle.jpg,pics/hairdryer02a.jpg,blankImage,blankImage,blankImage,blankImage,blankImage,grape01,6,,,,,,,,,,,,,,,,,,,,,,,,,,,,,,,,,,,,,,,,,,,,,,,,,,,,,,,,,,,,,,,,,,,,,,,,,,,,,,,,,,,,,,,,,,,,,,,,,,,,
,,,,,652d355292daf75ed7f323e6,6682b41eeb79ab8215dff63d,6682bae84a6bc3d0b4174125,30,WOMEN,"TURKISH, ENGLISH",2024-07-01_15h21.16.789,ABmemTask3,2023.2.3,Win32,60.24096386,,,,,,,,,,,,,,,,,,,,,,,,,,,,,,,752.3891,753.3793,753.3793,13,753.8703,757.8347,0.0014,758.117,0.28,0.2831,0.2832,0.2821,0.27,0.2712,0.2938,0.2835,0.2828,0.2834,0.2993,758.1171,758.8044,right,0.6418,,758.8045,759.4403,right,0.6124,,2,0,8,759.4403,760.4454,0,3,3,3,1,prac_AB,L5_T1P_T2P,5,1,1,7,12,6,3,15,Human skull,Did you see the Human skull,0.22,0,resources/,pics/peach01.jpg,pics/proboscismonkey.jpg,pics/hose.jpg,pics/laptop01a.jpg,pics/hammerheadshark.jpg,pics/nutcracker01.jpg,pics/humanskull.jpg,pics/table01.jpg,pics/icecube01.jpg,pics/boot02b.jpg,pics/calendar.jpg,pics/stapler03a.jpg,pics/ashtray01.jpg,pics/giraffe.jpg,pics/dromedary.jpg,blankImage,blankImage,humanskull,12,0.2903,0.2764,0.2841,,,,,,,,,,,,,,,,,,,,,,,,,,,,,,,,,,,,,,,,,,,,,,,,,,,,,,,,,,,,,,,,,,,,,,,,,,,,,,,,,,,,,,,,,,,,,,,,,
,,,,,652d355292daf75ed7f323e6,6682b41eeb79ab8215dff63d,6682bae84a6bc3d0b4174125,30,WOMEN,"TURKISH, ENGLISH",2024-07-01_15h21.16.789,ABmemTask3,2023.2.3,Win32,60.24096386,,,,,,,,,,,,,,,,,,,,,,,,,,,,,,,760.4463,761.4362,761.4362,13,761.929,764.7177,0.0015,765.0002,0.271,0.2835,0.2832,0.2833,0.287,0.2709,0.2728,0.269,0.2834,0.2833,,765.0005,765.7369,left,0.6958,,765.737,767.1075,right,1.3346,,4,0,10,767.1075,768.1047,0,4,4,4,1,prac_AB,L1_T1A_T2P,1,0,1,7,8,6,3,11,dog,Did you see the dog,0.21,0,resources/,pics/ball02.jpg,pics/binder03b.jpg,pics/dromedary.jpg,pics/shipinabottle.jpg,pics/proboscismonkey.jpg,pics/laptop01a.jpg,pics/chainsaw.jpg,pics/stapler13.jpg,pics/nutcracker01.jpg,pics/carrot01.jpg,pics/calendar.jpg,blankImage,blankImage,blankImage,blankImage,blankImage,blankImage,saintbernard,7,,,,,,,,,,,,,,,,,,,,,,,,,,,,,,,,,,,,,,,,,,,,,,,,,,,,,,,,,,,,,,,,,,,,,,,,,,,,,,,,,,,,,,,,,,,,,,,,,,,,
,,,,,652d355292daf75ed7f323e6,6682b41eeb79ab8215dff63d,6682bae84a6bc3d0b4174125,30,WOMEN,"TURKISH, ENGLISH",2024-07-01_15h21.16.789,ABmemTask3,2023.2.3,Win32,60.24096386,,,,,,,,,,,,,,,,,,,,,,,,,,,,,,,768.115,769.1041,769.1042,12,769.6014,773.1747,0.0013,773.425,0.2479,0.2741,0.2556,0.2604,0.2439,0.2623,0.254,0.2562,0.2514,0.2601,0.2447,773.4251,773.9638,right,0.5066,,773.9639,774.2936,right,0.3026,,6,0,12,774.2937,775.2902,0,5,5,5,1,prac_AB,L5_T1P_T2P,5,1,1,5,10,4,5,15,grater,Did you see the grater,0.2,0,resources/,pics/pencil01.jpg,pics/laptop01a.jpg,pics/hammerheadshark.jpg,pics/cork02.jpg,pics/grater01a.jpg,pics/shipinabottle.jpg,pics/binder03b.jpg,pics/dromedary.jpg,pics/pictureframe04.jpg,pics/stapler04b.jpg,pics/fanblades.jpg,pics/aquarium.jpg,pics/hairdryer02a.jpg,pics/lightswitch01.jpg,pics/piggybank.jpg,blankImage,blankImage,grater01a,11,0.2558,0.2495,0.2562,,,,,,,,,,,,,,,,,,,,,,,,,,,,,,,,,,,,,,,,,,,,,,,,,,,,,,,,,,,,,,,,,,,,,,,,,,,,,,,,,,,,,,,,,,,,,,,,,
,,,,,652d355292daf75ed7f323e6,6682b41eeb79ab8215dff63d,6682bae84a6bc3d0b4174125,30,WOMEN,"TURKISH, ENGLISH",2024-07-01_15h21.16.789,ABmemTask3,2023.2.3,Win32,60.24096386,,,,,,,,,,,,,,,,,,,,,,,,,,,,,,,775.2908,776.2902,776.2902,11,776.7902,778.6687,0.0009,778.9002,0.25,0.2334,0.2333,0.2333,0.2336,0.2297,0.2343,0.2302,,,,778.9003,780.1391,right,1.1978,,780.1391,780.6036,left,0.4441,,8,0,14,780.6038,781.5905,0,6,6,6,1,prac_AB,L1_T1P_T2A,1,1,0,4,5,3,4,9,chalk,Did you see the chalk,0.19,0,resources/,pics/necklace.jpg,pics/starfish01.jpg,pics/safetypin.jpg,pics/chalk.jpg,pics/candleholder01.jpg,pics/bowtie.jpg,pics/match.jpg,pics/candle01.jpg,pics/pencilsharpener02a.jpg,blankImage,blankImage,blankImage,blankImage,blankImage,blankImage,blankImage,blankImage,chalk,9,,,,,,,,,,,,,,,,,,,,,,,,,,,,,,,,,,,,,,,,,,,,,,,,,,,,,,,,,,,,,,,,,,,,,,,,,,,,,,,,,,,,,,,,,,,,,,,,,,,,
,,,,,652d355292daf75ed7f323e6,6682b41eeb79ab8215dff63d,6682bae84a6bc3d0b4174125,30,WOMEN,"TURKISH, ENGLISH",2024-07-01_15h21.16.789,ABmemTask3,2023.2.3,Win32,60.24096386,,,,,,,,,,,,,,,,,,,,,,,,,,,,,,,781.6003,782.5911,782.5912,11,783.0896,785.1908,0.0007,785.4238,0.2275,0.2399,0.2332,0.2335,0.2387,0.2247,0.2312,0.2321,0.2399,,,785.4238,786.1061,right,0.6491,,786.1061,786.7679,left,0.6393,,8,0,16,786.768,787.7676,0,7,7,7,1,prac_AB,L1_T1P_T2P,1,1,1,5,6,4,4,10,pants,Did you see the pants,0.18,0,resources/,pics/kangaroo.jpg,pics/safetypin.jpg,pics/salmon.jpg,pics/sandbarshark.jpg,pics/pants.jpg,pics/stapler03a.jpg,pics/sink.jpg,pics/calendar.jpg,pics/butterfly.jpg,pics/fanblades.jpg,blankImage,blankImage,blankImage,blankImage,blankImage,blankImage,blankImage,pants,2,,,,,,,,,,,,,,,,,,,,,,,,,,,,,,,,,,,,,,,,,,,,,,,,,,,,,,,,,,,,,,,,,,,,,,,,,,,,,,,,,,,,,,,,,,,,,,,,,,,,
,,,,,652d355292daf75ed7f323e6,6682b41eeb79ab8215dff63d,6682bae84a6bc3d0b4174125,30,WOMEN,"TURKISH, ENGLISH",2024-07-01_15h21.16.789,ABmemTask3,2023.2.3,Win32,60.24096386,,,,,,,,,,,,,,,,,,,,,,,,,,,,,,,787.7775,788.7707,788.7708,10,789.2702,792.2354,0.0014,792.4455,0.2144,0.2108,0.2055,0.2112,0.2056,0.2145,0.2084,0.2099,0.2214,0.2122,0.2211,792.4457,793.6242,left,1.1505,,793.6242,794.5222,right,0.8647,,10,0,18,794.5223,795.5109,0,8,8,8,1,prac_AB,L5_T1A_T2P,5,0,1,7,12,6,3,15,shirt,Did you see the shirt,0.17,0,resources/,pics/banjo.jpg,pics/chainsaw.jpg,pics/sailboat.jpg,pics/shipinabottle.jpg,pics/lightswitch01.jpg,pics/starfish01.jpg,pics/hen.jpg,pics/ball02.jpg,pics/bowlingpin.jpg,pics/hammerheadshark.jpg,pics/footballhelmet.jpg,pics/stapler10.jpg,pics/laptop01a.jpg,pics/cannon.jpg,pics/golfball.jpg,blankImage,blankImage,shirt02,13,0.2124,0.2161,0.2007,,,,,,,,,,,,,,,,,,,,,,,,,,,,,,,,,,,,,,,,,,,,,,,,,,,,,,,,,,,,,,,,,,,,,,,,,,,,,,,,,,,,,,,,,,,,,,,,,
,,,,,652d355292daf75ed7f323e6,6682b41eeb79ab8215dff63d,6682bae84a6bc3d0b4174125,30,WOMEN,"TURKISH, ENGLISH",2024-07-01_15h21.16.789,ABmemTask3,2023.2.3,Win32,60.24096386,,,,,,,,,,,,,,,,,,,,,,,,,,,,,,,795.5204,796.5086,796.5086,10,797.0073,799.1451,0.0009,799.3414,0.2088,0.2171,0.2183,0.2112,0.2056,0.2107,0.2057,0.2115,0.2106,0.2376,,799.3415,799.9337,right,0.5597,,799.9337,800.9298,right,0.9684,,12,0,20,800.9299,801.912,0,9,9,9,1,prac_AB,L1_T1P_T2P,1,1,1,7,8,6,3,11,tongs,Did you see the tongs,0.16,0,resources/,pics/sewingmachine01a.jpg,pics/shovel01.jpg,pics/football.jpg,pics/hen.jpg,pics/banjo.jpg,pics/zebra.jpg,pics/tongs01b.jpg,pics/stapler11.jpg,pics/shipinabottle.jpg,pics/match.jpg,pics/candle01.jpg,blankImage,blankImage,blankImage,blankImage,blankImage,blankImage,tongs01b,5,,,,,,,,,,,,,,,,,,,,,,,,,,,,,,,,,,,,,,,,,,,,,,,,,,,,,,,,,,,,,,,,,,,,,,,,,,,,,,,,,,,,,,,,,,,,,,,,,,,,
,,,,,652d355292daf75ed7f323e6,6682b41eeb79ab8215dff63d,6682bae84a6bc3d0b4174125,30,WOMEN,"TURKISH, ENGLISH",2024-07-01_15h21.16.789,ABmemTask3,2023.2.3,Win32,60.24096386,,,,,,,,,,,,,,,,,,,,,,,,,,,,,,,801.9222,802.9115,802.9117,9,803.4185,805.5797,0.0014,805.7664,0.1939,0.1871,0.2001,0.1999,0.2067,0.1933,0.1998,0.2002,0.2032,0.1922,0.1837,805.7666,806.3335,left,0.5264,,806.3336,806.9068,right,0.5451,,10,0,22,806.9069,807.9045,0,10,10,10,1,prac_AB,L1_T1A_T2A,1,0,0,7,8,6,4,12,camera,Did you see the camera,0.15,0,resources/,pics/lightswitch01.jpg,pics/table01.jpg,pics/aquarium.jpg,pics/boot02b.jpg,pics/butterfly.jpg,pics/chainsaw.jpg,pics/binoculars01b.jpg,pics/giraffe.jpg,pics/triangle.jpg,pics/microscope.jpg,pics/mummy.jpg,pics/icecube01.jpg,blankImage,blankImage,blankImage,blankImage,blankImage,camera01a,10,,,,,,,,,,,,,,,,,,,,,,,,,,,,,,,,,,,,,,,,,,,,,,,,,,,,,,,,,,,,,,,,,,,,,,,,,,,,,,,,,,,,,,,,,,,,,,,,,,,,
,,,,,652d355292daf75ed7f323e6,6682b41eeb79ab8215dff63d,6682bae84a6bc3d0b4174125,30,WOMEN,"TURKISH, ENGLISH",2024-07-01_15h21.16.789,ABmemTask3,2023.2.3,Win32,60.24096386,,,,,,,,,,,,,,,,,,,,,,,,,,,,,,,807.9053,808.9123,808.9124,8,809.4023,810.9294,0.0013,811.1009,0.1751,0.168,0.1664,0.1667,0.1707,0.1794,0.1666,0.1668,0.1665,,,811.1011,812.0968,right,0.9567,,812.0968,812.7263,right,0.6025,,12,0,24,812.7263,813.7158,0,11,11,11,1,prac_AB,L1_T1P_T2P,1,1,1,6,7,5,3,10,shorts,Did you see the shorts,0.14,0,resources/,pics/snowshoe.jpg,pics/chainsaw.jpg,pics/sailboat.jpg,pics/ball02.jpg,pics/candleholder01.jpg,pics/shorts01.jpg,pics/stapler07.jpg,pics/peach01.jpg,pics/proboscismonkey.jpg,pics/hen.jpg,blankImage,blankImage,blankImage,blankImage,blankImage,blankImage,blankImage,shorts01,4,,,,,,,,,,,,,,,,,,,,,,,,,,,,,,,,,,,,,,,,,,,,,,,,,,,,,,,,,,,,,,,,,,,,,,,,,,,,,,,,,,,,,,,,,,,,,,,,,,,,
,,,,,652d355292daf75ed7f323e6,6682b41eeb79ab8215dff63d,6682bae84a6bc3d0b4174125,30,WOMEN,"TURKISH, ENGLISH",2024-07-01_15h21.16.789,ABmemTask3,2023.2.3,Win32,60.24096386,,,,,,,,,,,,,,,,,,,,,,,,,,,,,,,813.7257,814.7248,814.7248,8,815.2173,817.2626,0.0016,817.457,0.1709,0.1731,0.1667,0.1693,0.1685,0.1796,0.1661,0.1667,0.1666,0.1669,0.1767,817.457,818.0794,right,0.6005,,818.0794,818.4495,right,0.3424,,10,0,26,818.4495,819.4286,0,12,12,12,1,prac_AB,L5_T1P_T2A,5,1,0,5,10,4,3,13,fish,Did you see the fish,0.13,0,resources/,pics/football.jpg,pics/safetypin.jpg,pics/shovel01.jpg,pics/sink.jpg,pics/holdfast.jpg,pics/nutcracker01.jpg,pics/starfish01.jpg,pics/onion.jpg,pics/footballhelmet.jpg,pics/boot02b.jpg,pics/sewingmachine01a.jpg,pics/kangaroo.jpg,pics/banjo.jpg,blankImage,blankImage,blankImage,blankImage,holdfast,14,0.173,,,,,,,,,,,,,,,,,,,,,,,,,,,,,,,,,,,,,,,,,,,,,,,,,,,,,,,,,,,,,,,,,,,,,,,,,,,,,,,,,,,,,,,,,,,,,,,,,,,
,,,,,652d355292daf75ed7f323e6,6682b41eeb79ab8215dff63d,6682bae84a6bc3d0b4174125,30,WOMEN,"TURKISH, ENGLISH",2024-07-01_15h21.16.789,ABmemTask3,2023.2.3,Win32,60.24096386,,,,,,,,,,,,,,,,,,,,,,,,,,,,,,,819.4295,820.4252,820.4253,7,820.9171,822.2904,0.0013,822.4401,0.149,0.1566,0.15,0.1648,0.1484,0.1463,0.1559,0.1511,0.1502,,,822.4401,823.2125,right,0.7504,,823.2125,833.2813,right,10.0409,,12,0,28,833.2813,834.2615,0,13,13,13,1,prac_AB,L1_T1P_T2P,1,1,1,5,6,4,4,10,fish,Did you see the fish,0.12,0,resources/,pics/butterfly.jpg,pics/banjo.jpg,pics/leaf02a.jpg,pics/dustpan.jpg,pics/sturgeon.jpg,pics/stapler02.jpg,pics/necklace.jpg,pics/shovel01.jpg,pics/starfish01.jpg,pics/chainsaw.jpg,blankImage,blankImage,blankImage,blankImage,blankImage,blankImage,blankImage,sturgeon,3,,,,,,,,,,,,,,,,,,,,,,,,,,,,,,,,,,,,,,,,,,,,,,,,,,,,,,,,,,,,,,,,,,,,,,,,,,,,,,,,,,,,,,,,,,,,,,,,,,,,
,,,,,652d355292daf75ed7f323e6,6682b41eeb79ab8215dff63d,6682bae84a6bc3d0b4174125,30,WOMEN,"TURKISH, ENGLISH",2024-07-01_15h21.16.789,ABmemTask3,2023.2.3,Win32,60.24096386,,,,,,,,,,,,,,,,,,,,,,,,,,,,,,,,,,,,,,,,,,,,,,,,,,,,,,,,,,,,,,,,,,,,,,,,,,,,,,,,,,,,,,,,,,,,,,,,,,,,,,,,,,,834.2618,1059.7225,space,225.4305,,,,,,,,,,,,,,,,,,,,,,,,,,,,,,,,,,,,,,,,,,,,,,,,,,,,,,,,,,,,,,,,,,,,,,,,,,,,,,,,,,,,,,,,,,,,,
,,,,,652d355292daf75ed7f323e6,6682b41eeb79ab8215dff63d,6682bae84a6bc3d0b4174125,30,WOMEN,"TURKISH, ENGLISH",2024-07-01_15h21.16.789,ABmemTask3,2023.2.3,Win32,60.24096386,,,,,,,,,,,,,,,,,,,,,,,,,,,,,,,1059.7368,1060.7371,1060.7371,15,1061.2395,1064.7545,0.0016,1065.071,0.3137,0.3166,0.3167,0.3166,0.3224,0.3288,0.3155,0.3167,0.3266,0.3233,0.3167,1065.0711,1066.8064,right,1.6961,,1066.8065,1067.7301,left,0.8924,,2,0,2,1067.7303,1068.7291,0,0,0,0,1,prac_AB,L1_T1P_T2A,1,1,0,6,7,5,5,12,cat,Did you see the cat,0.25,0,resources/,pics/shipinabottle.jpg,pics/table01.jpg,pics/dustpan.jpg,pics/golfball.jpg,pics/giraffe.jpg,pics/cat.jpg,pics/peanut01.jpg,pics/pictureframe04.jpg,pics/fanblades.jpg,pics/laptop01a.jpg,pics/ball02.jpg,pics/blender.jpg,blankImage,blankImage,blankImage,blankImage,blankImage,cat,8,,,,,,,,,,,,,,,,,,,,,,,,,,,,,,,,,,,,,,,,,,,,,,,,,,,,,,,,,,,,,,,,,,,,,,,,,,,,,,,,,,,,,,,,,,,,,,,,,,,,
,,,,,652d355292daf75ed7f323e6,6682b41eeb79ab8215dff63d,6682bae84a6bc3d0b4174125,30,WOMEN,"TURKISH, ENGLISH",2024-07-01_15h21.16.789,ABmemTask3,2023.2.3,Win32,60.24096386,,,,,,,,,,,,,,,,,,,,,,,,,,,,,,,1068.7394,1069.731,1069.731,14,1070.2224,1072.8711,0.0014,1073.1761,0.292,0.2946,0.2943,0.2946,0.2944,0.2893,0.3049,0.2832,0.3002,,,1073.1763,1073.909,right,0.7047,,1073.9092,1074.4696,right,0.5318,,4,0,4,1074.4697,1075.4601,0,1,1,1,1,prac_AB,L1_T1P_T2P,1,1,1,5,6,4,4,10,tree,Did you see the tree,0.24,0,resources/,pics/carrot01.jpg,pics/hammerheadshark.jpg,pics/kangaroo.jpg,pics/proboscismonkey.jpg,pics/tree.jpg,pics/stapler07.jpg,pics/siamesecat.jpg,pics/ball02.jpg,pics/pictureframe04.jpg,pics/mummy.jpg,blankImage,blankImage,blankImage,blankImage,blankImage,blankImage,blankImage,tree,1,,,,,,,,,,,,,,,,,,,,,,,,,,,,,,,,,,,,,,,,,,,,,,,,,,,,,,,,,,,,,,,,,,,,,,,,,,,,,,,,,,,,,,,,,,,,,,,,,,,,
,,,,,652d355292daf75ed7f323e6,6682b41eeb79ab8215dff63d,6682bae84a6bc3d0b4174125,30,WOMEN,"TURKISH, ENGLISH",2024-07-01_15h21.16.789,ABmemTask3,2023.2.3,Win32,60.24096386,,,,,,,,,,,,,,,,,,,,,,,,,,,,,,,1075.4609,1076.4421,1076.4422,14,1076.9381,1080.1829,0.001,1080.4758,0.3089,0.3014,0.2943,0.2931,0.2959,0.2945,0.2883,0.2947,0.2889,0.2947,0.2893,1080.476,1081.8153,right,1.3062,,1081.8154,1083.01,right,1.1725,,2,0,6,1083.01,1084.0162,0,2,2,2,1,prac_AB,L1_T1A_T2P,1,0,1,7,8,6,4,12,grapes,Did you see the grapes,0.23,0,resources/,pics/sailboat.jpg,pics/butterfly.jpg,pics/giraffe.jpg,pics/spoon01.jpg,pics/hose.jpg,pics/nutcracker01.jpg,pics/table01.jpg,pics/stapler13.jpg,pics/pencil01.jpg,pics/football.jpg,pics/triangle.jpg,pics/hairdryer02a.jpg,blankImage,blankImage,blankImage,blankImage,blankImage,grape01,6,,,,,,,,,,,,,,,,,,,,,,,,,,,,,,,,,,,,,,,,,,,,,,,,,,,,,,,,,,,,,,,,,,,,,,,,,,,,,,,,,,,,,,,,,,,,,,,,,,,,
,,,,,652d355292daf75ed7f323e6,6682b41eeb79ab8215dff63d,6682bae84a6bc3d0b4174125,30,WOMEN,"TURKISH, ENGLISH",2024-07-01_15h21.16.789,ABmemTask3,2023.2.3,Win32,60.24096386,,,,,,,,,,,,,,,,,,,,,,,,,,,,,,,1084.0265,1085.0169,1085.017,13,1085.5055,1089.4674,0.0015,1089.7469,0.2744,0.2952,0.2715,0.2832,0.29,0.2766,0.2832,0.2839,0.2878,0.2785,0.2834,1089.7471,1090.4212,right,0.6289,,1090.4212,1090.9373,right,0.483,,4,0,8,1090.9373,1091.931,0,3,3,3,1,prac_AB,L5_T1P_T2P,5,1,1,7,12,6,3,15,Human skull,Did you see the Human skull,0.22,0,resources/,pics/peach01.jpg,pics/proboscismonkey.jpg,pics/hose.jpg,pics/laptop01a.jpg,pics/hammerheadshark.jpg,pics/nutcracker01.jpg,pics/humanskull.jpg,pics/table01.jpg,pics/icecube01.jpg,pics/boot02b.jpg,pics/calendar.jpg,pics/stapler03a.jpg,pics/ashtray01.jpg,pics/giraffe.jpg,pics/dromedary.jpg,blankImage,blankImage,humanskull,12,0.3011,0.272,0.28,,,,,,,,,,,,,,,,,,,,,,,,,,,,,,,,,,,,,,,,,,,,,,,,,,,,,,,,,,,,,,,,,,,,,,,,,,,,,,,,,,,,,,,,,,,,,,,,,
,,,,,652d355292daf75ed7f323e6,6682b41eeb79ab8215dff63d,6682bae84a6bc3d0b4174125,30,WOMEN,"TURKISH, ENGLISH",2024-07-01_15h21.16.789,ABmemTask3,2023.2.3,Win32,60.24096386,,,,,,,,,,,,,,,,,,,,,,,,,,,,,,,1091.9316,1092.9343,1092.9344,13,1093.4344,1096.2643,0.0013,1096.5467,0.279,0.2831,0.2834,0.2834,0.2833,0.2834,0.2828,0.2837,0.2835,0.2833,,1096.5469,1101.5553,left,4.9682,,1101.5554,1102.5306,right,0.9428,,6,0,10,1102.5306,1103.5222,0,4,4,4,1,prac_AB,L1_T1A_T2P,1,0,1,7,8,6,3,11,dog,Did you see the dog,0.21,0,resources/,pics/ball02.jpg,pics/binder03b.jpg,pics/dromedary.jpg,pics/shipinabottle.jpg,pics/proboscismonkey.jpg,pics/laptop01a.jpg,pics/chainsaw.jpg,pics/stapler13.jpg,pics/nutcracker01.jpg,pics/carrot01.jpg,pics/calendar.jpg,blankImage,blankImage,blankImage,blankImage,blankImage,blankImage,saintbernard,7,,,,,,,,,,,,,,,,,,,,,,,,,,,,,,,,,,,,,,,,,,,,,,,,,,,,,,,,,,,,,,,,,,,,,,,,,,,,,,,,,,,,,,,,,,,,,,,,,,,,
,,,,,652d355292daf75ed7f323e6,6682b41eeb79ab8215dff63d,6682bae84a6bc3d0b4174125,30,WOMEN,"TURKISH, ENGLISH",2024-07-01_15h21.16.789,ABmemTask3,2023.2.3,Win32,60.24096386,,,,,,,,,,,,,,,,,,,,,,,,,,,,,,,1103.532,1104.5333,1104.5334,12,1105.0419,1108.6096,0.0015,1108.8589,0.2501,0.2498,0.2544,0.2852,0.2607,0.2498,0.2499,0.2666,0.2501,0.2499,0.2512,1108.8591,1109.9436,right,1.0513,,1109.9437,1110.7009,right,0.7299,,8,0,12,1110.701,1111.7087,0,5,5,5,1,prac_AB,L5_T1P_T2P,5,1,1,5,10,4,5,15,grater,Did you see the grater,0.2,0,resources/,pics/pencil01.jpg,pics/laptop01a.jpg,pics/hammerheadshark.jpg,pics/cork02.jpg,pics/grater01a.jpg,pics/shipinabottle.jpg,pics/binder03b.jpg,pics/dromedary.jpg,pics/pictureframe04.jpg,pics/stapler04b.jpg,pics/fanblades.jpg,pics/aquarium.jpg,pics/hairdryer02a.jpg,pics/lightswitch01.jpg,pics/piggybank.jpg,blankImage,blankImage,grater01a,11,0.2488,0.2499,0.25,,,,,,,,,,,,,,,,,,,,,,,,,,,,,,,,,,,,,,,,,,,,,,,,,,,,,,,,,,,,,,,,,,,,,,,,,,,,,,,,,,,,,,,,,,,,,,,,,
,,,,,652d355292daf75ed7f323e6,6682b41eeb79ab8215dff63d,6682bae84a6bc3d0b4174125,30,WOMEN,"TURKISH, ENGLISH",2024-07-01_15h21.16.789,ABmemTask3,2023.2.3,Win32,60.24096386,,,,,,,,,,,,,,,,,,,,,,,,,,,,,,,1111.7096,1112.6975,1112.6976,11,1113.1886,1115.0858,0.0016,1115.3203,0.2305,0.2335,0.2387,0.2338,0.2497,0.228,0.2391,0.2425,,,,1115.3204,1116.7264,right,1.3721,,1116.7265,1117.493,left,0.7387,,10,0,14,1117.493,1118.4836,0,6,6,6,1,prac_AB,L1_T1P_T2A,1,1,0,4,5,3,4,9,chalk,Did you see the chalk,0.19,0,resources/,pics/necklace.jpg,pics/starfish01.jpg,pics/safetypin.jpg,pics/chalk.jpg,pics/candleholder01.jpg,pics/bowtie.jpg,pics/match.jpg,pics/candle01.jpg,pics/pencilsharpener02a.jpg,blankImage,blankImage,blankImage,blankImage,blankImage,blankImage,blankImage,blankImage,chalk,9,,,,,,,,,,,,,,,,,,,,,,,,,,,,,,,,,,,,,,,,,,,,,,,,,,,,,,,,,,,,,,,,,,,,,,,,,,,,,,,,,,,,,,,,,,,,,,,,,,,,
,,,,,652d355292daf75ed7f323e6,6682b41eeb79ab8215dff63d,6682bae84a6bc3d0b4174125,30,WOMEN,"TURKISH, ENGLISH",2024-07-01_15h21.16.789,ABmemTask3,2023.2.3,Win32,60.24096386,,,,,,,,,,,,,,,,,,,,,,,,,,,,,,,1118.4935,1119.4919,1119.492,11,1119.9797,1122.1039,0.0015,1122.3368,0.2396,0.2335,0.2331,0.2334,0.2334,0.2433,0.2399,0.2334,0.2333,,,1122.3369,1123.1088,right,0.738,,1123.1089,1123.5002,right,0.3629,,12,0,16,1123.5003,1124.4974,0,7,7,7,1,prac_AB,L1_T1P_T2P,1,1,1,5,6,4,4,10,pants,Did you see the pants,0.18,0,resources/,pics/kangaroo.jpg,pics/safetypin.jpg,pics/salmon.jpg,pics/sandbarshark.jpg,pics/pants.jpg,pics/stapler03a.jpg,pics/sink.jpg,pics/calendar.jpg,pics/butterfly.jpg,pics/fanblades.jpg,blankImage,blankImage,blankImage,blankImage,blankImage,blankImage,blankImage,pants,2,,,,,,,,,,,,,,,,,,,,,,,,,,,,,,,,,,,,,,,,,,,,,,,,,,,,,,,,,,,,,,,,,,,,,,,,,,,,,,,,,,,,,,,,,,,,,,,,,,,,
,,,,,652d355292daf75ed7f323e6,6682b41eeb79ab8215dff63d,6682bae84a6bc3d0b4174125,30,WOMEN,"TURKISH, ENGLISH",2024-07-01_15h21.16.789,ABmemTask3,2023.2.3,Win32,60.24096386,,,,,,,,,,,,,,,,,,,,,,,,,,,,,,,1124.5074,1125.5083,1125.5083,10,1125.996,1128.943,0.0017,1129.1479,0.2177,0.211,0.2058,0.2154,0.2178,0.2111,0.2056,0.211,0.2056,0.2111,0.2057,1129.148,1133.4761,right,4.3051,,1133.4761,1134.1306,right,0.6269,,10,0,18,1134.1307,1135.1249,0,8,8,8,1,prac_AB,L5_T1A_T2P,5,0,1,7,12,6,3,15,shirt,Did you see the shirt,0.17,0,resources/,pics/banjo.jpg,pics/chainsaw.jpg,pics/sailboat.jpg,pics/shipinabottle.jpg,pics/lightswitch01.jpg,pics/starfish01.jpg,pics/hen.jpg,pics/ball02.jpg,pics/bowlingpin.jpg,pics/hammerheadshark.jpg,pics/footballhelmet.jpg,pics/stapler10.jpg,pics/laptop01a.jpg,pics/cannon.jpg,pics/golfball.jpg,blankImage,blankImage,shirt02,13,0.211,0.2058,0.211,,,,,,,,,,,,,,,,,,,,,,,,,,,,,,,,,,,,,,,,,,,,,,,,,,,,,,,,,,,,,,,,,,,,,,,,,,,,,,,,,,,,,,,,,,,,,,,,,
,,,,,652d355292daf75ed7f323e6,6682b41eeb79ab8215dff63d,6682bae84a6bc3d0b4174125,30,WOMEN,"TURKISH, ENGLISH",2024-07-01_15h21.16.789,ABmemTask3,2023.2.3,Win32,60.24096386,,,,,,,,,,,,,,,,,,,,,,,,,,,,,,,1135.1351,1136.1364,1136.1365,10,1136.6292,1138.7704,0.0015,1138.9813,0.2178,0.2112,0.2054,0.2113,0.2059,0.238,0.2057,0.2245,0.2034,0.2168,,1138.9814,1140.2928,right,1.2893,,1140.2928,1141.1294,left,0.8086,,10,0,20,1141.1294,1142.1287,0,9,9,9,1,prac_AB,L1_T1P_T2P,1,1,1,7,8,6,3,11,tongs,Did you see the tongs,0.16,0,resources/,pics/sewingmachine01a.jpg,pics/shovel01.jpg,pics/football.jpg,pics/hen.jpg,pics/banjo.jpg,pics/zebra.jpg,pics/tongs01b.jpg,pics/stapler11.jpg,pics/shipinabottle.jpg,pics/match.jpg,pics/candle01.jpg,blankImage,blankImage,blankImage,blankImage,blankImage,blankImage,tongs01b,5,,,,,,,,,,,,,,,,,,,,,,,,,,,,,,,,,,,,,,,,,,,,,,,,,,,,,,,,,,,,,,,,,,,,,,,,,,,,,,,,,,,,,,,,,,,,,,,,,,,,
,,,,,652d355292daf75ed7f323e6,6682b41eeb79ab8215dff63d,6682bae84a6bc3d0b4174125,30,WOMEN,"TURKISH, ENGLISH",2024-07-01_15h21.16.789,ABmemTask3,2023.2.3,Win32,60.24096386,,,,,,,,,,,,,,,,,,,,,,,,,,,,,,,1142.1298,1143.1092,1143.1094,9,1143.5995,1145.7702,0.0015,1145.9646,0.1963,0.2,0.1998,0.2002,0.2002,0.1998,0.2067,0.1932,0.2068,0.1794,0.187,1145.9647,1146.8184,left,0.8316,,1146.8185,1147.4537,left,0.6152,,12,0,22,1147.4538,1148.4479,0,10,10,10,1,prac_AB,L1_T1A_T2A,1,0,0,7,8,6,4,12,camera,Did you see the camera,0.15,0,resources/,pics/lightswitch01.jpg,pics/table01.jpg,pics/aquarium.jpg,pics/boot02b.jpg,pics/butterfly.jpg,pics/chainsaw.jpg,pics/binoculars01b.jpg,pics/giraffe.jpg,pics/triangle.jpg,pics/microscope.jpg,pics/mummy.jpg,pics/icecube01.jpg,blankImage,blankImage,blankImage,blankImage,blankImage,camera01a,10,,,,,,,,,,,,,,,,,,,,,,,,,,,,,,,,,,,,,,,,,,,,,,,,,,,,,,,,,,,,,,,,,,,,,,,,,,,,,,,,,,,,,,,,,,,,,,,,,,,,
,,,,,652d355292daf75ed7f323e6,6682b41eeb79ab8215dff63d,6682bae84a6bc3d0b4174125,30,WOMEN,"TURKISH, ENGLISH",2024-07-01_15h21.16.789,ABmemTask3,2023.2.3,Win32,60.24096386,,,,,,,,,,,,,,,,,,,,,,,,,,,,,,,1148.4575,1149.4467,1149.4468,8,1149.955,1151.4759,0.0013,1151.6417,0.1758,0.1702,0.174,0.1667,0.1665,0.1668,0.1666,0.1665,0.1669,,,1151.6419,1152.1148,right,0.4445,,1152.1149,1152.4536,right,0.3172,,14,0,24,1152.4537,1153.4546,0,11,11,11,1,prac_AB,L1_T1P_T2P,1,1,1,6,7,5,3,10,shorts,Did you see the shorts,0.14,0,resources/,pics/snowshoe.jpg,pics/chainsaw.jpg,pics/sailboat.jpg,pics/ball02.jpg,pics/candleholder01.jpg,pics/shorts01.jpg,pics/stapler07.jpg,pics/peach01.jpg,pics/proboscismonkey.jpg,pics/hen.jpg,blankImage,blankImage,blankImage,blankImage,blankImage,blankImage,blankImage,shorts01,4,,,,,,,,,,,,,,,,,,,,,,,,,,,,,,,,,,,,,,,,,,,,,,,,,,,,,,,,,,,,,,,,,,,,,,,,,,,,,,,,,,,,,,,,,,,,,,,,,,,,
,,,,,652d355292daf75ed7f323e6,6682b41eeb79ab8215dff63d,6682bae84a6bc3d0b4174125,30,WOMEN,"TURKISH, ENGLISH",2024-07-01_15h21.16.789,ABmemTask3,2023.2.3,Win32,60.24096386,,,,,,,,,,,,,,,,,,,,,,,,,,,,,,,1153.4553,1154.4496,1154.4497,8,1154.9581,1156.9758,0.0013,1157.1424,0.1668,0.1668,0.1707,0.18,0.1659,0.167,0.1662,0.1668,0.1666,0.1666,0.167,1157.1425,1157.9305,right,0.7598,,1157.9307,1160.1134,left,2.1437,,16,0,26,1160.1134,1161.1016,0,12,12,12,1,prac_AB,L5_T1P_T2A,5,1,0,5,10,4,3,13,fish,Did you see the fish,0.13,0,resources/,pics/football.jpg,pics/safetypin.jpg,pics/shovel01.jpg,pics/sink.jpg,pics/holdfast.jpg,pics/nutcracker01.jpg,pics/starfish01.jpg,pics/onion.jpg,pics/footballhelmet.jpg,pics/boot02b.jpg,pics/sewingmachine01a.jpg,pics/kangaroo.jpg,pics/banjo.jpg,blankImage,blankImage,blankImage,blankImage,holdfast,14,0.1664,,,,,,,,,,,,,,,,,,,,,,,,,,,,,,,,,,,,,,,,,,,,,,,,,,,,,,,,,,,,,,,,,,,,,,,,,,,,,,,,,,,,,,,,,,,,,,,,,,,
,,,,,652d355292daf75ed7f323e6,6682b41eeb79ab8215dff63d,6682bae84a6bc3d0b4174125,30,WOMEN,"TURKISH, ENGLISH",2024-07-01_15h21.16.789,ABmemTask3,2023.2.3,Win32,60.24096386,,,,,,,,,,,,,,,,,,,,,,,,,,,,,,,1161.1113,1162.108,1162.1082,7,1162.6079,1163.9702,0.0015,1164.1202,0.1543,0.1621,0.1499,0.1447,0.15,0.1498,0.15,0.1499,0.1501,,,1164.1203,1166.7349,left,2.5928,,1166.7349,1167.3422,right,0.587,,16,0,28,1167.3422,1168.3329,0,13,13,13,1,prac_AB,L1_T1P_T2P,1,1,1,5,6,4,4,10,fish,Did you see the fish,0.12,0,resources/,pics/butterfly.jpg,pics/banjo.jpg,pics/leaf02a.jpg,pics/dustpan.jpg,pics/sturgeon.jpg,pics/stapler02.jpg,pics/necklace.jpg,pics/shovel01.jpg,pics/starfish01.jpg,pics/chainsaw.jpg,blankImage,blankImage,blankImage,blankImage,blankImage,blankImage,blankImage,sturgeon,3,,,,,,,,,,,,,,,,,,,,,,,,,,,,,,,,,,,,,,,,,,,,,,,,,,,,,,,,,,,,,,,,,,,,,,,,,,,,,,,,,,,,,,,,,,,,,,,,,,,,
,,,,,652d355292daf75ed7f323e6,6682b41eeb79ab8215dff63d,6682bae84a6bc3d0b4174125,30,WOMEN,"TURKISH, ENGLISH",2024-07-01_15h21.16.789,ABmemTask3,2023.2.3,Win32,60.24096386,,,,,,,,,,,,,,,,,,,,,,,,,,,,,,,,,,,,,,,,,,,,,,,,,,,,,,,,,,,,,,,,,,,,,,,,,,,,,,,,,,,,,,,,,,,,,,,,,,,,,,,,,,,1168.333,1189.2482,space,20.8756,,,,,,,,,,,,,,,,,,,,,,,,,,,,,,,,,,,,,,,,,,,,,,,,,,,,,,,,,,,,,,,,,,,,,,,,,,,,,,,,,,,,,,,,,,,,,
,,,,,652d355292daf75ed7f323e6,6682b41eeb79ab8215dff63d,6682bae84a6bc3d0b4174125,30,WOMEN,"TURKISH, ENGLISH",2024-07-01_15h21.16.789,ABmemTask3,2023.2.3,Win32,60.24096386,,,,,,,,,,,,,,,,,,,,,,,,,,,,,,,1189.2612,1190.2416,1190.2418,15,1190.7299,1194.2365,0.0012,1194.5624,0.3158,0.3235,0.3164,0.3162,0.317,0.3157,0.3177,0.3167,0.3266,0.3233,0.3167,1194.5626,1195.8084,right,1.2004,,1195.8085,1196.4691,left,0.6327,,2,0,2,1196.4691,1197.4745,0,0,0,0,1,prac_AB,L1_T1P_T2A,1,1,0,6,7,5,5,12,cat,Did you see the cat,0.25,0,resources/,pics/shipinabottle.jpg,pics/table01.jpg,pics/dustpan.jpg,pics/golfball.jpg,pics/giraffe.jpg,pics/cat.jpg,pics/peanut01.jpg,pics/pictureframe04.jpg,pics/fanblades.jpg,pics/laptop01a.jpg,pics/ball02.jpg,pics/blender.jpg,blankImage,blankImage,blankImage,blankImage,blankImage,cat,8,,,,,,,,,,,,,,,,,,,,,,,,,,,,,,,,,,,,,,,,,,,,,,,,,,,,,,,,,,,,,,,,,,,,,,,,,,,,,,,,,,,,,,,,,,,,,,,,,,,,
,,,,,652d355292daf75ed7f323e6,6682b41eeb79ab8215dff63d,6682bae84a6bc3d0b4174125,30,WOMEN,"TURKISH, ENGLISH",2024-07-01_15h21.16.789,ABmemTask3,2023.2.3,Win32,60.24096386,,,,,,,,,,,,,,,,,,,,,,,,,,,,,,,1197.4851,1198.483,1198.4831,14,1198.9711,1201.6364,0.0015,1201.9417,0.2919,0.2988,0.3014,0.2944,0.2889,0.2942,0.2933,0.2957,0.3053,,,1201.9419,1202.62,right,0.6477,,1202.62,1203.0757,right,0.4227,,4,0,4,1203.0758,1204.0751,0,1,1,1,1,prac_AB,L1_T1P_T2P,1,1,1,5,6,4,4,10,tree,Did you see the tree,0.24,0,resources/,pics/carrot01.jpg,pics/hammerheadshark.jpg,pics/kangaroo.jpg,pics/proboscismonkey.jpg,pics/tree.jpg,pics/stapler07.jpg,pics/siamesecat.jpg,pics/ball02.jpg,pics/pictureframe04.jpg,pics/mummy.jpg,blankImage,blankImage,blankImage,blankImage,blankImage,blankImage,blankImage,tree,1,,,,,,,,,,,,,,,,,,,,,,,,,,,,,,,,,,,,,,,,,,,,,,,,,,,,,,,,,,,,,,,,,,,,,,,,,,,,,,,,,,,,,,,,,,,,,,,,,,,,
,,,,,652d355292daf75ed7f323e6,6682b41eeb79ab8215dff63d,6682bae84a6bc3d0b4174125,30,WOMEN,"TURKISH, ENGLISH",2024-07-01_15h21.16.789,ABmemTask3,2023.2.3,Win32,60.24096386,,,,,,,,,,,,,,,,,,,,,,,,,,,,,,,1204.0758,1205.0746,1205.0747,14,1205.5648,1208.8478,0.0014,1209.141,0.3038,0.2945,0.2945,0.3001,0.2887,0.2988,0.3007,0.3059,0.2944,0.3056,0.2947,1209.1411,1225.8781,left,16.7036,,1225.8781,1227.4844,right,1.5744,,6,0,6,1227.4844,1228.4947,0,2,2,2,1,prac_AB,L1_T1A_T2P,1,0,1,7,8,6,4,12,grapes,Did you see the grapes,0.23,0,resources/,pics/sailboat.jpg,pics/butterfly.jpg,pics/giraffe.jpg,pics/spoon01.jpg,pics/hose.jpg,pics/nutcracker01.jpg,pics/table01.jpg,pics/stapler13.jpg,pics/pencil01.jpg,pics/football.jpg,pics/triangle.jpg,pics/hairdryer02a.jpg,blankImage,blankImage,blankImage,blankImage,blankImage,grape01,6,,,,,,,,,,,,,,,,,,,,,,,,,,,,,,,,,,,,,,,,,,,,,,,,,,,,,,,,,,,,,,,,,,,,,,,,,,,,,,,,,,,,,,,,,,,,,,,,,,,,
,,,,,652d355292daf75ed7f323e6,6682b41eeb79ab8215dff63d,6682bae84a6bc3d0b4174125,30,WOMEN,"TURKISH, ENGLISH",2024-07-01_15h21.16.789,ABmemTask3,2023.2.3,Win32,60.24096386,,,,,,,,,,,,,,,,,,,,,,,,,,,,,,,1228.5052,1229.5032,1229.5032,13,1229.9924,1238.6241,0.002,1238.914,0.3065,0.3194,0.3093,0.3269,0.3119,0.3172,0.3186,0.3061,0.3065,0.3159,0.3262,1238.9141,1240.5466,right,1.6045,,1240.5466,1241.1526,right,0.5828,,8,0,8,1241.1526,1242.1526,0,3,3,3,1,prac_AB,L5_T1P_T2P,5,1,1,7,12,6,3,15,Human skull,Did you see the Human skull,0.22,0,resources/,pics/peach01.jpg,pics/proboscismonkey.jpg,pics/hose.jpg,pics/laptop01a.jpg,pics/hammerheadshark.jpg,pics/nutcracker01.jpg,pics/humanskull.jpg,pics/table01.jpg,pics/icecube01.jpg,pics/boot02b.jpg,pics/calendar.jpg,pics/stapler03a.jpg,pics/ashtray01.jpg,pics/giraffe.jpg,pics/dromedary.jpg,blankImage,blankImage,humanskull,12,0.3079,0.3197,4.5378,,,,,,,,,,,,,,,,,,,,,,,,,,,,,,,,,,,,,,,,,,,,,,,,,,,,,,,,,,,,,,,,,,,,,,,,,,,,,,,,,,,,,,,,,,,,,,,,,
,,,,,652d355292daf75ed7f323e6,6682b41eeb79ab8215dff63d,6682bae84a6bc3d0b4174125,30,WOMEN,"TURKISH, ENGLISH",2024-07-01_15h21.16.789,ABmemTask3,2023.2.3,Win32,60.24096386,,,,,,,,,,,,,,,,,,,,,,,,,,,,,,,1242.1621,1243.1514,1243.1515,13,1243.6408,1246.4293,0.0016,1246.7119,0.2725,0.2814,0.2834,0.2859,0.2751,0.2687,0.2703,0.2831,0.2848,0.282,,1246.7121,1247.416,left,0.6634,,1247.4161,1247.8555,right,0.4198,,10,0,10,1247.8555,1248.858,0,4,4,4,1,prac_AB,L1_T1A_T2P,1,0,1,7,8,6,3,11,dog,Did you see the dog,0.21,0,resources/,pics/ball02.jpg,pics/binder03b.jpg,pics/dromedary.jpg,pics/shipinabottle.jpg,pics/proboscismonkey.jpg,pics/laptop01a.jpg,pics/chainsaw.jpg,pics/stapler13.jpg,pics/nutcracker01.jpg,pics/carrot01.jpg,pics/calendar.jpg,blankImage,blankImage,blankImage,blankImage,blankImage,blankImage,saintbernard,7,,,,,,,,,,,,,,,,,,,,,,,,,,,,,,,,,,,,,,,,,,,,,,,,,,,,,,,,,,,,,,,,,,,,,,,,,,,,,,,,,,,,,,,,,,,,,,,,,,,,
,,,,,652d355292daf75ed7f323e6,6682b41eeb79ab8215dff63d,6682bae84a6bc3d0b4174125,30,WOMEN,"TURKISH, ENGLISH",2024-07-01_15h21.16.789,ABmemTask3,2023.2.3,Win32,60.24096386,,,,,,,,,,,,,,,,,,,,,,,,,,,,,,,1248.8589,1249.854,1249.854,12,1250.3443,1253.8852,0.0016,1254.1419,0.2626,0.2558,0.2526,0.2513,0.2512,0.2559,0.2499,0.25,0.25,0.2501,0.2499,1254.1419,1254.9795,right,0.8049,,1254.9796,1255.3247,right,0.3058,,12,0,12,1255.3248,1256.307,0,5,5,5,1,prac_AB,L5_T1P_T2P,5,1,1,5,10,4,5,15,grater,Did you see the grater,0.2,0,resources/,pics/pencil01.jpg,pics/laptop01a.jpg,pics/hammerheadshark.jpg,pics/cork02.jpg,pics/grater01a.jpg,pics/shipinabottle.jpg,pics/binder03b.jpg,pics/dromedary.jpg,pics/pictureframe04.jpg,pics/stapler04b.jpg,pics/fanblades.jpg,pics/aquarium.jpg,pics/hairdryer02a.jpg,pics/lightswitch01.jpg,pics/piggybank.jpg,blankImage,blankImage,grater01a,11,0.2499,0.254,0.2562,,,,,,,,,,,,,,,,,,,,,,,,,,,,,,,,,,,,,,,,,,,,,,,,,,,,,,,,,,,,,,,,,,,,,,,,,,,,,,,,,,,,,,,,,,,,,,,,,
,,,,,652d355292daf75ed7f323e6,6682b41eeb79ab8215dff63d,6682bae84a6bc3d0b4174125,30,WOMEN,"TURKISH, ENGLISH",2024-07-01_15h21.16.789,ABmemTask3,2023.2.3,Win32,60.24096386,,,,,,,,,,,,,,,,,,,,,,,,,,,,,,,1256.308,1257.3115,1257.3117,11,1257.8026,1259.6634,0.0008,1259.9129,0.2383,0.2328,0.2284,0.234,0.2326,0.2393,0.221,0.2339,,,,1259.913,1260.8342,right,0.8986,,1260.8343,1261.2186,left,0.3625,,14,0,14,1261.2186,1262.2076,0,6,6,6,1,prac_AB,L1_T1P_T2A,1,1,0,4,5,3,4,9,chalk,Did you see the chalk,0.19,0,resources/,pics/necklace.jpg,pics/starfish01.jpg,pics/safetypin.jpg,pics/chalk.jpg,pics/candleholder01.jpg,pics/bowtie.jpg,pics/match.jpg,pics/candle01.jpg,pics/pencilsharpener02a.jpg,blankImage,blankImage,blankImage,blankImage,blankImage,blankImage,blankImage,blankImage,chalk,9,,,,,,,,,,,,,,,,,,,,,,,,,,,,,,,,,,,,,,,,,,,,,,,,,,,,,,,,,,,,,,,,,,,,,,,,,,,,,,,,,,,,,,,,,,,,,,,,,,,,
,,,,,652d355292daf75ed7f323e6,6682b41eeb79ab8215dff63d,6682bae84a6bc3d0b4174125,30,WOMEN,"TURKISH, ENGLISH",2024-07-01_15h21.16.789,ABmemTask3,2023.2.3,Win32,60.24096386,,,,,,,,,,,,,,,,,,,,,,,,,,,,,,,1262.2084,1263.2068,1263.2069,11,1263.6908,1265.8139,0.0015,1266.0449,0.2271,0.2445,0.2329,0.2327,0.2501,0.2397,0.2424,0.2287,0.2237,,,1266.0451,1266.6914,right,0.6056,,1266.6915,1267.0321,right,0.3129,,16,0,16,1267.0322,1268.0394,0,7,7,7,1,prac_AB,L1_T1P_T2P,1,1,1,5,6,4,4,10,pants,Did you see the pants,0.18,0,resources/,pics/kangaroo.jpg,pics/safetypin.jpg,pics/salmon.jpg,pics/sandbarshark.jpg,pics/pants.jpg,pics/stapler03a.jpg,pics/sink.jpg,pics/calendar.jpg,pics/butterfly.jpg,pics/fanblades.jpg,blankImage,blankImage,blankImage,blankImage,blankImage,blankImage,blankImage,pants,2,,,,,,,,,,,,,,,,,,,,,,,,,,,,,,,,,,,,,,,,,,,,,,,,,,,,,,,,,,,,,,,,,,,,,,,,,,,,,,,,,,,,,,,,,,,,,,,,,,,,
,,,,,652d355292daf75ed7f323e6,6682b41eeb79ab8215dff63d,6682bae84a6bc3d0b4174125,30,WOMEN,"TURKISH, ENGLISH",2024-07-01_15h21.16.789,ABmemTask3,2023.2.3,Win32,60.24096386,,,,,,,,,,,,,,,,,,,,,,,,,,,,,,,1268.0404,1269.0236,1269.0237,10,1269.5235,1272.4468,0.0016,1272.657,0.2067,0.2155,0.2112,0.206,0.2106,0.2058,0.2108,0.2084,0.2082,0.2057,0.211,1272.6572,1273.3168,left,0.6261,,1273.3169,1273.6582,right,0.3206,,18,0,18,1273.6583,1274.6606,0,8,8,8,1,prac_AB,L5_T1A_T2P,5,0,1,7,12,6,3,15,shirt,Did you see the shirt,0.17,0,resources/,pics/banjo.jpg,pics/chainsaw.jpg,pics/sailboat.jpg,pics/shipinabottle.jpg,pics/lightswitch01.jpg,pics/starfish01.jpg,pics/hen.jpg,pics/ball02.jpg,pics/bowlingpin.jpg,pics/hammerheadshark.jpg,pics/footballhelmet.jpg,pics/stapler10.jpg,pics/laptop01a.jpg,pics/cannon.jpg,pics/golfball.jpg,blankImage,blankImage,shirt02,13,0.2058,0.211,0.2054,,,,,,,,,,,,,,,,,,,,,,,,,,,,,,,,,,,,,,,,,,,,,,,,,,,,,,,,,,,,,,,,,,,,,,,,,,,,,,,,,,,,,,,,,,,,,,,,,
,,,,,652d355292daf75ed7f323e6,6682b41eeb79ab8215dff63d,6682bae84a6bc3d0b4174125,30,WOMEN,"TURKISH, ENGLISH",2024-07-01_15h21.16.789,ABmemTask3,2023.2.3,Win32,60.24096386,,,,,,,,,,,,,,,,,,,,,,,,,,,,,,,1274.6615,1275.6571,1275.6571,10,1276.145,1278.2969,0.0015,1278.5071,0.2185,0.2144,0.2179,0.2112,0.2054,0.2149,0.2169,0.2178,0.2156,0.2181,,1278.5074,1279.1249,right,0.589,,1279.125,1279.6017,right,0.45,,20,0,20,1279.6017,1280.5906,0,9,9,9,1,prac_AB,L1_T1P_T2P,1,1,1,7,8,6,3,11,tongs,Did you see the tongs,0.16,0,resources/,pics/sewingmachine01a.jpg,pics/shovel01.jpg,pics/football.jpg,pics/hen.jpg,pics/banjo.jpg,pics/zebra.jpg,pics/tongs01b.jpg,pics/stapler11.jpg,pics/shipinabottle.jpg,pics/match.jpg,pics/candle01.jpg,blankImage,blankImage,blankImage,blankImage,blankImage,blankImage,tongs01b,5,,,,,,,,,,,,,,,,,,,,,,,,,,,,,,,,,,,,,,,,,,,,,,,,,,,,,,,,,,,,,,,,,,,,,,,,,,,,,,,,,,,,,,,,,,,,,,,,,,,,
,,,,,652d355292daf75ed7f323e6,6682b41eeb79ab8215dff63d,6682bae84a6bc3d0b4174125,30,WOMEN,"TURKISH, ENGLISH",2024-07-01_15h21.16.789,ABmemTask3,2023.2.3,Win32,60.24096386,,,,,,,,,,,,,,,,,,,,,,,,,,,,,,,1280.5916,1281.6009,1281.6009,9,1282.1031,1284.282,0.0012,1284.4736,0.1916,0.2,0.2,0.1999,0.2001,0.2001,0.1998,0.1999,0.2024,0.1877,0.1966,1284.4737,1285.4077,left,0.9057,,1285.4078,1285.7571,left,0.3213,,22,0,22,1285.7571,1286.7403,0,10,10,10,1,prac_AB,L1_T1A_T2A,1,0,0,7,8,6,4,12,camera,Did you see the camera,0.15,0,resources/,pics/lightswitch01.jpg,pics/table01.jpg,pics/aquarium.jpg,pics/boot02b.jpg,pics/butterfly.jpg,pics/chainsaw.jpg,pics/binoculars01b.jpg,pics/giraffe.jpg,pics/triangle.jpg,pics/microscope.jpg,pics/mummy.jpg,pics/icecube01.jpg,blankImage,blankImage,blankImage,blankImage,blankImage,camera01a,10,,,,,,,,,,,,,,,,,,,,,,,,,,,,,,,,,,,,,,,,,,,,,,,,,,,,,,,,,,,,,,,,,,,,,,,,,,,,,,,,,,,,,,,,,,,,,,,,,,,,
,,,,,652d355292daf75ed7f323e6,6682b41eeb79ab8215dff63d,6682bae84a6bc3d0b4174125,30,WOMEN,"TURKISH, ENGLISH",2024-07-01_15h21.16.789,ABmemTask3,2023.2.3,Win32,60.24096386,,,,,,,,,,,,,,,,,,,,,,,,,,,,,,,1286.7412,1287.7305,1287.7307,8,1288.232,1289.7583,0.0014,1289.9237,0.1781,0.1637,0.1655,0.1729,0.1611,0.1667,0.1678,0.1765,0.1729,,,1289.9237,1290.5707,right,0.6183,,1290.5708,1290.868,right,0.2668,,24,0,24,1290.868,1291.8654,0,11,11,11,1,prac_AB,L1_T1P_T2P,1,1,1,6,7,5,3,10,shorts,Did you see the shorts,0.14,0,resources/,pics/snowshoe.jpg,pics/chainsaw.jpg,pics/sailboat.jpg,pics/ball02.jpg,pics/candleholder01.jpg,pics/shorts01.jpg,pics/stapler07.jpg,pics/peach01.jpg,pics/proboscismonkey.jpg,pics/hen.jpg,blankImage,blankImage,blankImage,blankImage,blankImage,blankImage,blankImage,shorts01,4,,,,,,,,,,,,,,,,,,,,,,,,,,,,,,,,,,,,,,,,,,,,,,,,,,,,,,,,,,,,,,,,,,,,,,,,,,,,,,,,,,,,,,,,,,,,,,,,,,,,
,,,,,652d355292daf75ed7f323e6,6682b41eeb79ab8215dff63d,6682bae84a6bc3d0b4174125,30,WOMEN,"TURKISH, ENGLISH",2024-07-01_15h21.16.789,ABmemTask3,2023.2.3,Win32,60.24096386,,,,,,,,,,,,,,,,,,,,,,,,,,,,,,,1291.866,1292.8513,1292.8515,8,1293.3514,1295.3911,0.0009,1295.5572,0.1764,0.1794,0.1668,0.1665,0.1667,0.1667,0.1667,0.1704,0.1738,0.1671,0.1709,1295.5574,1296.4797,right,0.8943,,1296.4798,1296.9019,left,0.4002,,26,0,26,1296.9019,1297.8954,0,12,12,12,1,prac_AB,L5_T1P_T2A,5,1,0,5,10,4,3,13,fish,Did you see the fish,0.13,0,resources/,pics/football.jpg,pics/safetypin.jpg,pics/shovel01.jpg,pics/sink.jpg,pics/holdfast.jpg,pics/nutcracker01.jpg,pics/starfish01.jpg,pics/onion.jpg,pics/footballhelmet.jpg,pics/boot02b.jpg,pics/sewingmachine01a.jpg,pics/kangaroo.jpg,pics/banjo.jpg,blankImage,blankImage,blankImage,blankImage,holdfast,14,0.1677,,,,,,,,,,,,,,,,,,,,,,,,,,,,,,,,,,,,,,,,,,,,,,,,,,,,,,,,,,,,,,,,,,,,,,,,,,,,,,,,,,,,,,,,,,,,,,,,,,,
,,,,,652d355292daf75ed7f323e6,6682b41eeb79ab8215dff63d,6682bae84a6bc3d0b4174125,30,WOMEN,"TURKISH, ENGLISH",2024-07-01_15h21.16.789,ABmemTask3,2023.2.3,Win32,60.24096386,,,,,,,,,,,,,,,,,,,,,,,,,,,,,,,1297.9054,1298.8896,1298.8897,7,1299.3898,1300.7355,0.0016,1300.8855,0.1442,0.15,0.15,0.1509,0.1493,0.1492,0.1507,0.1498,0.1502,,,1300.8856,1301.7659,right,0.8588,,1301.766,1302.3167,right,0.5149,,28,0,28,1302.3167,1303.3178,0,13,13,13,1,prac_AB,L1_T1P_T2P,1,1,1,5,6,4,4,10,fish,Did you see the fish,0.12,0,resources/,pics/butterfly.jpg,pics/banjo.jpg,pics/leaf02a.jpg,pics/dustpan.jpg,pics/sturgeon.jpg,pics/stapler02.jpg,pics/necklace.jpg,pics/shovel01.jpg,pics/starfish01.jpg,pics/chainsaw.jpg,blankImage,blankImage,blankImage,blankImage,blankImage,blankImage,blankImage,sturgeon,3,,,,,,,,,,,,,,,,,,,,,,,,,,,,,,,,,,,,,,,,,,,,,,,,,,,,,,,,,,,,,,,,,,,,,,,,,,,,,,,,,,,,,,,,,,,,,,,,,,,,
,,,,,652d355292daf75ed7f323e6,6682b41eeb79ab8215dff63d,6682bae84a6bc3d0b4174125,30,WOMEN,"TURKISH, ENGLISH",2024-07-01_15h21.16.789,ABmemTask3,2023.2.3,Win32,60.24096386,,,,,,,,,,,,,,,,,,,,,,,,,,,,,,,,,,,,,,,,,,,,,,,,,,,,,,,,,,,,,,,,,,,,,,,,,,,,,,,,,,,,,,,,,,,,,,,,,,,,,,,,,,,1303.3179,1395.3452,space,91.9834,,,,,,,,,,,,,,,,,,,,,,,,,,,,,,,,,,,,,,,,,,,,,,,,,,,,,,,,,,,,,,,,,,,,,,,,,,,,,,,,,,,,,,,,,,,,,
,,,,,652d355292daf75ed7f323e6,6682b41eeb79ab8215dff63d,6682bae84a6bc3d0b4174125,30,WOMEN,"TURKISH, ENGLISH",2024-07-01_15h21.16.789,ABmemTask3,2023.2.3,Win32,60.24096386,,,,,,,,,,,,,,,,,,,,,,,,,,,,,,,,,,,,,,,,,,,,,,,,,,,,,,,,,,,,,,,,,,,,,,,,,,,,,,,,,,,,,,,,,,,,,,,,,,,,,,,,,,,1395.3581,1395.361,,,,,,,,,,,,,,,,,,,,,,,,,,,,,,,,,,,,,,,,,,,,,,,,,,,,,,,,,,,,,,,,,,,,,,,,,,,,,,,,,,,,,,,,,,,,,,,
,,,,,652d355292daf75ed7f323e6,6682b41eeb79ab8215dff63d,6682bae84a6bc3d0b4174125,30,WOMEN,"TURKISH, ENGLISH",2024-07-01_15h21.16.789,ABmemTask3,2023.2.3,Win32,60.24096386,,,,,,,,,,,,,,,,,,,,,,,,,,,,,,,,,,,,,,,,,,,,,,,,,,,,,,,,,,,,,,,,,,,,,,,,,,,,,,,,,,,,,,,,,,,,,,,,,,,,,,,,,,,1395.3643,1395.3643,,,,,,,,,,,,,,,,,,,,,,,,,,,,,,,,,,,,,,,,,,,,,,,,,,,,,,,,,,,,,,,,,,,,,,,,,,,,,,,,,,,,,,,,,,,,,,,
,,,,,652d355292daf75ed7f323e6,6682b41eeb79ab8215dff63d,6682bae84a6bc3d0b4174125,30,WOMEN,"TURKISH, ENGLISH",2024-07-01_15h21.16.789,ABmemTask3,2023.2.3,Win32,60.24096386,,,,,,,,,,,,,,,,,,,,,,,,,,,,,,,,,,,,,,,,,,,,,,,,,,,,,,,,,,,,,,,,,,,,,,,,,,,,,,,,,,,,,,,,,,,,,,,,,,,,,,,,,,,1395.3668,1395.367,,,,,,,,,,,,,,,,,,,,,,,,,,,,,,,,,,,,,,,,,,,,,,,,,,,,,,,,,,,,,,,,,,,,,,,,,,,,,,,,,,,,,,,,,,,,,,,
,,,,,652d355292daf75ed7f323e6,6682b41eeb79ab8215dff63d,6682bae84a6bc3d0b4174125,30,WOMEN,"TURKISH, ENGLISH",2024-07-01_15h21.16.789,ABmemTask3,2023.2.3,Win32,60.24096386,,,,,,,,,,,,,,,,,,,,,,,,,,,,,,,,,,,,,,,,,,,,,,,,,,,,,,,,,,,,,,,,,,,,,,,,,,,,,,,,,,,,,,,,,,,,,,,,,,,,,,,,,,,1395.3691,1395.3692,,,,,,,,,,,,,,,,,,,,,,,,,,,,,,,,,,,,,,,,,,,,,,,,,,,,,,,,,,,,,,,,,,,,,,,,,,,,,,,,,,,,,,,,,,,,,,,
,,,,,652d355292daf75ed7f323e6,6682b41eeb79ab8215dff63d,6682bae84a6bc3d0b4174125,30,WOMEN,"TURKISH, ENGLISH",2024-07-01_15h21.16.789,ABmemTask3,2023.2.3,Win32,60.24096386,,,,,,,,,,,,,,,,,,,,,,,,,,,,,,,,,,,,,,,,,,,,,,,,,,,,,,,,,,,,,,,,,,,,,,,,,,,,,,,,,,,,,,,,,,,,,,,,,,,,,,,,,,,1395.371,1395.3711,,,,,,,,,,,,,,,,,,,,,,,,,,,,,,,,,,,,,,,,,,,,,,,,,,,,,,,,,,,,,,,,,,,,,,,,,,,,,,,,,,,,,,,,,,,,,,,
,,,,,652d355292daf75ed7f323e6,6682b41eeb79ab8215dff63d,6682bae84a6bc3d0b4174125,30,WOMEN,"TURKISH, ENGLISH",2024-07-01_15h21.16.789,ABmemTask3,2023.2.3,Win32,60.24096386,,,,,,,,,,,,,,,,,,,,,,,,,,,,,,,,,,,,,,,,,,,,,,,,,,,,,,,,,,,,,,,,,,,,,,,,,,,,,,,,,,,,,,,,,,,,,,,,,,,,,,,,,,,1395.3736,1395.3736,,,,,,,,,,,,,,,,,,,,,,,,,,,,,,,,,,,,,,,,,,,,,,,,,,,,,,,,,,,,,,,,,,,,,,,,,,,,,,,,,,,,,,,,,,,,,,,
,,,,,652d355292daf75ed7f323e6,6682b41eeb79ab8215dff63d,6682bae84a6bc3d0b4174125,30,WOMEN,"TURKISH, ENGLISH",2024-07-01_15h21.16.789,ABmemTask3,2023.2.3,Win32,60.24096386,,,,,,,,,,,,,,,,,,,,,,,,,,,,,,,,,,,,,,,,,,,,,,,,,,,,,,,,,,,,,,,,,,,,,,,,,,,,,,,,,,,,,,,,,,,,,,,,,,,,,,,,,,,1395.3751,1395.3751,,,,,,,,,,,,,,,,,,,,,,,,,,,,,,,,,,,,,,,,,,,,,,,,,,,,,,,,,,,,,,,,,,,,,,,,,,,,,,,,,,,,,,,,,,,,,,,
,,,,,652d355292daf75ed7f323e6,6682b41eeb79ab8215dff63d,6682bae84a6bc3d0b4174125,30,WOMEN,"TURKISH, ENGLISH",2024-07-01_15h21.16.789,ABmemTask3,2023.2.3,Win32,60.24096386,,,,,,,,,,,,,,,,,,,,,,,,,,,,,,,,,,,,,,,,,,,,,,,,,,,,,,,,,,,,,,,,,,,,,,,,,,,,,,,,,,,,,,,,,,,,,,,,,,,,,,,,,,,1395.3765,1395.3765,,,,,,,,,,,,,,,,,,,,,,,,,,,,,,,,,,,,,,,,,,,,,,,,,,,,,,,,,,,,,,,,,,,,,,,,,,,,,,,,,,,,,,,,,,,,,,,
,,,,,652d355292daf75ed7f323e6,6682b41eeb79ab8215dff63d,6682bae84a6bc3d0b4174125,30,WOMEN,"TURKISH, ENGLISH",2024-07-01_15h21.16.789,ABmemTask3,2023.2.3,Win32,60.24096386,,,,,,,,,,,,,,,,,,,,,,,,,,,,,,,,,,,,,,,,,,,,,,,,,,,,,,,,,,,,,,,,,,,,,,,,,,,,,,,,,,,,,,,,,,,,,,,,,,,,,,,,,,,1395.3784,1395.3784,,,,,,,,,,,,,,,,,,,,,,,,,,,,,,,,,,,,,,,,,,,,,,,,,,,,,,,,,,,,,,,,,,,,,,,,,,,,,,,,,,,,,,,,,,,,,,,
,,,,,652d355292daf75ed7f323e6,6682b41eeb79ab8215dff63d,6682bae84a6bc3d0b4174125,30,WOMEN,"TURKISH, ENGLISH",2024-07-01_15h21.16.789,ABmemTask3,2023.2.3,Win32,60.24096386,,,,,,,,,,,,,,,,,,,,,,,,,,,,,,,,,,,,,,,,,,,,,,,,,,,,,,,,,,,,,,,,,,,,,,,,,,,,,,,,,,,,,,,,,,,,,,,,,,,,,,,,,,,1395.3798,1395.3799,,,,,,,,,,,,,,,,,,,,,,,,,,,,,,,,,,,,,,,,,,,,,,,,,,,,,,,,,,,,,,,,,,,,,,,,,,,,,,,,,,,,,,,,,,,,,,,
,,,,,652d355292daf75ed7f323e6,6682b41eeb79ab8215dff63d,6682bae84a6bc3d0b4174125,30,WOMEN,"TURKISH, ENGLISH",2024-07-01_15h21.16.789,ABmemTask3,2023.2.3,Win32,60.24096386,,,,,,,,,,,,,,,,,,,,,,,,,,,,,,,,,,,,,,,,,,,,,,,,,,,,,,,,,,,,,,,,,,,,,,,,,,,,,,,,,,,,,,,,,,,,,,,,,,,,,,,,,,,1395.3811,1395.3812,,,,,,,,,,,,,,,,,,,,,,,,,,,,,,,,,,,,,,,,,,,,,,,,,,,,,,,,,,,,,,,,,,,,,,,,,,,,,,,,,,,,,,,,,,,,,,,
,,,,,652d355292daf75ed7f323e6,6682b41eeb79ab8215dff63d,6682bae84a6bc3d0b4174125,30,WOMEN,"TURKISH, ENGLISH",2024-07-01_15h21.16.789,ABmemTask3,2023.2.3,Win32,60.24096386,,,,,,,,,,,,,,,,,,,,,,,,,,,,,,,,,,,,,,,,,,,,,,,,,,,,,,,,,,,,,,,,,,,,,,,,,,,,,,,,,,,,,,,,,,,,,,,,,,,,,,,,,,,1395.3826,1395.3826,,,,,,,,,,,,,,,,,,,,,,,,,,,,,,,,,,,,,,,,,,,,,,,,,,,,,,,,,,,,,,,,,,,,,,,,,,,,,,,,,,,,,,,,,,,,,,,
,,,,,652d355292daf75ed7f323e6,6682b41eeb79ab8215dff63d,6682bae84a6bc3d0b4174125,30,WOMEN,"TURKISH, ENGLISH",2024-07-01_15h21.16.789,ABmemTask3,2023.2.3,Win32,60.24096386,,,,,,,,,,,,,,,,,,,,,,,,,,,,,,,,,,,,,,,,,,,,,,,,,,,,,,,,,,,,,,,,,,,,,,,,,,,,,,,,,,,,,,,,,,,,,,,,,,,,,,,,,,,1395.3848,1395.3848,,,,,,,,,,,,,,,,,,,,,,,,,,,,,,,,,,,,,,,,,,,,,,,,,,,,,,,,,,,,,,,,,,,,,,,,,,,,,,,,,,,,,,,,,,,,,,,
,,,,,652d355292daf75ed7f323e6,6682b41eeb79ab8215dff63d,6682bae84a6bc3d0b4174125,30,WOMEN,"TURKISH, ENGLISH",2024-07-01_15h21.16.789,ABmemTask3,2023.2.3,Win32,60.24096386,,,,,,,,,,,,,,,,,,,,,,,,,,,,,,,,,,,,,,,,,,,,,,,,,,,,,,,,,,,,,,,,,,,,,,,,,,,,,,,,,,,,,,,,,,,,,,,,,,,,,,,,,,,1395.3863,1395.3863,,,,,,,,,,,,,,,,,,,,,,,,,,,,,,,,,,,,,,,,,,,,,,,,,,,,,,,,,,,,,,,,,,,,,,,,,,,,,,,,,,,,,,,,,,,,,,,
,,,,,652d355292daf75ed7f323e6,6682b41eeb79ab8215dff63d,6682bae84a6bc3d0b4174125,30,WOMEN,"TURKISH, ENGLISH",2024-07-01_15h21.16.789,ABmemTask3,2023.2.3,Win32,60.24096386,,,,,,,,,,,,,,,,,,,,,,,,,,,,,,,,,,,,,,,,,,,,,,,,,,,,,,,,,,,,,,,,,,,,,,,,,,,,,,,,,,,,,,,,,,,,,,,,,,,,,,,,,,,1395.3877,1395.3877,,,,,,,,,,,,,,,,,,,,,,,,,,,,,,,,,,,,,,,,,,,,,,,,,,,,,,,,,,,,,,,,,,,,,,,,,,,,,,,,,,,,,,,,,,,,,,,
,,,,,652d355292daf75ed7f323e6,6682b41eeb79ab8215dff63d,6682bae84a6bc3d0b4174125,30,WOMEN,"TURKISH, ENGLISH",2024-07-01_15h21.16.789,ABmemTask3,2023.2.3,Win32,60.24096386,,,,,,,,,,,,,,,,,,,,,,,,,,,,,,,,,,,,,,,,,,,,,,,,,,,,,,,,,,,,,,,,,,,,,,,,,,,,,,,,,,,,,,,,,,,,,,,,,,,,,,,,,,,1395.3892,1395.3892,,,,,,,,,,,,,,,,,,,,,,,,,,,,,,,,,,,,,,,,,,,,,,,,,,,,,,,,,,,,,,,,,,,,,,,,,,,,,,,,,,,,,,,,,,,,,,,
,,,,,652d355292daf75ed7f323e6,6682b41eeb79ab8215dff63d,6682bae84a6bc3d0b4174125,30,WOMEN,"TURKISH, ENGLISH",2024-07-01_15h21.16.789,ABmemTask3,2023.2.3,Win32,60.24096386,,,,,,,,,,,,,,,,,,,,,,,,,,,,,,,,,,,,,,,,,,,,,,,,,,,,,,,,,,,,,,,,,,,,,,,,,,,,,,,,,,,,,,,,,,,,,,,,,,,,,,,,,,,1395.3917,1395.3917,,,,,,,,,,,,,,,,,,,,,,,,,,,,,,,,,,,,,,,,,,,,,,,,,,,,,,,,,,,,,,,,,,,,,,,,,,,,,,,,,,,,,,,,,,,,,,,
,,,,,652d355292daf75ed7f323e6,6682b41eeb79ab8215dff63d,6682bae84a6bc3d0b4174125,30,WOMEN,"TURKISH, ENGLISH",2024-07-01_15h21.16.789,ABmemTask3,2023.2.3,Win32,60.24096386,,,,,,,,,,,,,,,,,,,,,,,,,,,,,,,,,,,,,,,,,,,,,,,,,,,,,,,,,,,,,,,,,,,,,,,,,,,,,,,,,,,,,,,,,,,,,,,,,,,,,,,,,,,1395.393,1395.3931,,,,,,,,,,,,,,,,,,,,,,,,,,,,,,,,,,,,,,,,,,,,,,,,,,,,,,,,,,,,,,,,,,,,,,,,,,,,,,,,,,,,,,,,,,,,,,,
,,,,,652d355292daf75ed7f323e6,6682b41eeb79ab8215dff63d,6682bae84a6bc3d0b4174125,30,WOMEN,"TURKISH, ENGLISH",2024-07-01_15h21.16.789,ABmemTask3,2023.2.3,Win32,60.24096386,,,,,,,,,,,,,,,,,,,,,,,,,,,,,,,,,,,,,,,,,,,,,,,,,,,,,,,,,,,,,,,,,,,,,,,,,,,,,,,,,,,,,,,,,,,,,,,,,,,,,,,,,,,,,,,,1395.394,1415.9082,space,20.482,,,,,,,,,,,,,,,,,,,,,,,,,,,,,,,,,,,,,,,,,,,,,,,,,,,,,,,,,,,,,,,,,,,,,,,,,,,,,,,,,,,,,,,,
,,,,,652d355292daf75ed7f323e6,6682b41eeb79ab8215dff63d,6682bae84a6bc3d0b4174125,30,WOMEN,"TURKISH, ENGLISH",2024-07-01_15h21.16.789,ABmemTask3,2023.2.3,Win32,60.24096386,,,,,,,,,,,,,,,,,,,,,,,,,,,,,,,,,1415.9195,602,1416.434,,,,,,,,,,,,,,,,,,,,,,,,,,0,,,,,,,,,prac_MEM,old,,,,,,,,,,,10,,,,,,,,,,,,,,,,,,,,,,,,,,,,,,,,,,,1416.4342,1429.8617,3,6,13.3959,,1429.8626,1430.839,0,0,0,4,1,5,1,pics/tongs01b.jpg,,,,,,,,,,,,,,,,,,,,,,,,,,,,,,,,,,,,,,,,,,,,,,,,,,,,,,,,,,,,,,,,,,,,,,,
,,,,,652d355292daf75ed7f323e6,6682b41eeb79ab8215dff63d,6682bae84a6bc3d0b4174125,30,WOMEN,"TURKISH, ENGLISH",2024-07-01_15h21.16.789,ABmemTask3,2023.2.3,Win32,60.24096386,,,,,,,,,,,,,,,,,,,,,,,,,,,,,,,,,1430.8492,602,1431.3386,,,,,,,,,,,,,,,,,,,,,,,,,,0,,,,,,,,,prac_MEM,old,,,,,,,,,,,10,,,,,,,,,,,,,,,,,,,,,,,,,,,,,,,,,,,1431.3388,1432.7797,6,6,1.4112,,1432.7798,1433.7835,0,1,1,3,1,4,1,pics/shorts01.jpg,,,,,,,,,,,,,,,,,,,,,,,,,,,,,,,,,,,,,,,,,,,,,,,,,,,,,,,,,,,,,,,,,,,,,,,
,,,,,652d355292daf75ed7f323e6,6682b41eeb79ab8215dff63d,6682bae84a6bc3d0b4174125,30,WOMEN,"TURKISH, ENGLISH",2024-07-01_15h21.16.789,ABmemTask3,2023.2.3,Win32,60.24096386,,,,,,,,,,,,,,,,,,,,,,,,,,,,,,,,,1433.7838,602,1434.2762,,,,,,,,,,,,,,,,,,,,,,,,,,0,,,,,,,,,prac_MEM,new,,,,,,,,,,,10,,,,,,,,,,,,,,,,,,,,,,,,,,,,,,,,,,,1434.2763,1440.6846,-3,6,6.3668,,1440.6855,1441.672,0,2,2,9,1,999,999,pics/moth.jpg,,,,,,,,,,,,,,,,,,,,,,,,,,,,,,,,,,,,,,,,,,,,,,,,,,,,,,,,,,,,,,,,,,,,,,,
,,,,,652d355292daf75ed7f323e6,6682b41eeb79ab8215dff63d,6682bae84a6bc3d0b4174125,30,WOMEN,"TURKISH, ENGLISH",2024-07-01_15h21.16.789,ABmemTask3,2023.2.3,Win32,60.24096386,,,,,,,,,,,,,,,,,,,,,,,,,,,,,,,,,1441.6812,602,1442.1764,,,,,,,,,,,,,,,,,,,,,,,,,,0,,,,,,,,,prac_MEM,new,,,,,,,,,,,10,,,,,,,,,,,,,,,,,,,,,,,,,,,,,,,,,,,1442.1765,1443.7993,0,1,1.5816,,1443.7995,1444.8058,0,3,3,7,1,999,999,pics/cherry01.jpg,,,,,,,,,,,,,,,,,,,,,,,,,,,,,,,,,,,,,,,,,,,,,,,,,,,,,,,,,,,,,,,,,,,,,,,
,,,,,652d355292daf75ed7f323e6,6682b41eeb79ab8215dff63d,6682bae84a6bc3d0b4174125,30,WOMEN,"TURKISH, ENGLISH",2024-07-01_15h21.16.789,ABmemTask3,2023.2.3,Win32,60.24096386,,,,,,,,,,,,,,,,,,,,,,,,,,,,,,,,,1444.8066,602,1445.2973,,,,,,,,,,,,,,,,,,,,,,,,,,0,,,,,,,,,prac_MEM,old,,,,,,,,,,,10,,,,,,,,,,,,,,,,,,,,,,,,,,,,,,,,,,,1445.2973,1446.2233,3,6,0.8883,,1446.2239,1447.2218,0,4,4,0,1,1,1,pics/tree.jpg,,,,,,,,,,,,,,,,,,,,,,,,,,,,,,,,,,,,,,,,,,,,,,,,,,,,,,,,,,,,,,,,,,,,,,,
,,,,,652d355292daf75ed7f323e6,6682b41eeb79ab8215dff63d,6682bae84a6bc3d0b4174125,30,WOMEN,"TURKISH, ENGLISH",2024-07-01_15h21.16.789,ABmemTask3,2023.2.3,Win32,60.24096386,,,,,,,,,,,,,,,,,,,,,,,,,,,,,,,,,1447.2228,602,1447.705,,,,,,,,,,,,,,,,,,,,,,,,,,0,,,,,,,,,prac_MEM,old,,,,,,,,,,,10,,,,,,,,,,,,,,,,,,,,,,,,,,,,,,,,,,,1447.7051,1448.8473,6,6,1.1127,,1448.8475,1449.8466,0,5,5,6,1,12,5,pics/humanskull.jpg,,,,,,,,,,,,,,,,,,,,,,,,,,,,,,,,,,,,,,,,,,,,,,,,,,,,,,,,,,,,,,,,,,,,,,,
,,,,,652d355292daf75ed7f323e6,6682b41eeb79ab8215dff63d,6682bae84a6bc3d0b4174125,30,WOMEN,"TURKISH, ENGLISH",2024-07-01_15h21.16.789,ABmemTask3,2023.2.3,Win32,60.24096386,,,,,,,,,,,,,,,,,,,,,,,,,,,,,,,,,1449.8473,602,1450.3552,,,,,,,,,,,,,,,,,,,,,,,,,,0,,,,,,,,,prac_MEM,new,,,,,,,,,,,10,,,,,,,,,,,,,,,,,,,,,,,,,,,,,,,,,,,1450.3554,1452.0945,8,2,1.7095,,1452.0953,1453.0834,0,6,6,8,1,999,999,pics/thread02.jpg,,,,,,,,,,,,,,,,,,,,,,,,,,,,,,,,,,,,,,,,,,,,,,,,,,,,,,,,,,,,,,,,,,,,,,,
,,,,,652d355292daf75ed7f323e6,6682b41eeb79ab8215dff63d,6682bae84a6bc3d0b4174125,30,WOMEN,"TURKISH, ENGLISH",2024-07-01_15h21.16.789,ABmemTask3,2023.2.3,Win32,60.24096386,,,,,,,,,,,,,,,,,,,,,,,,,,,,,,,,,1453.0837,602,1453.5797,,,,,,,,,,,,,,,,,,,,,,,,,,0,,,,,,,,,prac_MEM,old,,,,,,,,,,,10,,,,,,,,,,,,,,,,,,,,,,,,,,,,,,,,,,,1453.5798,1454.5612,11,6,0.9428,,1454.5615,1455.55,0,7,7,5,1,11,5,pics/grater01a.jpg,,,,,,,,,,,,,,,,,,,,,,,,,,,,,,,,,,,,,,,,,,,,,,,,,,,,,,,,,,,,,,,,,,,,,,,
,,,,,652d355292daf75ed7f323e6,6682b41eeb79ab8215dff63d,6682bae84a6bc3d0b4174125,30,WOMEN,"TURKISH, ENGLISH",2024-07-01_15h21.16.789,ABmemTask3,2023.2.3,Win32,60.24096386,,,,,,,,,,,,,,,,,,,,,,,,,,,,,,,,,1455.5503,602,1456.0469,,,,,,,,,,,,,,,,,,,,,,,,,,0,,,,,,,,,prac_MEM,old,,,,,,,,,,,10,,,,,,,,,,,,,,,,,,,,,,,,,,,,,,,,,,,1456.0469,1457.5966,9,2,1.5117,,1457.5968,1458.589,0,8,8,2,1,3,1,pics/sturgeon.jpg,,,,,,,,,,,,,,,,,,,,,,,,,,,,,,,,,,,,,,,,,,,,,,,,,,,,,,,,,,,,,,,,,,,,,,,
,,,,,652d355292daf75ed7f323e6,6682b41eeb79ab8215dff63d,6682bae84a6bc3d0b4174125,30,WOMEN,"TURKISH, ENGLISH",2024-07-01_15h21.16.789,ABmemTask3,2023.2.3,Win32,60.24096386,,,,,,,,,,,,,,,,,,,,,,,,,,,,,,,,,1458.59,602,1459.0846,,,,,,,,,,,,,,,,,,,,,,,,,,0,,,,,,,,,prac_MEM,old,,,,,,,,,,,10,,,,,,,,,,,,,,,,,,,,,,,,,,,,,,,,,,,1459.0846,1460.0104,12,6,0.8918,,1460.0107,1461.0084,0,9,9,1,1,2,1,pics/pants.jpg,,,,,,,,,,,,,,,,,,,,,,,,,,,,,,,,,,,,,,,,,,,,,,,,,,,,,,,,,,,,,,,,,,,,,,,
,,,,,652d355292daf75ed7f323e6,6682b41eeb79ab8215dff63d,6682bae84a6bc3d0b4174125,30,WOMEN,"TURKISH, ENGLISH",2024-07-01_15h21.16.789,ABmemTask3,2023.2.3,Win32,60.24096386,,,,,,,,,,,,,,,,,,,,,,,,,,,,,,,,,1461.009,602,1461.5009,,,,,,,,,,,,,,,,,,,,,,,,,,0,,,,,,,,,prac_MEM,new,,,,,,,,,,,10,,,,,,,,,,,,,,,,,,,,,,,,,,,,,,,,,,,1461.5009,1463.8708,13,3,2.3378,,1463.8714,1464.8688,0,10,10,10,1,999,999,pics/tomato01.jpg,,,,,,,,,,,,,,,,,,,,,,,,,,,,,,,,,,,,,,,,,,,,,,,,,,,,,,,,,,,,,,,,,,,,,,,
,,,,,652d355292daf75ed7f323e6,6682b41eeb79ab8215dff63d,6682bae84a6bc3d0b4174125,30,WOMEN,"TURKISH, ENGLISH",2024-07-01_15h21.16.789,ABmemTask3,2023.2.3,Win32,60.24096386,,,,,,,,,,,,,,,,,,,,,,,,,,,,,,,,,,,,,,,,,,,,,,,,,,,,,,,,,,,,,,,,,,,,,,,,,,,,,,,,,,,,,,,,,,,,,,,,,,,,,,,,,,,,,,,,,,,,,,,,,,,,,,,,,,,,,1464.8695,1467.3438,1467.3439,1467.3442,,,,,,,,,,,,,,,,,,,,,,,,,,,,,,,,,,,,,,,,,,,,,,,,,,,,,,,,,,,,,,,,,,,
,,,,,652d355292daf75ed7f323e6,6682b41eeb79ab8215dff63d,6682bae84a6bc3d0b4174125,30,WOMEN,"TURKISH, ENGLISH",2024-07-01_15h21.16.789,ABmemTask3,2023.2.3,Win32,60.24096386,,,,,,,,,,,,,,,,,,space,36.648,,,,,,,,,,,,,,,,,,,,,,,,,,,,,,,,,,,,,,,,,,,,,,,,,,,,,,,,,,,,,,,,,,,,,,,,,,,,,,,,,,,,,,,,,,,,,,,,,,,,,,,,,,,,,,,,,,,,,,1467.3443,1504.0424,,,,,,,,,,,,,,,,,,,,,,,,,,,,,,,,,,,,,,,,,,,,,,,,,,,,,,,,,,,,,,,,,
,,,,,652d355292daf75ed7f323e6,6682b41eeb79ab8215dff63d,6682bae84a6bc3d0b4174125,30,WOMEN,"TURKISH, ENGLISH",2024-07-01_15h21.16.789,ABmemTask3,2023.2.3,Win32,60.24096386,,,,,,,,,,,,,,,,,,,,,,,,,,,,,,,,,,,,,,,,,,,,,,,,,,,,,,,,,,,,,,,,,,,,,,,,,,,,,,,,,,,,,,,,,,,,,,,,,,,,,,,,,,,,,,,,,,,,,,,,,,,,,,,,,,,,,,,,,,,1504.0426,1521.9734,space,17.8848,,,,,,,,,,,,,,,,,,,,,,,,,,,,,,,,,,,,,,,,,,,,,,,,,,,,,,,,,,,,,
,,,,,652d355292daf75ed7f323e6,6682b41eeb79ab8215dff63d,6682bae84a6bc3d0b4174125,30,WOMEN,"TURKISH, ENGLISH",2024-07-01_15h21.16.789,ABmemTask3,2023.2.3,Win32,60.24096386,,,,,,,,,,,,,,,,,,,,,,,,,,,,,,,1521.9841,1522.9715,1522.9717,7,1523.4545,1524.969,0.0018,1525.112,0.1438,0.1502,0.1499,0.1596,0.1569,0.1502,0.1496,0.1498,0.1503,0.1527,,1525.1125,1525.8795,right,0.7467,,1525.8796,1527.9772,left,2.0614,,2,0,2,1527.9772,1528.9765,,,,,,1_AB,L1_T1P_T2A,1,1,0,6,7,5,4,11,lamp,Did you see the lamp,0.12,0,resources/,pics/chainsaw.jpg,pics/fanblades.jpg,pics/salmon.jpg,pics/proboscismonkey.jpg,pics/boot02b.jpg,pics/lamp04a.jpg,pics/blender.jpg,pics/sink.jpg,pics/pencil01.jpg,pics/floortile02.jpg,pics/shovel01.jpg,blankImage,blankImage,blankImage,blankImage,blankImage,blankImage,lamp04a,37,,,,,,,,,,,,,,,,,,,,,,,,,,,,,,,,,,,,,,,,,0,0,0,36,1,,,,,,,,,,,,,,,,,,,,,,,,,,,,,,,,,,,,,,,,,,,,,,,,,,,,,,,
,,,,,652d355292daf75ed7f323e6,6682b41eeb79ab8215dff63d,6682bae84a6bc3d0b4174125,30,WOMEN,"TURKISH, ENGLISH",2024-07-01_15h21.16.789,ABmemTask3,2023.2.3,Win32,60.24096386,,,,,,,,,,,,,,,,,,,,,,,,,,,,,,,1528.9865,1529.9876,1529.9877,7,1530.4882,1531.8498,0.0015,1531.9993,0.1443,0.1459,0.1521,0.1514,0.15,0.1597,0.1569,0.1493,0.1509,,,1531.9995,1532.7222,right,0.689,,1532.7223,1532.998,right,0.2466,,4,0,4,1532.9981,1533.9959,,,,,,1_AB,L1_T1P_T2P,1,1,1,5,6,4,4,10,thermometer,Did you see the thermometer,0.12,0,resources/,pics/triangle.jpg,pics/shovel01.jpg,pics/mummy.jpg,pics/noparkingsign.jpg,pics/thermometer02b.jpg,pics/stapler04.jpg,pics/piggybank.jpg,pics/golfball.jpg,pics/laptop01a.jpg,pics/aquarium.jpg,blankImage,blankImage,blankImage,blankImage,blankImage,blankImage,blankImage,thermometer02b,8,,,,,,,,,,,,,,,,,,,,,,,,,,,,,,,,,,,,,,,,,0,1,1,7,1,,,,,,,,,,,,,,,,,,,,,,,,,,,,,,,,,,,,,,,,,,,,,,,,,,,,,,,
,,,,,652d355292daf75ed7f323e6,6682b41eeb79ab8215dff63d,6682bae84a6bc3d0b4174125,30,WOMEN,"TURKISH, ENGLISH",2024-07-01_15h21.16.789,ABmemTask3,2023.2.3,Win32,60.24096386,,,,,,,,,,,,,,,,,,,,,,,,,,,,,,,1533.9966,1535.0043,1535.0045,7,1535.4998,1537.1663,0.0008,1537.3161,0.1642,0.1516,0.1501,0.1522,0.1475,0.1612,0.1458,0.1395,0.1538,0.1499,0.15,1537.3161,1537.9716,right,0.6219,,1537.9717,1538.2355,right,0.236,,6,0,6,1538.2357,1539.2325,,,,,,1_AB,L1_T1P_T2P,1,1,1,6,7,5,5,12,Bear,Did you see the Bear,0.12,0,resources/,pics/necklace.jpg,pics/hen.jpg,pics/dromedary.jpg,pics/piggybank.jpg,pics/sandbarshark.jpg,pics/grizzly.jpg,pics/stapler12.jpg,pics/bowlingpin.jpg,pics/christmaslights.jpg,pics/icecube01.jpg,pics/match.jpg,pics/lock03a.jpg,blankImage,blankImage,blankImage,blankImage,blankImage,grizzly,18,,,,,,,,,,,,,,,,,,,,,,,,,,,,,,,,,,,,,,,,,0,2,2,17,1,,,,,,,,,,,,,,,,,,,,,,,,,,,,,,,,,,,,,,,,,,,,,,,,,,,,,,,
,,,,,652d355292daf75ed7f323e6,6682b41eeb79ab8215dff63d,6682bae84a6bc3d0b4174125,30,WOMEN,"TURKISH, ENGLISH",2024-07-01_15h21.16.789,ABmemTask3,2023.2.3,Win32,60.24096386,,,,,,,,,,,,,,,,,,,,,,,,,,,,,,,1539.2329,1540.2383,1540.2383,7,1540.7262,1542.3818,0.001,1542.5328,0.1493,0.1566,0.1491,0.1511,0.1498,0.1501,0.1501,0.1498,0.1501,0.15,0.1489,1542.5328,1543.0486,right,0.4824,,1543.0488,1543.3186,right,0.247,,8,0,8,1543.3187,1544.3096,,,,,,1_AB,L1_T1P_T2P,1,1,1,6,7,5,5,12,rope,Did you see the rope,0.12,0,resources/,pics/toiletpaper01a.jpg,pics/sewingmachine01a.jpg,pics/birdhouse.jpg,pics/sealion.jpg,pics/safetypin.jpg,pics/rope03.jpg,pics/stapler04.jpg,pics/binder03b.jpg,pics/ashtray01.jpg,pics/sandbarshark.jpg,pics/chainsaw.jpg,pics/nutcracker01.jpg,blankImage,blankImage,blankImage,blankImage,blankImage,rope03,4,,,,,,,,,,,,,,,,,,,,,,,,,,,,,,,,,,,,,,,,,0,3,3,3,1,,,,,,,,,,,,,,,,,,,,,,,,,,,,,,,,,,,,,,,,,,,,,,,,,,,,,,,
,,,,,652d355292daf75ed7f323e6,6682b41eeb79ab8215dff63d,6682bae84a6bc3d0b4174125,30,WOMEN,"TURKISH, ENGLISH",2024-07-01_15h21.16.789,ABmemTask3,2023.2.3,Win32,60.24096386,,,,,,,,,,,,,,,,,,,,,,,,,,,,,,,1544.3103,1545.3174,1545.3174,7,1545.8205,1547.026,0.0014,1547.1825,0.1446,0.1499,0.1554,0.1458,0.1465,0.1508,0.1514,0.16,,,,1547.1825,1547.9626,right,0.7463,,1547.9627,1548.3006,left,0.3017,,8,0,10,1548.3007,1549.3046,,,,,,1_AB,L1_T1P_T2P,1,1,1,5,6,4,3,9,paint brush,Did you see the paint brush,0.12,0,resources/,pics/nutcracker01.jpg,pics/piggybank.jpg,pics/spiderweb.jpg,pics/table01.jpg,pics/paintbrush01.jpg,pics/stapler09.jpg,pics/hose.jpg,pics/cannon.jpg,pics/mummy.jpg,blankImage,blankImage,blankImage,blankImage,blankImage,blankImage,blankImage,blankImage,paintbrush01,20,,,,,,,,,,,,,,,,,,,,,,,,,,,,,,,,,,,,,,,,,0,4,4,19,1,,,,,,,,,,,,,,,,,,,,,,,,,,,,,,,,,,,,,,,,,,,,,,,,,,,,,,,
,,,,,652d355292daf75ed7f323e6,6682b41eeb79ab8215dff63d,6682bae84a6bc3d0b4174125,30,WOMEN,"TURKISH, ENGLISH",2024-07-01_15h21.16.789,ABmemTask3,2023.2.3,Win32,60.24096386,,,,,,,,,,,,,,,,,,,,,,,,,,,,,,,1549.3056,1550.3177,1550.3178,7,1550.8076,1552.6139,0.0013,1552.7658,0.1457,0.1453,0.1498,0.1501,0.1504,0.1495,0.1503,0.1501,0.1602,0.1564,0.1493,1552.7659,1553.2479,right,0.4481,,1553.248,1553.4842,right,0.2145,,10,0,12,1553.4843,1554.4782,,,,,,1_AB,L5_T1P_T2P,5,1,1,4,9,3,4,13,Forklift,Did you see the Forklift,0.12,0,resources/,pics/dustpan.jpg,pics/table01.jpg,pics/sink.jpg,pics/forklift.jpg,pics/dromedary.jpg,pics/proboscismonkey.jpg,pics/cymbal.jpg,pics/shovel01.jpg,pics/stapler10.jpg,pics/backpack01a.jpg,pics/binder03b.jpg,pics/banjo.jpg,pics/candleholder01.jpg,blankImage,blankImage,blankImage,blankImage,forklift,47,0.1483,,,,,,,,,,,,,,,,,,,,,,,,,,,,,,,,,,,,,,,,0,5,5,46,1,,,,,,,,,,,,,,,,,,,,,,,,,,,,,,,,,,,,,,,,,,,,,,,,,,,,,,,
,,,,,652d355292daf75ed7f323e6,6682b41eeb79ab8215dff63d,6682bae84a6bc3d0b4174125,30,WOMEN,"TURKISH, ENGLISH",2024-07-01_15h21.16.789,ABmemTask3,2023.2.3,Win32,60.24096386,,,,,,,,,,,,,,,,,,,,,,,,,,,,,,,1554.479,1555.4696,1555.4696,7,1555.9585,1557.1828,0.0013,1557.3327,0.1559,0.167,0.1393,0.1444,0.1597,0.1568,0.1501,0.15,,,,1557.3327,1557.9098,right,0.5434,,1557.9099,1558.1373,right,0.1879,,12,0,14,1558.1374,1559.1256,,,,,,1_AB,L1_T1P_T2P,1,1,1,4,5,3,4,9,antenna,Did you see the antenna,0.12,0,resources/,pics/microscope.jpg,pics/spoon01.jpg,pics/dromedary.jpg,pics/antenna.jpg,pics/stapler03.jpg,pics/hen.jpg,pics/leaf02a.jpg,pics/candle01.jpg,pics/sealion.jpg,blankImage,blankImage,blankImage,blankImage,blankImage,blankImage,blankImage,blankImage,antenna,9,,,,,,,,,,,,,,,,,,,,,,,,,,,,,,,,,,,,,,,,,0,6,6,8,1,,,,,,,,,,,,,,,,,,,,,,,,,,,,,,,,,,,,,,,,,,,,,,,,,,,,,,,
,,,,,652d355292daf75ed7f323e6,6682b41eeb79ab8215dff63d,6682bae84a6bc3d0b4174125,30,WOMEN,"TURKISH, ENGLISH",2024-07-01_15h21.16.789,ABmemTask3,2023.2.3,Win32,60.24096386,,,,,,,,,,,,,,,,,,,,,,,,,,,,,,,1559.1264,1560.1289,1560.1289,7,1560.6285,1562.1495,0.0013,1562.2991,0.1582,0.16,0.1516,0.1511,0.149,0.1492,0.1507,0.1508,0.1492,0.1501,,1562.2992,1562.827,right,0.4942,,1562.8271,1563.271,left,0.4215,,12,0,16,1563.271,1564.2786,,,,,,1_AB,L1_T1P_T2P,1,1,1,7,8,6,3,11,pliers,Did you see the pliers,0.12,0,resources/,pics/mummy.jpg,pics/binder03b.jpg,pics/bowtie.jpg,pics/toiletpaper01a.jpg,pics/football.jpg,pics/blender.jpg,pics/needlenosepliers01.jpg,pics/stapler13.jpg,pics/zebra.jpg,pics/hammerheadshark.jpg,pics/sealion.jpg,blankImage,blankImage,blankImage,blankImage,blankImage,blankImage,needlenosepliers01,6,,,,,,,,,,,,,,,,,,,,,,,,,,,,,,,,,,,,,,,,,0,7,7,5,1,,,,,,,,,,,,,,,,,,,,,,,,,,,,,,,,,,,,,,,,,,,,,,,,,,,,,,,
,,,,,652d355292daf75ed7f323e6,6682b41eeb79ab8215dff63d,6682bae84a6bc3d0b4174125,30,WOMEN,"TURKISH, ENGLISH",2024-07-01_15h21.16.789,ABmemTask3,2023.2.3,Win32,60.24096386,,,,,,,,,,,,,,,,,,,,,,,,,,,,,,,1564.2794,1565.2547,1565.2549,7,1565.7547,1566.9492,0.0015,1567.0989,0.1457,0.1477,0.1502,0.1497,0.15,0.1471,0.1534,0.1494,,,,1567.099,1567.7158,right,0.5839,,1567.7158,1568.0676,left,0.3189,,12,0,18,1568.0677,1569.0537,,,,,,1_AB,L1_T1P_T2P,1,1,1,5,6,4,3,9,cabbage,Did you see the cabbage,0.12,0,resources/,pics/match.jpg,pics/icecube01.jpg,pics/noparkingsign.jpg,pics/christmaslights.jpg,pics/cabbage.jpg,pics/stapler03a.jpg,pics/carrot01.jpg,pics/dustpan.jpg,pics/cannon.jpg,blankImage,blankImage,blankImage,blankImage,blankImage,blankImage,blankImage,blankImage,cabbage,14,,,,,,,,,,,,,,,,,,,,,,,,,,,,,,,,,,,,,,,,,0,8,8,13,1,,,,,,,,,,,,,,,,,,,,,,,,,,,,,,,,,,,,,,,,,,,,,,,,,,,,,,,
,,,,,652d355292daf75ed7f323e6,6682b41eeb79ab8215dff63d,6682bae84a6bc3d0b4174125,30,WOMEN,"TURKISH, ENGLISH",2024-07-01_15h21.16.789,ABmemTask3,2023.2.3,Win32,60.24096386,,,,,,,,,,,,,,,,,,,,,,,,,,,,,,,1569.0546,1570.0618,1570.062,7,1570.5706,1572.8327,0.0012,1572.9825,0.1445,0.1501,0.1499,0.1503,0.1496,0.1599,0.1578,0.1491,0.15,0.15,0.1506,1572.9826,1573.4806,right,0.4646,,1573.4807,1573.9804,left,0.4791,,14,0,20,1573.9804,1574.9753,,,,,,1_AB,L5_T1P_T2A,5,1,0,7,12,6,4,16,boat,Did you see the boat,0.12,0,resources/,pics/butterfly.jpg,pics/onion.jpg,pics/hose.jpg,pics/ball02.jpg,pics/ashtray01.jpg,pics/bowtie.jpg,pics/boat.jpg,pics/seaturtle.jpg,pics/blender.jpg,pics/zebra.jpg,pics/pictureframe04.jpg,pics/shovel01.jpg,pics/spoon01.jpg,pics/peanut01.jpg,pics/nutcracker01.jpg,pics/aquarium.jpg,blankImage,boat,60,0.1459,0.1466,0.1569,,,,,,,,,,,,,,,,,,,,,,,,,,,,,,,,,,,,,,0,9,9,59,1,0.1501,,,,,,,,,,,,,,,,,,,,,,,,,,,,,,,,,,,,,,,,,,,,,,,,,,,,,,
,,,,,652d355292daf75ed7f323e6,6682b41eeb79ab8215dff63d,6682bae84a6bc3d0b4174125,30,WOMEN,"TURKISH, ENGLISH",2024-07-01_15h21.16.789,ABmemTask3,2023.2.3,Win32,60.24096386,,,,,,,,,,,,,,,,,,,,,,,,,,,,,,,1574.9761,1575.954,1575.9541,7,1576.4481,1577.9545,0.0009,1578.0985,0.1473,0.1464,0.1567,0.1501,0.15,0.1501,0.1499,0.1501,0.1497,0.1555,,1578.0986,1578.8159,right,0.6838,,1578.816,1579.1384,left,0.3007,,16,0,22,1579.1384,1580.1202,,,,,,1_AB,L1_T1P_T2A,1,1,0,7,8,6,3,11,eggplant,Did you see the eggplant,0.12,0,resources/,pics/salmon.jpg,pics/fanblades.jpg,pics/hammerheadshark.jpg,pics/wheel01.jpg,pics/snowshoe.jpg,pics/birdhouse.jpg,pics/eggplant.jpg,pics/spiderweb.jpg,pics/zebra.jpg,pics/pencilsharpener02a.jpg,pics/backpack01a.jpg,blankImage,blankImage,blankImage,blankImage,blankImage,blankImage,eggplant,32,,,,,,,,,,,,,,,,,,,,,,,,,,,,,,,,,,,,,,,,,0,10,10,31,1,,,,,,,,,,,,,,,,,,,,,,,,,,,,,,,,,,,,,,,,,,,,,,,,,,,,,,,
,,,,,652d355292daf75ed7f323e6,6682b41eeb79ab8215dff63d,6682bae84a6bc3d0b4174125,30,WOMEN,"TURKISH, ENGLISH",2024-07-01_15h21.16.789,ABmemTask3,2023.2.3,Win32,60.24096386,,,,,,,,,,,,,,,,,,,,,,,,,,,,,,,1580.1212,1581.1256,1581.1258,7,1581.6152,1583.0997,0.0008,1583.2489,0.1391,0.1449,0.1551,0.1447,0.1496,0.1558,0.1428,0.1515,0.1501,0.1502,,1583.2489,1584.3826,left,1.1007,,1584.3827,1584.699,right,0.2837,,18,0,24,1584.699,1585.6953,,,,,,1_AB,L1_T1A_T2P,1,0,1,7,8,6,3,11,turkey,Did you see the turkey,0.12,0,resources/,pics/proboscismonkey.jpg,pics/blender.jpg,pics/sealion.jpg,pics/snowshoe.jpg,pics/carrot01.jpg,pics/microscope.jpg,pics/piggybank.jpg,pics/stapler12.jpg,pics/peanut01.jpg,pics/dustpan.jpg,pics/footballhelmet.jpg,blankImage,blankImage,blankImage,blankImage,blankImage,blankImage,turkey,26,,,,,,,,,,,,,,,,,,,,,,,,,,,,,,,,,,,,,,,,,0,11,11,25,1,,,,,,,,,,,,,,,,,,,,,,,,,,,,,,,,,,,,,,,,,,,,,,,,,,,,,,,
,,,,,652d355292daf75ed7f323e6,6682b41eeb79ab8215dff63d,6682bae84a6bc3d0b4174125,30,WOMEN,"TURKISH, ENGLISH",2024-07-01_15h21.16.789,ABmemTask3,2023.2.3,Win32,60.24096386,,,,,,,,,,,,,,,,,,,,,,,,,,,,,,,1585.6961,1586.684,1586.684,7,1587.1866,1588.9992,0.0016,1589.1489,0.1432,0.1515,0.15,0.1499,0.1499,0.1501,0.15,0.15,0.1651,0.1516,0.15,1589.1489,1590.0489,left,0.8668,,1590.049,1591.0937,left,1.0227,,18,0,26,1591.0938,1592.0959,,,,,,1_AB,L1_T1A_T2P,1,0,1,7,8,6,5,13,Basketball,Did you see the Basketball,0.12,0,resources/,pics/cork02.jpg,pics/table01.jpg,pics/christmaslights.jpg,pics/nutcracker01.jpg,pics/golfball.jpg,pics/hammerheadshark.jpg,pics/seaturtle.jpg,pics/stapler04b.jpg,pics/lock03a.jpg,pics/snowshoe.jpg,pics/sewingmachine01a.jpg,pics/peach01.jpg,pics/hose.jpg,blankImage,blankImage,blankImage,blankImage,basketball01,24,0.15,,,,,,,,,,,,,,,,,,,,,,,,,,,,,,,,,,,,,,,,0,12,12,23,1,,,,,,,,,,,,,,,,,,,,,,,,,,,,,,,,,,,,,,,,,,,,,,,,,,,,,,,
,,,,,652d355292daf75ed7f323e6,6682b41eeb79ab8215dff63d,6682bae84a6bc3d0b4174125,30,WOMEN,"TURKISH, ENGLISH",2024-07-01_15h21.16.789,ABmemTask3,2023.2.3,Win32,60.24096386,,,,,,,,,,,,,,,,,,,,,,,,,,,,,,,1592.0965,1593.0878,1593.088,7,1593.5771,1595.0989,0.0014,1595.2489,0.1538,0.1481,0.1522,0.1507,0.1494,0.15,0.1555,0.1595,0.1572,0.1443,,1595.2489,1595.804,right,0.5213,,1595.804,1596.2961,right,0.4637,,20,0,28,1596.2962,1597.2983,,,,,,1_AB,L1_T1P_T2P,1,1,1,7,8,6,3,11,bird,Did you see the bird,0.12,0,resources/,pics/sealion.jpg,pics/backpack01a.jpg,pics/hose.jpg,pics/table01.jpg,pics/wheel01.jpg,pics/seaturtle.jpg,pics/americangoldfinch.jpg,pics/stapler08.jpg,pics/siamesecat.jpg,pics/hammerheadshark.jpg,pics/ashtray01.jpg,blankImage,blankImage,blankImage,blankImage,blankImage,blankImage,americangoldfinch,23,,,,,,,,,,,,,,,,,,,,,,,,,,,,,,,,,,,,,,,,,0,13,13,22,1,,,,,,,,,,,,,,,,,,,,,,,,,,,,,,,,,,,,,,,,,,,,,,,,,,,,,,,
,,,,,652d355292daf75ed7f323e6,6682b41eeb79ab8215dff63d,6682bae84a6bc3d0b4174125,30,WOMEN,"TURKISH, ENGLISH",2024-07-01_15h21.16.789,ABmemTask3,2023.2.3,Win32,60.24096386,,,,,,,,,,,,,,,,,,,,,,,,,,,,,,,1597.2987,1598.2954,1598.2956,7,1598.7874,1600.918,0.0014,1601.0669,0.1447,0.1544,0.1594,0.152,0.15,0.1507,0.1458,0.1538,0.1496,0.1651,0.1516,1601.0671,1601.6747,right,0.5732,,1601.6748,1602.0379,left,0.3375,,20,0,30,1602.038,1603.0337,,,,,,1_AB,L5_T1P_T2P,5,1,1,5,10,4,5,15,ribbon,Did you see the ribbon,0.12,0,resources/,pics/giraffe.jpg,pics/boot02b.jpg,pics/cymbal.jpg,pics/leaf02a.jpg,pics/ribbon04.jpg,pics/lightswitch01.jpg,pics/necklace.jpg,pics/calendar.jpg,pics/kangaroo.jpg,pics/stapler12.jpg,pics/hose.jpg,pics/carrot01.jpg,pics/match.jpg,pics/sink.jpg,pics/candleholder01.jpg,blankImage,blankImage,ribbon04,53,0.1501,0.1502,0.1522,,,,,,,,,,,,,,,,,,,,,,,,,,,,,,,,,,,,,,0,14,14,52,1,,,,,,,,,,,,,,,,,,,,,,,,,,,,,,,,,,,,,,,,,,,,,,,,,,,,,,,
,,,,,652d355292daf75ed7f323e6,6682b41eeb79ab8215dff63d,6682bae84a6bc3d0b4174125,30,WOMEN,"TURKISH, ENGLISH",2024-07-01_15h21.16.789,ABmemTask3,2023.2.3,Win32,60.24096386,,,,,,,,,,,,,,,,,,,,,,,,,,,,,,,1603.0346,1604.026,1604.026,7,1604.5239,1606.1822,0.001,1606.3372,0.1466,0.1443,0.15,0.1653,0.1515,0.1502,0.146,0.1465,0.1572,0.15,0.15,1606.3373,1606.9298,right,0.5641,,1606.9298,1607.1787,right,0.2283,,22,0,32,1607.1788,1608.1869,,,,,,1_AB,L1_T1P_T2P,1,1,1,7,8,6,4,12,hammer,Did you see the hammer,0.12,0,resources/,pics/microscope.jpg,pics/blender.jpg,pics/dustpan.jpg,pics/snowshoe.jpg,pics/mummy.jpg,pics/bowtie.jpg,pics/hammer01.jpg,pics/stapler04b.jpg,pics/seaturtle.jpg,pics/candle01.jpg,pics/necklace.jpg,pics/cannon.jpg,blankImage,blankImage,blankImage,blankImage,blankImage,hammer01,21,,,,,,,,,,,,,,,,,,,,,,,,,,,,,,,,,,,,,,,,,0,15,15,20,1,,,,,,,,,,,,,,,,,,,,,,,,,,,,,,,,,,,,,,,,,,,,,,,,,,,,,,,
,,,,,652d355292daf75ed7f323e6,6682b41eeb79ab8215dff63d,6682bae84a6bc3d0b4174125,30,WOMEN,"TURKISH, ENGLISH",2024-07-01_15h21.16.789,ABmemTask3,2023.2.3,Win32,60.24096386,,,,,,,,,,,,,,,,,,,,,,,,,,,,,,,1608.1877,1609.1924,1609.1925,7,1609.6826,1611.6421,0.0016,1611.7989,0.1483,0.1502,0.1499,0.15,0.1501,0.1513,0.1636,0.1515,0.1499,0.1504,0.1496,1611.799,1612.6094,right,0.777,,1612.6095,1613.0142,left,0.3658,,24,0,34,1613.0142,1614.0127,,,,,,1_AB,L5_T1P_T2A,5,1,0,6,11,5,3,14,Kiwi,Did you see the Kiwi,0.12,0,resources/,pics/candleholder01.jpg,pics/kangaroo.jpg,pics/banjo.jpg,pics/binoculars01b.jpg,pics/microscope.jpg,pics/kiwi03.jpg,pics/bowtie.jpg,pics/peanut01.jpg,pics/backpack01a.jpg,pics/zebra.jpg,pics/toiletpaper01a.jpg,pics/hen.jpg,pics/spoon01.jpg,pics/calendar.jpg,blankImage,blankImage,blankImage,kiwi03,59,0.1469,0.1465,,,,,,,,,,,,,,,,,,,,,,,,,,,,,,,,,,,,,,,0,16,16,58,1,,,,,,,,,,,,,,,,,,,,,,,,,,,,,,,,,,,,,,,,,,,,,,,,,,,,,,,
,,,,,652d355292daf75ed7f323e6,6682b41eeb79ab8215dff63d,6682bae84a6bc3d0b4174125,30,WOMEN,"TURKISH, ENGLISH",2024-07-01_15h21.16.789,ABmemTask3,2023.2.3,Win32,60.24096386,,,,,,,,,,,,,,,,,,,,,,,,,,,,,,,1614.0135,1615.0164,1615.0165,7,1615.5075,1616.7488,0.0012,1616.8985,0.1576,0.1498,0.1499,0.1499,0.1602,0.1564,0.1651,0.1514,,,,1616.8986,1617.765,right,0.8331,,1617.7651,1618.1266,left,0.3283,,26,0,36,1618.1267,1619.1207,,,,,,1_AB,L1_T1P_T2A,1,1,0,4,5,3,4,9,blueberry,Did you see the blueberry,0.12,0,resources/,pics/sealion.jpg,pics/piggybank.jpg,pics/sink.jpg,pics/blueberry01.jpg,pics/onion.jpg,pics/sailboat.jpg,pics/seaturtle.jpg,pics/hen.jpg,pics/fanblades.jpg,blankImage,blankImage,blankImage,blankImage,blankImage,blankImage,blankImage,blankImage,blueberry01,35,,,,,,,,,,,,,,,,,,,,,,,,,,,,,,,,,,,,,,,,,0,17,17,34,1,,,,,,,,,,,,,,,,,,,,,,,,,,,,,,,,,,,,,,,,,,,,,,,,,,,,,,,
,,,,,652d355292daf75ed7f323e6,6682b41eeb79ab8215dff63d,6682bae84a6bc3d0b4174125,30,WOMEN,"TURKISH, ENGLISH",2024-07-01_15h21.16.789,ABmemTask3,2023.2.3,Win32,60.24096386,,,,,,,,,,,,,,,,,,,,,,,,,,,,,,,1619.1308,1620.1286,1620.1287,7,1620.6286,1622.1488,0.001,1622.2986,0.1527,0.1516,0.1486,0.1595,0.1628,0.1442,0.1471,0.1529,0.1499,0.15,,1622.2986,1623.0775,right,0.7453,,1623.0775,1623.4479,left,0.349,,26,0,38,1623.4481,1624.4365,,,,,,1_AB,L1_T1P_T2P,1,1,1,7,8,6,3,11,Eiffel tower,Did you see the Eiffel tower,0.12,0,resources/,pics/seagull.jpg,pics/cymbal.jpg,pics/match.jpg,pics/binoculars01b.jpg,pics/ball02.jpg,pics/onion.jpg,pics/eiffeltower.jpg,pics/stapler11.jpg,pics/peach01.jpg,pics/sandbarshark.jpg,pics/boot02b.jpg,blankImage,blankImage,blankImage,blankImage,blankImage,blankImage,eiffeltower,1,,,,,,,,,,,,,,,,,,,,,,,,,,,,,,,,,,,,,,,,,0,18,18,0,1,,,,,,,,,,,,,,,,,,,,,,,,,,,,,,,,,,,,,,,,,,,,,,,,,,,,,,,
,,,,,652d355292daf75ed7f323e6,6682b41eeb79ab8215dff63d,6682bae84a6bc3d0b4174125,30,WOMEN,"TURKISH, ENGLISH",2024-07-01_15h21.16.789,ABmemTask3,2023.2.3,Win32,60.24096386,,,,,,,,,,,,,,,,,,,,,,,,,,,,,,,1624.4375,1625.434,1625.434,7,1625.8976,1627.5653,0.0012,1627.7199,0.1502,0.15,0.1598,0.1664,0.1407,0.1499,0.1551,0.1447,0.1501,0.1499,0.15,1627.7201,1628.8624,left,1.1142,,1628.8624,1630.2876,right,1.3891,,28,0,40,1630.2878,1631.2794,,,,,,1_AB,L5_T1A_T2P,5,0,1,4,9,3,3,12,rooster,Did you see the rooster,0.12,0,resources/,pics/table01.jpg,pics/icecube01.jpg,pics/dustpan.jpg,pics/lock03a.jpg,pics/sailboat.jpg,pics/salmon.jpg,pics/banjo.jpg,pics/zebra.jpg,pics/stapler09.jpg,pics/peach01.jpg,pics/chainsaw.jpg,pics/football.jpg,blankImage,blankImage,blankImage,blankImage,blankImage,rooster,55,,,,,,,,,,,,,,,,,,,,,,,,,,,,,,,,,,,,,,,,,0,19,19,54,1,,,,,,,,,,,,,,,,,,,,,,,,,,,,,,,,,,,,,,,,,,,,,,,,,,,,,,,
,,,,,652d355292daf75ed7f323e6,6682b41eeb79ab8215dff63d,6682bae84a6bc3d0b4174125,30,WOMEN,"TURKISH, ENGLISH",2024-07-01_15h21.16.789,ABmemTask3,2023.2.3,Win32,60.24096386,,,,,,,,,,,,,,,,,,,,,,,,,,,,,,,1631.2898,1632.2821,1632.2821,7,1632.7706,1634.266,0.0013,1634.415,0.1442,0.1495,0.1499,0.1502,0.15,0.1499,0.1499,0.1551,0.1446,0.1509,,1634.4151,1635.159,right,0.7101,,1635.159,1635.4453,right,0.2468,,30,0,42,1635.4453,1636.4332,,,,,,1_AB,L1_T1P_T2P,1,1,1,7,8,6,3,11,medal,Did you see the medal,0.12,0,resources/,pics/hen.jpg,pics/starfish01.jpg,pics/nutcracker01.jpg,pics/ball02.jpg,pics/fanblades.jpg,pics/christmaslights.jpg,pics/medal02b.jpg,pics/stapler09.jpg,pics/carrot01.jpg,pics/hammerheadshark.jpg,pics/sailboat.jpg,blankImage,blankImage,blankImage,blankImage,blankImage,blankImage,medal02b,19,,,,,,,,,,,,,,,,,,,,,,,,,,,,,,,,,,,,,,,,,0,20,20,18,1,,,,,,,,,,,,,,,,,,,,,,,,,,,,,,,,,,,,,,,,,,,,,,,,,,,,,,,
,,,,,652d355292daf75ed7f323e6,6682b41eeb79ab8215dff63d,6682bae84a6bc3d0b4174125,30,WOMEN,"TURKISH, ENGLISH",2024-07-01_15h21.16.789,ABmemTask3,2023.2.3,Win32,60.24096386,,,,,,,,,,,,,,,,,,,,,,,,,,,,,,,1636.4339,1637.4202,1637.4202,7,1637.9167,1640.1707,0.0008,1640.3151,0.1413,0.1568,0.1499,0.1501,0.1474,0.1493,0.1468,0.1567,0.1499,0.1498,0.15,1640.3152,1640.8643,right,0.5164,,1640.8643,1641.1282,right,0.2414,,32,0,44,1641.1283,1642.1204,,,,,,1_AB,L5_T1P_T2P,5,1,1,6,11,5,5,16,cruise ship,Did you see the cruise ship,0.12,0,resources/,pics/seaturtle.jpg,pics/ashtray01.jpg,pics/pencil01.jpg,pics/fanblades.jpg,pics/triangle.jpg,pics/cruiseship.jpg,pics/wheel01.jpg,pics/dustpan.jpg,pics/starfish01.jpg,pics/banjo.jpg,pics/stapler12.jpg,pics/match.jpg,pics/cannon.jpg,pics/sandbarshark.jpg,pics/sink.jpg,pics/zebra.jpg,blankImage,cruiseship,51,0.15,0.1501,0.1499,,,,,,,,,,,,,,,,,,,,,,,,,,,,,,,,,,,,,,0,21,21,50,1,0.1556,,,,,,,,,,,,,,,,,,,,,,,,,,,,,,,,,,,,,,,,,,,,,,,,,,,,,,
,,,,,652d355292daf75ed7f323e6,6682b41eeb79ab8215dff63d,6682bae84a6bc3d0b4174125,30,WOMEN,"TURKISH, ENGLISH",2024-07-01_15h21.16.789,ABmemTask3,2023.2.3,Win32,60.24096386,,,,,,,,,,,,,,,,,,,,,,,,,,,,,,,1642.1213,1643.1165,1643.1166,7,1643.6072,1645.3151,0.0016,1645.4697,0.1568,0.165,0.1514,0.1501,0.1667,0.1463,0.1466,0.1667,0.1572,0.1499,0.1499,1645.4699,1646.0421,right,0.5434,,1646.0421,1646.3921,left,0.3105,,34,0,46,1646.3921,1647.3897,,,,,,1_AB,L1_T1P_T2A,1,1,0,7,8,6,4,12,Tennis racket,Did you see the Tennis racket,0.12,0,resources/,pics/banjo.jpg,pics/leaf02a.jpg,pics/shovel01.jpg,pics/microscope.jpg,pics/cork02.jpg,pics/seagull.jpg,pics/tennisracket.jpg,pics/binder03b.jpg,pics/floortile02.jpg,pics/carrot01.jpg,pics/candle01.jpg,pics/siamesecat.jpg,blankImage,blankImage,blankImage,blankImage,blankImage,tennisracket,38,,,,,,,,,,,,,,,,,,,,,,,,,,,,,,,,,,,,,,,,,0,22,22,37,1,,,,,,,,,,,,,,,,,,,,,,,,,,,,,,,,,,,,,,,,,,,,,,,,,,,,,,,
,,,,,652d355292daf75ed7f323e6,6682b41eeb79ab8215dff63d,6682bae84a6bc3d0b4174125,30,WOMEN,"TURKISH, ENGLISH",2024-07-01_15h21.16.789,ABmemTask3,2023.2.3,Win32,60.24096386,,,,,,,,,,,,,,,,,,,,,,,,,,,,,,,1647.3906,1648.3868,1648.387,7,1648.8861,1650.3873,0.0014,1650.5482,0.1413,0.1467,0.1566,0.1501,0.15,0.1499,0.1502,0.1499,0.15,0.1557,,1650.5482,1651.3287,right,0.7583,,1651.3287,1651.7648,left,0.4002,,36,0,48,1651.7649,1652.7703,,,,,,1_AB,L1_T1P_T2A,1,1,0,7,8,6,3,11,Spear,Did you see the Spear,0.12,0,resources/,pics/butterfly.jpg,pics/banjo.jpg,pics/chainsaw.jpg,pics/christmaslights.jpg,pics/dustpan.jpg,pics/shovel01.jpg,pics/spear02.jpg,pics/table01.jpg,pics/starfish01.jpg,pics/bowlingpin.jpg,pics/carrot01.jpg,blankImage,blankImage,blankImage,blankImage,blankImage,blankImage,spear02,39,,,,,,,,,,,,,,,,,,,,,,,,,,,,,,,,,,,,,,,,,0,23,23,38,1,,,,,,,,,,,,,,,,,,,,,,,,,,,,,,,,,,,,,,,,,,,,,,,,,,,,,,,
,,,,,652d355292daf75ed7f323e6,6682b41eeb79ab8215dff63d,6682bae84a6bc3d0b4174125,30,WOMEN,"TURKISH, ENGLISH",2024-07-01_15h21.16.789,ABmemTask3,2023.2.3,Win32,60.24096386,,,,,,,,,,,,,,,,,,,,,,,,,,,,,,,1652.7714,1653.7811,1653.7811,7,1654.2753,1656.6816,0.0011,1656.8316,0.1489,0.1568,0.1498,0.1508,0.1463,0.1465,0.1568,0.1498,0.1499,0.1501,0.1503,1656.8316,1657.4705,right,0.6051,,1657.4706,1658.5122,left,1.0139,,34,0,50,1658.5122,1659.5068,,,,,,1_AB,L5_T1A_T2A,5,0,0,7,12,6,5,17,Bib,Did you see the Bib,0.12,0,resources/,pics/hammerheadshark.jpg,pics/wheel01.jpg,pics/binder03b.jpg,pics/hairdryer02a.jpg,pics/christmaslights.jpg,pics/sandbarshark.jpg,pics/binoculars01b.jpg,pics/piggybank.jpg,pics/aquarium.jpg,pics/candleholder01.jpg,pics/sink.jpg,pics/calendar.jpg,pics/birdhouse.jpg,pics/bowtie.jpg,pics/onion.jpg,pics/golfball.jpg,pics/sailboat.jpg,bib,62,0.1495,0.1501,0.1501,,,,,,,,,,,,,,,,,,,,,,,,,,,,,,,,,,,,,,0,24,24,61,1,0.1498,0.1497,,,,,,,,,,,,,,,,,,,,,,,,,,,,,,,,,,,,,,,,,,,,,,,,,,,,,
,,,,,652d355292daf75ed7f323e6,6682b41eeb79ab8215dff63d,6682bae84a6bc3d0b4174125,30,WOMEN,"TURKISH, ENGLISH",2024-07-01_15h21.16.789,ABmemTask3,2023.2.3,Win32,60.24096386,,,,,,,,,,,,,,,,,,,,,,,,,,,,,,,1659.517,1660.5068,1660.507,7,1661.0068,1662.9652,0.0014,1663.1225,0.1572,0.158,0.1392,0.1456,0.157,0.1501,0.15,0.15,0.1501,0.1552,0.1447,1663.1227,1663.5436,right,0.3942,,1663.5437,1663.7928,right,0.2277,,36,0,52,1663.7928,1664.7859,,,,,,1_AB,L5_T1P_T2P,5,1,1,6,11,5,3,14,truck,Did you see the truck,0.12,0,resources/,pics/calendar.jpg,pics/mummy.jpg,pics/ashtray01.jpg,pics/pencilsharpener02a.jpg,pics/dustpan.jpg,pics/boxtruck.jpg,pics/lightswitch01.jpg,pics/pictureframe04.jpg,pics/starfish01.jpg,pics/zebra.jpg,pics/stapler12.jpg,pics/bowtie.jpg,pics/candleholder01.jpg,pics/candle01.jpg,blankImage,blankImage,blankImage,boxtruck,50,0.15,0.1501,,,,,,,,,,,,,,,,,,,,,,,,,,,,,,,,,,,,,,,0,25,25,49,1,,,,,,,,,,,,,,,,,,,,,,,,,,,,,,,,,,,,,,,,,,,,,,,,,,,,,,,
,,,,,652d355292daf75ed7f323e6,6682b41eeb79ab8215dff63d,6682bae84a6bc3d0b4174125,30,WOMEN,"TURKISH, ENGLISH",2024-07-01_15h21.16.789,ABmemTask3,2023.2.3,Win32,60.24096386,,,,,,,,,,,,,,,,,,,,,,,,,,,,,,,1664.7869,1665.781,1665.781,7,1666.2735,1668.2317,0.0014,1668.3815,0.1571,0.15,0.1498,0.1501,0.1503,0.1463,0.1462,0.1571,0.1489,0.1667,0.1407,1668.3815,1668.9204,right,0.5055,,1668.9204,1669.2447,right,0.2965,,38,0,54,1669.2447,1670.2359,,,,,,1_AB,L5_T1P_T2P,5,1,1,6,11,5,3,14,mail box,Did you see the mail box,0.12,0,resources/,pics/pictureframe04.jpg,pics/seaturtle.jpg,pics/blender.jpg,pics/carrot01.jpg,pics/nutcracker01.jpg,pics/mailbox02.jpg,pics/seagull.jpg,pics/sink.jpg,pics/siamesecat.jpg,pics/spiderweb.jpg,pics/stapler08.jpg,pics/safetypin.jpg,pics/candle01.jpg,pics/mummy.jpg,blankImage,blankImage,blankImage,mailbox02,43,0.1438,0.15,,,,,,,,,,,,,,,,,,,,,,,,,,,,,,,,,,,,,,,0,26,26,42,1,,,,,,,,,,,,,,,,,,,,,,,,,,,,,,,,,,,,,,,,,,,,,,,,,,,,,,,
,,,,,652d355292daf75ed7f323e6,6682b41eeb79ab8215dff63d,6682bae84a6bc3d0b4174125,30,WOMEN,"TURKISH, ENGLISH",2024-07-01_15h21.16.789,ABmemTask3,2023.2.3,Win32,60.24096386,,,,,,,,,,,,,,,,,,,,,,,,,,,,,,,1670.2369,1671.2434,1671.2435,7,1671.7197,1673.3648,0.0014,1673.5147,0.1441,0.1501,0.1499,0.15,0.1502,0.15,0.1485,0.1484,0.1468,0.1564,0.1497,1673.5148,1674.9477,right,1.3999,,1674.9478,1675.2413,right,0.2603,,40,0,56,1675.2414,1676.2468,,,,,,1_AB,L1_T1P_T2P,1,1,1,7,8,6,4,12,Turnstile,Did you see the Turnstile,0.12,0,resources/,pics/golfball.jpg,pics/hose.jpg,pics/siamesecat.jpg,pics/binoculars01b.jpg,pics/hen.jpg,pics/candleholder01.jpg,pics/turnstile.jpg,pics/stapler03a.jpg,pics/giraffe.jpg,pics/pictureframe04.jpg,pics/sandbarshark.jpg,pics/spoon01.jpg,blankImage,blankImage,blankImage,blankImage,blankImage,turnstile,13,,,,,,,,,,,,,,,,,,,,,,,,,,,,,,,,,,,,,,,,,0,27,27,12,1,,,,,,,,,,,,,,,,,,,,,,,,,,,,,,,,,,,,,,,,,,,,,,,,,,,,,,,
,,,,,652d355292daf75ed7f323e6,6682b41eeb79ab8215dff63d,6682bae84a6bc3d0b4174125,30,WOMEN,"TURKISH, ENGLISH",2024-07-01_15h21.16.789,ABmemTask3,2023.2.3,Win32,60.24096386,,,,,,,,,,,,,,,,,,,,,,,,,,,,,,,1676.257,1677.2475,1677.2476,7,1677.7494,1679.1246,0.0013,1679.2819,0.1477,0.1502,0.1504,0.1494,0.15,0.1646,0.1691,0.1471,0.1458,,,1679.2819,1680.1313,right,0.8168,,1680.1313,1682.3815,left,2.2171,,40,0,58,1682.3816,1683.3808,,,,,,1_AB,L1_T1P_T2P,1,1,1,4,5,3,5,10,chair,Did you see the chair,0.12,0,resources/,pics/zebra.jpg,pics/floortile02.jpg,pics/cork02.jpg,pics/chair.jpg,pics/stapler07.jpg,pics/sealion.jpg,pics/shovel01.jpg,pics/piggybank.jpg,pics/candleholder01.jpg,pics/laptop01a.jpg,blankImage,blankImage,blankImage,blankImage,blankImage,blankImage,blankImage,chair,3,,,,,,,,,,,,,,,,,,,,,,,,,,,,,,,,,,,,,,,,,0,28,28,2,1,,,,,,,,,,,,,,,,,,,,,,,,,,,,,,,,,,,,,,,,,,,,,,,,,,,,,,,
