consent1.started,consent1.stopped,key_resp_8.keys,key_resp_8.rt,key_resp_8.duration,PROLIFIC_PID,STUDY_ID,SESSION_ID,age,sex,native language,date,expName,psychopyVersion,OS,frameRate,consent2.started,consent2.stopped,key_resp_9.keys,key_resp_9.rt,key_resp_9.duration,consent3.started,consent3.stopped,key_resp_10.keys,key_resp_10.rt,key_resp_10.duration,consent4.started,consent4.stopped,key_resp_11.keys,key_resp_11.rt,key_resp_11.duration,consent5.started,consent5.stopped,key_resp_12.keys,key_resp_12.rt,key_resp_12.duration,bonusInstruct.started,bonusInstruct.stopped,key_resp_14.keys,key_resp_14.rt,key_resp_14.duration,practiceInstruct.started,practiceInstruct.stopped,key_resp.keys,key_resp.rt,key_resp.duration,cueWord_2.started,cueWord_2.stopped,fix.started,frameTarget,fix.stopped,trial.started,img1Add,trial.stopped,img2Add,img3Add,img4Add,img5Add,img6Add,img7Add,img8Add,img9Add,img10Add,img11Add,img12Add,prompt1.started,prompt1.stopped,key_resp_2.keys,key_resp_2.rt,key_resp_2.duration,prompt2.started,prompt2.stopped,key_resp_3.keys,key_resp_3.rt,key_resp_3.duration,runningAcc_AB,runningTotal,runningCount_AB,feedback.started,feedback.stopped,trials.thisRepN,trials.thisTrialN,trials.thisN,trials.thisIndex,trials.ran,TrialType,CondType,Lag,T1_PA,T2_PA,T1Loc,T2Loc,PreDistractor,PostDistractor,TotalImg,cueWord,T1cue,StimLength,isi,PicFolder,Img1,Img2,Img3,Img4,Img5,Img6,Img7,Img8,Img9,Img10,Img11,Img12,Img13,Img14,Img15,Img16,Img17,T1_Identity,trialID,img13Add,img14Add,img15Add,ABfeedback.started,ABfeedback.stopped,key_resp_13.keys,key_resp_13.rt,key_resp_13.duration,MemPracticeInstruction.started,MemPracticeInstruction.stopped,key_resp_5.keys,key_resp_5.rt,key_resp_5.duration,memTrial.started,memTrial.stopped,Mem_runningPoints,key_resp_4.keys,key_resp_4.rt,key_resp_4.duration,memTrialFeedback.started,memTrialFeedback.stopped,trials_2.thisRepN,trials_2.thisTrialN,trials_2.thisN,trials_2.thisIndex,trials_2.ran,ABtrialID,priorLag,image,memFeedback.started,memFeedback.frame,memFeedback.ended,memFeedback.stopped,bonus.started,bonus.stopped,memoryBlockABInstruct.started,memoryBlockABInstruct.stopped,key_resp_6.keys,key_resp_6.rt,key_resp_6.duration,img16Add,AB_block_1.thisRepN,AB_block_1.thisTrialN,AB_block_1.thisN,AB_block_1.thisIndex,AB_block_1.ran,img17Add,AB_break1.started,AB_break1.stopped,PerceiveBlockABInstruct.started,PerceiveBlockABInstruct.stopped,key_resp_7.keys,key_resp_7.rt,key_resp_7.duration,AB_block_2.thisRepN,AB_block_2.thisTrialN,AB_block_2.thisN,AB_block_2.thisIndex,AB_block_2.ran,AB_break2.started,AB_break2.stopped,AB_block_3.thisRepN,AB_block_3.thisTrialN,AB_block_3.thisN,AB_block_3.thisIndex,AB_block_3.ran,AB_break3.started,AB_break3.stopped,AB_block_4.thisRepN,AB_block_4.thisTrialN,AB_block_4.thisN,AB_block_4.thisIndex,AB_block_4.ran,AB_break4.started,AB_break4.stopped,AB_block_5.thisRepN,AB_block_5.thisTrialN,AB_block_5.thisN,AB_block_5.thisIndex,AB_block_5.ran,AB_break5.started,AB_break5.stopped,AB_block_6.thisRepN,AB_block_6.thisTrialN,AB_block_6.thisN,AB_block_6.thisIndex,AB_block_6.ran,AB_break6.started,AB_break6.stopped,MemInstructionSURPRISE.started,MemInstructionSURPRISE.stopped,MemInstruction.started,MemInstruction.stopped,memBreak.started,memBreak.stopped,Mem_block_1.thisRepN,Mem_block_1.thisTrialN,Mem_block_1.thisN,Mem_block_1.thisIndex,Mem_block_1.ran
0.0093,87.6064,space,87.5852,,5f590c2649483e0f1a0c0cbc,6682b41eeb79ab8215dff63d,6682b8468205177075b0672c,34,female,english,2024-07-01_10h10.05.490,ABmemTask3,2023.2.3,Win32,59.88023952,,,,,,,,,,,,,,,,,,,,,,,,,,,,,,,,,,,,,,,,,,,,,,,,,,,,,,,,,,,,,,,,,,,,,,,,,,,,,,,,,,,,,,,,,,,,,,,,,,,,,,,,,,,,,,,,,,,,,,,,,,,,,,,,,,,,,,,,,,,,,,,,,,,,,,,,,,,,,,,,,,,,,,,,,,,,,,,,,,,,,,,,,,,,,,,,,,,,,,,,,,,
,,,,,5f590c2649483e0f1a0c0cbc,6682b41eeb79ab8215dff63d,6682b8468205177075b0672c,34,female,english,2024-07-01_10h10.05.490,ABmemTask3,2023.2.3,Win32,59.88023952,87.6066,89.5018,space,1.847,,,,,,,,,,,,,,,,,,,,,,,,,,,,,,,,,,,,,,,,,,,,,,,,,,,,,,,,,,,,,,,,,,,,,,,,,,,,,,,,,,,,,,,,,,,,,,,,,,,,,,,,,,,,,,,,,,,,,,,,,,,,,,,,,,,,,,,,,,,,,,,,,,,,,,,,,,,,,,,,,,,,,,,,,,,,,,,,,,,,,,,,,,,,,,,,,,,,,,,
,,,,,5f590c2649483e0f1a0c0cbc,6682b41eeb79ab8215dff63d,6682b8468205177075b0672c,34,female,english,2024-07-01_10h10.05.490,ABmemTask3,2023.2.3,Win32,59.88023952,,,,,,89.502,90.5009,space,0.9737,,,,,,,,,,,,,,,,,,,,,,,,,,,,,,,,,,,,,,,,,,,,,,,,,,,,,,,,,,,,,,,,,,,,,,,,,,,,,,,,,,,,,,,,,,,,,,,,,,,,,,,,,,,,,,,,,,,,,,,,,,,,,,,,,,,,,,,,,,,,,,,,,,,,,,,,,,,,,,,,,,,,,,,,,,,,,,,,,,,,,,,,,,,,,,,,,,
,,,,,5f590c2649483e0f1a0c0cbc,6682b41eeb79ab8215dff63d,6682b8468205177075b0672c,34,female,english,2024-07-01_10h10.05.490,ABmemTask3,2023.2.3,Win32,59.88023952,,,,,,,,,,,90.5011,91.3499,space,0.8262,,,,,,,,,,,,,,,,,,,,,,,,,,,,,,,,,,,,,,,,,,,,,,,,,,,,,,,,,,,,,,,,,,,,,,,,,,,,,,,,,,,,,,,,,,,,,,,,,,,,,,,,,,,,,,,,,,,,,,,,,,,,,,,,,,,,,,,,,,,,,,,,,,,,,,,,,,,,,,,,,,,,,,,,,,,,,,,,,,,,,,,,,,,,,
,,,,,5f590c2649483e0f1a0c0cbc,6682b41eeb79ab8215dff63d,6682b8468205177075b0672c,34,female,english,2024-07-01_10h10.05.490,ABmemTask3,2023.2.3,Win32,59.88023952,,,,,,,,,,,,,,,,91.3501,92.1823,space,0.8151,,,,,,,,,,,,,,,,,,,,,,,,,,,,,,,,,,,,,,,,,,,,,,,,,,,,,,,,,,,,,,,,,,,,,,,,,,,,,,,,,,,,,,,,,,,,,,,,,,,,,,,,,,,,,,,,,,,,,,,,,,,,,,,,,,,,,,,,,,,,,,,,,,,,,,,,,,,,,,,,,,,,,,,,,,,,,,,,,,,,,,,,
,,,,,5f590c2649483e0f1a0c0cbc,6682b41eeb79ab8215dff63d,6682b8468205177075b0672c,34,female,english,2024-07-01_10h10.05.490,ABmemTask3,2023.2.3,Win32,59.88023952,,,,,,,,,,,,,,,,,,,,,92.1826,101.1239,space,8.9213,,,,,,,,,,,,,,,,,,,,,,,,,,,,,,,,,,,,,,,,,,,,,,,,,,,,,,,,,,,,,,,,,,,,,,,,,,,,,,,,,,,,,,,,,,,,,,,,,,,,,,,,,,,,,,,,,,,,,,,,,,,,,,,,,,,,,,,,,,,,,,,,,,,,,,,,,,,,,,,,,,,,,,,,,,,,,,,,,,,
,,,,,5f590c2649483e0f1a0c0cbc,6682b41eeb79ab8215dff63d,6682b8468205177075b0672c,34,female,english,2024-07-01_10h10.05.490,ABmemTask3,2023.2.3,Win32,59.88023952,,,,,,,,,,,,,,,,,,,,,,,,,,101.124,117.5909,space,16.449,,,,,,,,,,,,,,,,,,,,,,,,,,,,,,,,,,,,,,,,,,,,,,,,,,,,,,,,,,,,,,,,,,,,,,,,,,,,,,,,,,,,,,,,,,,,,,,,,,,,,,,,,,,,,,,,,,,,,,,,,,,,,,,,,,,,,,,,,,,,,,,,,,,,,,,,,,,,,,,,,,,,,,,,,,,,,,
,,,,,5f590c2649483e0f1a0c0cbc,6682b41eeb79ab8215dff63d,6682b8468205177075b0672c,34,female,english,2024-07-01_10h10.05.490,ABmemTask3,2023.2.3,Win32,59.88023952,,,,,,,,,,,,,,,,,,,,,,,,,,,,,,,117.605,118.606,118.6062,15,119.1055,121.8528,0.0016,122.1024,0.2487,0.2499,0.2496,0.25,0.2496,0.25,0.2495,0.2493,0.2497,0.2498,0.2496,122.103,124.3838,right,2.2626,,124.3841,126.1321,right,1.7324,,-2,0,2,126.1324,127.1308,0,0,0,0,1,prac_AB,L1_T1P_T2A,1,1,0,6,7,5,5,12,cat,Did you see the cat,0.25,0,resources/,pics/shipinabottle.jpg,pics/table01.jpg,pics/dustpan.jpg,pics/golfball.jpg,pics/giraffe.jpg,pics/cat.jpg,pics/peanut01.jpg,pics/pictureframe04.jpg,pics/fanblades.jpg,pics/laptop01a.jpg,pics/ball02.jpg,pics/blender.jpg,blankImage,blankImage,blankImage,blankImage,blankImage,cat,8,,,,,,,,,,,,,,,,,,,,,,,,,,,,,,,,,,,,,,,,,,,,,,,,,,,,,,,,,,,,,,,,,,,,,,,,,,,,,,,,,,,,,,,,,,,,,,,,,,,,
,,,,,5f590c2649483e0f1a0c0cbc,6682b41eeb79ab8215dff63d,6682b8468205177075b0672c,34,female,english,2024-07-01_10h10.05.490,ABmemTask3,2023.2.3,Win32,59.88023952,,,,,,,,,,,,,,,,,,,,,,,,,,,,,,,127.138,128.1298,128.1298,14,128.6292,130.7274,0.001,130.9605,0.2325,0.2332,0.2336,0.233,0.2327,0.2334,0.2328,0.2331,0.2329,,,130.9605,133.3414,right,2.3624,,133.3415,134.1239,right,0.7766,,0,0,4,134.1239,135.1227,0,1,1,1,1,prac_AB,L1_T1P_T2P,1,1,1,5,6,4,4,10,tree,Did you see the tree,0.24,0,resources/,pics/carrot01.jpg,pics/hammerheadshark.jpg,pics/kangaroo.jpg,pics/proboscismonkey.jpg,pics/tree.jpg,pics/stapler07.jpg,pics/siamesecat.jpg,pics/ball02.jpg,pics/pictureframe04.jpg,pics/mummy.jpg,blankImage,blankImage,blankImage,blankImage,blankImage,blankImage,blankImage,tree,1,,,,,,,,,,,,,,,,,,,,,,,,,,,,,,,,,,,,,,,,,,,,,,,,,,,,,,,,,,,,,,,,,,,,,,,,,,,,,,,,,,,,,,,,,,,,,,,,,,,,
,,,,,5f590c2649483e0f1a0c0cbc,6682b41eeb79ab8215dff63d,6682b8468205177075b0672c,34,female,english,2024-07-01_10h10.05.490,ABmemTask3,2023.2.3,Win32,59.88023952,,,,,,,,,,,,,,,,,,,,,,,,,,,,,,,135.13,136.122,136.122,14,136.6213,139.1858,0.001,139.4186,0.2331,0.2328,0.2334,0.2325,0.2331,0.2331,0.2331,0.2336,0.233,0.2334,0.2326,139.4187,140.4508,left,1.0248,,140.451,141.2335,right,0.7754,,2,0,6,141.2335,142.2324,0,2,2,2,1,prac_AB,L1_T1A_T2P,1,0,1,7,8,6,4,12,grapes,Did you see the grapes,0.23,0,resources/,pics/sailboat.jpg,pics/butterfly.jpg,pics/giraffe.jpg,pics/spoon01.jpg,pics/hose.jpg,pics/nutcracker01.jpg,pics/table01.jpg,pics/stapler13.jpg,pics/pencil01.jpg,pics/football.jpg,pics/triangle.jpg,pics/hairdryer02a.jpg,blankImage,blankImage,blankImage,blankImage,blankImage,grape01,6,,,,,,,,,,,,,,,,,,,,,,,,,,,,,,,,,,,,,,,,,,,,,,,,,,,,,,,,,,,,,,,,,,,,,,,,,,,,,,,,,,,,,,,,,,,,,,,,,,,,
,,,,,5f590c2649483e0f1a0c0cbc,6682b41eeb79ab8215dff63d,6682b8468205177075b0672c,34,female,english,2024-07-01_10h10.05.490,ABmemTask3,2023.2.3,Win32,59.88023952,,,,,,,,,,,,,,,,,,,,,,,,,,,,,,,142.2393,143.2315,143.2316,13,143.731,146.7614,0.001,146.9778,0.2161,0.2174,0.2152,0.2165,0.2164,0.2168,0.2167,0.2158,0.2167,0.2163,0.2166,146.9779,147.7104,right,0.7154,,147.7105,148.393,right,0.6794,,4,0,8,148.3931,149.392,0,3,3,3,1,prac_AB,L5_T1P_T2P,5,1,1,7,12,6,3,15,Human skull,Did you see the Human skull,0.22,0,resources/,pics/peach01.jpg,pics/proboscismonkey.jpg,pics/hose.jpg,pics/laptop01a.jpg,pics/hammerheadshark.jpg,pics/nutcracker01.jpg,pics/humanskull.jpg,pics/table01.jpg,pics/icecube01.jpg,pics/boot02b.jpg,pics/calendar.jpg,pics/stapler03a.jpg,pics/ashtray01.jpg,pics/giraffe.jpg,pics/dromedary.jpg,blankImage,blankImage,humanskull,12,0.2162,0.2167,0.2161,,,,,,,,,,,,,,,,,,,,,,,,,,,,,,,,,,,,,,,,,,,,,,,,,,,,,,,,,,,,,,,,,,,,,,,,,,,,,,,,,,,,,,,,,,,,,,,,,
,,,,,5f590c2649483e0f1a0c0cbc,6682b41eeb79ab8215dff63d,6682b8468205177075b0672c,34,female,english,2024-07-01_10h10.05.490,ABmemTask3,2023.2.3,Win32,59.88023952,,,,,,,,,,,,,,,,,,,,,,,,,,,,,,,149.3924,150.391,150.3911,13,150.8907,153.0552,0.0016,153.2715,0.215,0.2168,0.2165,0.2161,0.2165,0.2166,0.2162,0.2169,0.216,0.2165,,153.2717,154.0709,left,0.7853,,154.0711,154.9032,right,0.8209,,6,0,10,154.9034,155.9022,0,4,4,4,1,prac_AB,L1_T1A_T2P,1,0,1,7,8,6,3,11,dog,Did you see the dog,0.21,0,resources/,pics/ball02.jpg,pics/binder03b.jpg,pics/dromedary.jpg,pics/shipinabottle.jpg,pics/proboscismonkey.jpg,pics/laptop01a.jpg,pics/chainsaw.jpg,pics/stapler13.jpg,pics/nutcracker01.jpg,pics/carrot01.jpg,pics/calendar.jpg,blankImage,blankImage,blankImage,blankImage,blankImage,blankImage,saintbernard,7,,,,,,,,,,,,,,,,,,,,,,,,,,,,,,,,,,,,,,,,,,,,,,,,,,,,,,,,,,,,,,,,,,,,,,,,,,,,,,,,,,,,,,,,,,,,,,,,,,,,
,,,,,5f590c2649483e0f1a0c0cbc,6682b41eeb79ab8215dff63d,6682b8468205177075b0672c,34,female,english,2024-07-01_10h10.05.490,ABmemTask3,2023.2.3,Win32,59.88023952,,,,,,,,,,,,,,,,,,,,,,,,,,,,,,,155.9097,156.9012,156.9013,12,157.4006,160.1983,0.001,160.3978,0.1993,0.2001,0.1995,0.1999,0.1999,0.1995,0.1999,0.2003,0.1993,0.2004,0.1997,160.3981,161.1636,right,0.7585,,161.1636,161.8796,right,0.7092,,8,0,12,161.8796,162.8785,0,5,5,5,1,prac_AB,L5_T1P_T2P,5,1,1,5,10,4,5,15,grater,Did you see the grater,0.2,0,resources/,pics/pencil01.jpg,pics/laptop01a.jpg,pics/hammerheadshark.jpg,pics/cork02.jpg,pics/grater01a.jpg,pics/shipinabottle.jpg,pics/binder03b.jpg,pics/dromedary.jpg,pics/pictureframe04.jpg,pics/stapler04b.jpg,pics/fanblades.jpg,pics/aquarium.jpg,pics/hairdryer02a.jpg,pics/lightswitch01.jpg,pics/piggybank.jpg,blankImage,blankImage,grater01a,11,0.1993,0.2003,0.1997,,,,,,,,,,,,,,,,,,,,,,,,,,,,,,,,,,,,,,,,,,,,,,,,,,,,,,,,,,,,,,,,,,,,,,,,,,,,,,,,,,,,,,,,,,,,,,,,,
,,,,,5f590c2649483e0f1a0c0cbc,6682b41eeb79ab8215dff63d,6682b8468205177075b0672c,34,female,english,2024-07-01_10h10.05.490,ABmemTask3,2023.2.3,Win32,59.88023952,,,,,,,,,,,,,,,,,,,,,,,,,,,,,,,162.8789,163.8778,163.8779,11,164.377,165.8424,0.0009,166.0253,0.1827,0.1831,0.1837,0.1827,0.183,0.1841,0.1823,0.1831,,,,166.0254,167.8737,right,1.8347,,167.8738,168.4566,left,0.5761,,10,0,14,168.4567,169.4553,0,6,6,6,1,prac_AB,L1_T1P_T2A,1,1,0,4,5,3,4,9,chalk,Did you see the chalk,0.19,0,resources/,pics/necklace.jpg,pics/starfish01.jpg,pics/safetypin.jpg,pics/chalk.jpg,pics/candleholder01.jpg,pics/bowtie.jpg,pics/match.jpg,pics/candle01.jpg,pics/pencilsharpener02a.jpg,blankImage,blankImage,blankImage,blankImage,blankImage,blankImage,blankImage,blankImage,chalk,9,,,,,,,,,,,,,,,,,,,,,,,,,,,,,,,,,,,,,,,,,,,,,,,,,,,,,,,,,,,,,,,,,,,,,,,,,,,,,,,,,,,,,,,,,,,,,,,,,,,,
,,,,,5f590c2649483e0f1a0c0cbc,6682b41eeb79ab8215dff63d,6682b8468205177075b0672c,34,female,english,2024-07-01_10h10.05.490,ABmemTask3,2023.2.3,Win32,59.88023952,,,,,,,,,,,,,,,,,,,,,,,,,,,,,,,169.4559,170.4544,170.4544,11,170.9538,172.6025,0.001,172.7853,0.1829,0.1828,0.1832,0.1834,0.1831,0.1834,0.1831,0.1827,0.1833,,,172.7855,173.3349,right,0.541,,173.335,173.9346,right,0.5959,,12,0,16,173.9347,174.9332,0,7,7,7,1,prac_AB,L1_T1P_T2P,1,1,1,5,6,4,4,10,pants,Did you see the pants,0.18,0,resources/,pics/kangaroo.jpg,pics/safetypin.jpg,pics/salmon.jpg,pics/sandbarshark.jpg,pics/pants.jpg,pics/stapler03a.jpg,pics/sink.jpg,pics/calendar.jpg,pics/butterfly.jpg,pics/fanblades.jpg,blankImage,blankImage,blankImage,blankImage,blankImage,blankImage,blankImage,pants,2,,,,,,,,,,,,,,,,,,,,,,,,,,,,,,,,,,,,,,,,,,,,,,,,,,,,,,,,,,,,,,,,,,,,,,,,,,,,,,,,,,,,,,,,,,,,,,,,,,,,
,,,,,5f590c2649483e0f1a0c0cbc,6682b41eeb79ab8215dff63d,6682b8468205177075b0672c,34,female,english,2024-07-01_10h10.05.490,ABmemTask3,2023.2.3,Win32,59.88023952,,,,,,,,,,,,,,,,,,,,,,,,,,,,,,,174.9339,175.9322,175.9322,10,176.4317,178.7631,0.001,178.9294,0.166,0.1664,0.1665,0.1668,0.1664,0.1665,0.1665,0.1662,0.1666,0.1666,0.1664,178.9295,179.5787,left,0.6379,,179.5788,180.4279,right,0.8437,,14,0,18,180.4281,181.4268,0,8,8,8,1,prac_AB,L5_T1A_T2P,5,0,1,7,12,6,3,15,shirt,Did you see the shirt,0.17,0,resources/,pics/banjo.jpg,pics/chainsaw.jpg,pics/sailboat.jpg,pics/shipinabottle.jpg,pics/lightswitch01.jpg,pics/starfish01.jpg,pics/hen.jpg,pics/ball02.jpg,pics/bowlingpin.jpg,pics/hammerheadshark.jpg,pics/footballhelmet.jpg,pics/stapler10.jpg,pics/laptop01a.jpg,pics/cannon.jpg,pics/golfball.jpg,blankImage,blankImage,shirt02,13,0.1665,0.1665,0.1667,,,,,,,,,,,,,,,,,,,,,,,,,,,,,,,,,,,,,,,,,,,,,,,,,,,,,,,,,,,,,,,,,,,,,,,,,,,,,,,,,,,,,,,,,,,,,,,,,
,,,,,5f590c2649483e0f1a0c0cbc,6682b41eeb79ab8215dff63d,6682b8468205177075b0672c,34,female,english,2024-07-01_10h10.05.490,ABmemTask3,2023.2.3,Win32,59.88023952,,,,,,,,,,,,,,,,,,,,,,,,,,,,,,,181.4271,182.4258,182.4258,10,182.9253,184.5909,0.0009,184.757,0.166,0.1665,0.1664,0.1667,0.1665,0.1665,0.1672,0.1656,0.1666,0.1669,,184.757,185.7226,right,0.9482,,185.7227,186.2387,right,0.5,,16,0,20,186.2388,187.2378,0,9,9,9,1,prac_AB,L1_T1P_T2P,1,1,1,7,8,6,3,11,tongs,Did you see the tongs,0.16,0,resources/,pics/sewingmachine01a.jpg,pics/shovel01.jpg,pics/football.jpg,pics/hen.jpg,pics/banjo.jpg,pics/zebra.jpg,pics/tongs01b.jpg,pics/stapler11.jpg,pics/shipinabottle.jpg,pics/match.jpg,pics/candle01.jpg,blankImage,blankImage,blankImage,blankImage,blankImage,blankImage,tongs01b,5,,,,,,,,,,,,,,,,,,,,,,,,,,,,,,,,,,,,,,,,,,,,,,,,,,,,,,,,,,,,,,,,,,,,,,,,,,,,,,,,,,,,,,,,,,,,,,,,,,,,
,,,,,5f590c2649483e0f1a0c0cbc,6682b41eeb79ab8215dff63d,6682b8468205177075b0672c,34,female,english,2024-07-01_10h10.05.490,ABmemTask3,2023.2.3,Win32,59.88023952,,,,,,,,,,,,,,,,,,,,,,,,,,,,,,,187.2386,188.2366,188.2367,9,188.7362,190.3848,0.001,190.5345,0.1493,0.1498,0.15,0.1496,0.15,0.1499,0.1504,0.1498,0.1494,0.1498,0.1498,190.5346,192.3493,left,1.8002,,192.3493,193.8979,right,1.5367,,14,0,22,193.8981,194.8967,0,10,10,10,1,prac_AB,L1_T1A_T2A,1,0,0,7,8,6,4,12,camera,Did you see the camera,0.15,0,resources/,pics/lightswitch01.jpg,pics/table01.jpg,pics/aquarium.jpg,pics/boot02b.jpg,pics/butterfly.jpg,pics/chainsaw.jpg,pics/binoculars01b.jpg,pics/giraffe.jpg,pics/triangle.jpg,pics/microscope.jpg,pics/mummy.jpg,pics/icecube01.jpg,blankImage,blankImage,blankImage,blankImage,blankImage,camera01a,10,,,,,,,,,,,,,,,,,,,,,,,,,,,,,,,,,,,,,,,,,,,,,,,,,,,,,,,,,,,,,,,,,,,,,,,,,,,,,,,,,,,,,,,,,,,,,,,,,,,,
,,,,,5f590c2649483e0f1a0c0cbc,6682b41eeb79ab8215dff63d,6682b8468205177075b0672c,34,female,english,2024-07-01_10h10.05.490,ABmemTask3,2023.2.3,Win32,59.88023952,,,,,,,,,,,,,,,,,,,,,,,,,,,,,,,194.9038,195.8956,195.8957,8,196.3953,197.5948,0.001,197.7272,0.1325,0.1333,0.1331,0.1338,0.1327,0.1331,0.1333,0.1332,0.1337,,,197.7273,198.4267,right,0.6887,,198.4267,199.0093,right,0.5748,,16,0,24,199.0094,200.0084,0,11,11,11,1,prac_AB,L1_T1P_T2P,1,1,1,6,7,5,3,10,shorts,Did you see the shorts,0.14,0,resources/,pics/snowshoe.jpg,pics/chainsaw.jpg,pics/sailboat.jpg,pics/ball02.jpg,pics/candleholder01.jpg,pics/shorts01.jpg,pics/stapler07.jpg,pics/peach01.jpg,pics/proboscismonkey.jpg,pics/hen.jpg,blankImage,blankImage,blankImage,blankImage,blankImage,blankImage,blankImage,shorts01,4,,,,,,,,,,,,,,,,,,,,,,,,,,,,,,,,,,,,,,,,,,,,,,,,,,,,,,,,,,,,,,,,,,,,,,,,,,,,,,,,,,,,,,,,,,,,,,,,,,,,
,,,,,5f590c2649483e0f1a0c0cbc,6682b41eeb79ab8215dff63d,6682b8468205177075b0672c,34,female,english,2024-07-01_10h10.05.490,ABmemTask3,2023.2.3,Win32,59.88023952,,,,,,,,,,,,,,,,,,,,,,,,,,,,,,,200.0161,201.0072,201.0073,8,201.5068,203.1057,0.0016,203.2386,0.132,0.1332,0.1332,0.1332,0.1336,0.1328,0.1332,0.1333,0.1331,0.1332,0.1333,203.2386,204.0711,right,0.8166,,204.0711,204.504,left,0.417,,18,0,26,204.504,205.5028,0,12,12,12,1,prac_AB,L5_T1P_T2A,5,1,0,5,10,4,3,13,fish,Did you see the fish,0.13,0,resources/,pics/football.jpg,pics/safetypin.jpg,pics/shovel01.jpg,pics/sink.jpg,pics/holdfast.jpg,pics/nutcracker01.jpg,pics/starfish01.jpg,pics/onion.jpg,pics/footballhelmet.jpg,pics/boot02b.jpg,pics/sewingmachine01a.jpg,pics/kangaroo.jpg,pics/banjo.jpg,blankImage,blankImage,blankImage,blankImage,holdfast,14,0.1334,,,,,,,,,,,,,,,,,,,,,,,,,,,,,,,,,,,,,,,,,,,,,,,,,,,,,,,,,,,,,,,,,,,,,,,,,,,,,,,,,,,,,,,,,,,,,,,,,,,
,,,,,5f590c2649483e0f1a0c0cbc,6682b41eeb79ab8215dff63d,6682b8468205177075b0672c,34,female,english,2024-07-01_10h10.05.490,ABmemTask3,2023.2.3,Win32,59.88023952,,,,,,,,,,,,,,,,,,,,,,,,,,,,,,,205.5033,206.5019,206.5019,7,207.0013,208.0505,0.0007,208.1668,0.1162,0.1166,0.1165,0.1168,0.1165,0.1164,0.1167,0.1164,0.1167,,,208.1668,208.9828,right,0.7999,,208.9829,209.449,right,0.4498,,20,0,28,209.449,210.4481,0,13,13,13,1,prac_AB,L1_T1P_T2P,1,1,1,5,6,4,4,10,fish,Did you see the fish,0.12,0,resources/,pics/butterfly.jpg,pics/banjo.jpg,pics/leaf02a.jpg,pics/dustpan.jpg,pics/sturgeon.jpg,pics/stapler02.jpg,pics/necklace.jpg,pics/shovel01.jpg,pics/starfish01.jpg,pics/chainsaw.jpg,blankImage,blankImage,blankImage,blankImage,blankImage,blankImage,blankImage,sturgeon,3,,,,,,,,,,,,,,,,,,,,,,,,,,,,,,,,,,,,,,,,,,,,,,,,,,,,,,,,,,,,,,,,,,,,,,,,,,,,,,,,,,,,,,,,,,,,,,,,,,,,
,,,,,5f590c2649483e0f1a0c0cbc,6682b41eeb79ab8215dff63d,6682b8468205177075b0672c,34,female,english,2024-07-01_10h10.05.490,ABmemTask3,2023.2.3,Win32,59.88023952,,,,,,,,,,,,,,,,,,,,,,,,,,,,,,,,,,,,,,,,,,,,,,,,,,,,,,,,,,,,,,,,,,,,,,,,,,,,,,,,,,,,,,,,,,,,,,,,,,,,,,,,,,,210.4489,214.944,space,4.4864,,,,,,,,,,,,,,,,,,,,,,,,,,,,,,,,,,,,,,,,,,,,,,,,,,,,,,,,,,,,,,,,,,,,,,,,,,,,,,,,,,,,,,,,,,,,,
,,,,,5f590c2649483e0f1a0c0cbc,6682b41eeb79ab8215dff63d,6682b8468205177075b0672c,34,female,english,2024-07-01_10h10.05.490,ABmemTask3,2023.2.3,Win32,59.88023952,,,,,,,,,,,,,,,,,,,,,,,,,,,,,,,,,,,,,,,,,,,,,,,,,,,,,,,,,,,,,,,,,,,,,,,,,,,,,,,,,,,,,,,,,,,,,,,,,,,,,,,,,,,214.9532,214.9563,,,,,,,,,,,,,,,,,,,,,,,,,,,,,,,,,,,,,,,,,,,,,,,,,,,,,,,,,,,,,,,,,,,,,,,,,,,,,,,,,,,,,,,,,,,,,,,
,,,,,5f590c2649483e0f1a0c0cbc,6682b41eeb79ab8215dff63d,6682b8468205177075b0672c,34,female,english,2024-07-01_10h10.05.490,ABmemTask3,2023.2.3,Win32,59.88023952,,,,,,,,,,,,,,,,,,,,,,,,,,,,,,,,,,,,,,,,,,,,,,,,,,,,,,,,,,,,,,,,,,,,,,,,,,,,,,,,,,,,,,,,,,,,,,,,,,,,,,,,,,,214.9587,214.9588,,,,,,,,,,,,,,,,,,,,,,,,,,,,,,,,,,,,,,,,,,,,,,,,,,,,,,,,,,,,,,,,,,,,,,,,,,,,,,,,,,,,,,,,,,,,,,,
,,,,,5f590c2649483e0f1a0c0cbc,6682b41eeb79ab8215dff63d,6682b8468205177075b0672c,34,female,english,2024-07-01_10h10.05.490,ABmemTask3,2023.2.3,Win32,59.88023952,,,,,,,,,,,,,,,,,,,,,,,,,,,,,,,,,,,,,,,,,,,,,,,,,,,,,,,,,,,,,,,,,,,,,,,,,,,,,,,,,,,,,,,,,,,,,,,,,,,,,,,,,,,214.9609,214.961,,,,,,,,,,,,,,,,,,,,,,,,,,,,,,,,,,,,,,,,,,,,,,,,,,,,,,,,,,,,,,,,,,,,,,,,,,,,,,,,,,,,,,,,,,,,,,,
,,,,,5f590c2649483e0f1a0c0cbc,6682b41eeb79ab8215dff63d,6682b8468205177075b0672c,34,female,english,2024-07-01_10h10.05.490,ABmemTask3,2023.2.3,Win32,59.88023952,,,,,,,,,,,,,,,,,,,,,,,,,,,,,,,,,,,,,,,,,,,,,,,,,,,,,,,,,,,,,,,,,,,,,,,,,,,,,,,,,,,,,,,,,,,,,,,,,,,,,,,,,,,214.9633,214.9634,,,,,,,,,,,,,,,,,,,,,,,,,,,,,,,,,,,,,,,,,,,,,,,,,,,,,,,,,,,,,,,,,,,,,,,,,,,,,,,,,,,,,,,,,,,,,,,
,,,,,5f590c2649483e0f1a0c0cbc,6682b41eeb79ab8215dff63d,6682b8468205177075b0672c,34,female,english,2024-07-01_10h10.05.490,ABmemTask3,2023.2.3,Win32,59.88023952,,,,,,,,,,,,,,,,,,,,,,,,,,,,,,,,,,,,,,,,,,,,,,,,,,,,,,,,,,,,,,,,,,,,,,,,,,,,,,,,,,,,,,,,,,,,,,,,,,,,,,,,,,,214.9651,214.9652,,,,,,,,,,,,,,,,,,,,,,,,,,,,,,,,,,,,,,,,,,,,,,,,,,,,,,,,,,,,,,,,,,,,,,,,,,,,,,,,,,,,,,,,,,,,,,,
,,,,,5f590c2649483e0f1a0c0cbc,6682b41eeb79ab8215dff63d,6682b8468205177075b0672c,34,female,english,2024-07-01_10h10.05.490,ABmemTask3,2023.2.3,Win32,59.88023952,,,,,,,,,,,,,,,,,,,,,,,,,,,,,,,,,,,,,,,,,,,,,,,,,,,,,,,,,,,,,,,,,,,,,,,,,,,,,,,,,,,,,,,,,,,,,,,,,,,,,,,,,,,214.9667,214.9668,,,,,,,,,,,,,,,,,,,,,,,,,,,,,,,,,,,,,,,,,,,,,,,,,,,,,,,,,,,,,,,,,,,,,,,,,,,,,,,,,,,,,,,,,,,,,,,
,,,,,5f590c2649483e0f1a0c0cbc,6682b41eeb79ab8215dff63d,6682b8468205177075b0672c,34,female,english,2024-07-01_10h10.05.490,ABmemTask3,2023.2.3,Win32,59.88023952,,,,,,,,,,,,,,,,,,,,,,,,,,,,,,,,,,,,,,,,,,,,,,,,,,,,,,,,,,,,,,,,,,,,,,,,,,,,,,,,,,,,,,,,,,,,,,,,,,,,,,,,,,,214.9685,214.9686,,,,,,,,,,,,,,,,,,,,,,,,,,,,,,,,,,,,,,,,,,,,,,,,,,,,,,,,,,,,,,,,,,,,,,,,,,,,,,,,,,,,,,,,,,,,,,,
,,,,,5f590c2649483e0f1a0c0cbc,6682b41eeb79ab8215dff63d,6682b8468205177075b0672c,34,female,english,2024-07-01_10h10.05.490,ABmemTask3,2023.2.3,Win32,59.88023952,,,,,,,,,,,,,,,,,,,,,,,,,,,,,,,,,,,,,,,,,,,,,,,,,,,,,,,,,,,,,,,,,,,,,,,,,,,,,,,,,,,,,,,,,,,,,,,,,,,,,,,,,,,214.97,214.97,,,,,,,,,,,,,,,,,,,,,,,,,,,,,,,,,,,,,,,,,,,,,,,,,,,,,,,,,,,,,,,,,,,,,,,,,,,,,,,,,,,,,,,,,,,,,,,
,,,,,5f590c2649483e0f1a0c0cbc,6682b41eeb79ab8215dff63d,6682b8468205177075b0672c,34,female,english,2024-07-01_10h10.05.490,ABmemTask3,2023.2.3,Win32,59.88023952,,,,,,,,,,,,,,,,,,,,,,,,,,,,,,,,,,,,,,,,,,,,,,,,,,,,,,,,,,,,,,,,,,,,,,,,,,,,,,,,,,,,,,,,,,,,,,,,,,,,,,,,,,,214.9712,214.9712,,,,,,,,,,,,,,,,,,,,,,,,,,,,,,,,,,,,,,,,,,,,,,,,,,,,,,,,,,,,,,,,,,,,,,,,,,,,,,,,,,,,,,,,,,,,,,,
,,,,,5f590c2649483e0f1a0c0cbc,6682b41eeb79ab8215dff63d,6682b8468205177075b0672c,34,female,english,2024-07-01_10h10.05.490,ABmemTask3,2023.2.3,Win32,59.88023952,,,,,,,,,,,,,,,,,,,,,,,,,,,,,,,,,,,,,,,,,,,,,,,,,,,,,,,,,,,,,,,,,,,,,,,,,,,,,,,,,,,,,,,,,,,,,,,,,,,,,,,,,,,214.9724,214.9725,,,,,,,,,,,,,,,,,,,,,,,,,,,,,,,,,,,,,,,,,,,,,,,,,,,,,,,,,,,,,,,,,,,,,,,,,,,,,,,,,,,,,,,,,,,,,,,
,,,,,5f590c2649483e0f1a0c0cbc,6682b41eeb79ab8215dff63d,6682b8468205177075b0672c,34,female,english,2024-07-01_10h10.05.490,ABmemTask3,2023.2.3,Win32,59.88023952,,,,,,,,,,,,,,,,,,,,,,,,,,,,,,,,,,,,,,,,,,,,,,,,,,,,,,,,,,,,,,,,,,,,,,,,,,,,,,,,,,,,,,,,,,,,,,,,,,,,,,,,,,,214.9742,214.9743,,,,,,,,,,,,,,,,,,,,,,,,,,,,,,,,,,,,,,,,,,,,,,,,,,,,,,,,,,,,,,,,,,,,,,,,,,,,,,,,,,,,,,,,,,,,,,,
,,,,,5f590c2649483e0f1a0c0cbc,6682b41eeb79ab8215dff63d,6682b8468205177075b0672c,34,female,english,2024-07-01_10h10.05.490,ABmemTask3,2023.2.3,Win32,59.88023952,,,,,,,,,,,,,,,,,,,,,,,,,,,,,,,,,,,,,,,,,,,,,,,,,,,,,,,,,,,,,,,,,,,,,,,,,,,,,,,,,,,,,,,,,,,,,,,,,,,,,,,,,,,214.9754,214.9754,,,,,,,,,,,,,,,,,,,,,,,,,,,,,,,,,,,,,,,,,,,,,,,,,,,,,,,,,,,,,,,,,,,,,,,,,,,,,,,,,,,,,,,,,,,,,,,
,,,,,5f590c2649483e0f1a0c0cbc,6682b41eeb79ab8215dff63d,6682b8468205177075b0672c,34,female,english,2024-07-01_10h10.05.490,ABmemTask3,2023.2.3,Win32,59.88023952,,,,,,,,,,,,,,,,,,,,,,,,,,,,,,,,,,,,,,,,,,,,,,,,,,,,,,,,,,,,,,,,,,,,,,,,,,,,,,,,,,,,,,,,,,,,,,,,,,,,,,,,,,,214.977,214.9771,,,,,,,,,,,,,,,,,,,,,,,,,,,,,,,,,,,,,,,,,,,,,,,,,,,,,,,,,,,,,,,,,,,,,,,,,,,,,,,,,,,,,,,,,,,,,,,
,,,,,5f590c2649483e0f1a0c0cbc,6682b41eeb79ab8215dff63d,6682b8468205177075b0672c,34,female,english,2024-07-01_10h10.05.490,ABmemTask3,2023.2.3,Win32,59.88023952,,,,,,,,,,,,,,,,,,,,,,,,,,,,,,,,,,,,,,,,,,,,,,,,,,,,,,,,,,,,,,,,,,,,,,,,,,,,,,,,,,,,,,,,,,,,,,,,,,,,,,,,,,,214.9789,214.9791,,,,,,,,,,,,,,,,,,,,,,,,,,,,,,,,,,,,,,,,,,,,,,,,,,,,,,,,,,,,,,,,,,,,,,,,,,,,,,,,,,,,,,,,,,,,,,,
,,,,,5f590c2649483e0f1a0c0cbc,6682b41eeb79ab8215dff63d,6682b8468205177075b0672c,34,female,english,2024-07-01_10h10.05.490,ABmemTask3,2023.2.3,Win32,59.88023952,,,,,,,,,,,,,,,,,,,,,,,,,,,,,,,,,,,,,,,,,,,,,,,,,,,,,,,,,,,,,,,,,,,,,,,,,,,,,,,,,,,,,,,,,,,,,,,,,,,,,,,,,,,214.9817,214.9818,,,,,,,,,,,,,,,,,,,,,,,,,,,,,,,,,,,,,,,,,,,,,,,,,,,,,,,,,,,,,,,,,,,,,,,,,,,,,,,,,,,,,,,,,,,,,,,
,,,,,5f590c2649483e0f1a0c0cbc,6682b41eeb79ab8215dff63d,6682b8468205177075b0672c,34,female,english,2024-07-01_10h10.05.490,ABmemTask3,2023.2.3,Win32,59.88023952,,,,,,,,,,,,,,,,,,,,,,,,,,,,,,,,,,,,,,,,,,,,,,,,,,,,,,,,,,,,,,,,,,,,,,,,,,,,,,,,,,,,,,,,,,,,,,,,,,,,,,,,,,,214.9838,214.9839,,,,,,,,,,,,,,,,,,,,,,,,,,,,,,,,,,,,,,,,,,,,,,,,,,,,,,,,,,,,,,,,,,,,,,,,,,,,,,,,,,,,,,,,,,,,,,,
,,,,,5f590c2649483e0f1a0c0cbc,6682b41eeb79ab8215dff63d,6682b8468205177075b0672c,34,female,english,2024-07-01_10h10.05.490,ABmemTask3,2023.2.3,Win32,59.88023952,,,,,,,,,,,,,,,,,,,,,,,,,,,,,,,,,,,,,,,,,,,,,,,,,,,,,,,,,,,,,,,,,,,,,,,,,,,,,,,,,,,,,,,,,,,,,,,,,,,,,,,,,,,214.9857,214.9858,,,,,,,,,,,,,,,,,,,,,,,,,,,,,,,,,,,,,,,,,,,,,,,,,,,,,,,,,,,,,,,,,,,,,,,,,,,,,,,,,,,,,,,,,,,,,,,
,,,,,5f590c2649483e0f1a0c0cbc,6682b41eeb79ab8215dff63d,6682b8468205177075b0672c,34,female,english,2024-07-01_10h10.05.490,ABmemTask3,2023.2.3,Win32,59.88023952,,,,,,,,,,,,,,,,,,,,,,,,,,,,,,,,,,,,,,,,,,,,,,,,,,,,,,,,,,,,,,,,,,,,,,,,,,,,,,,,,,,,,,,,,,,,,,,,,,,,,,,,,,,214.9873,214.9874,,,,,,,,,,,,,,,,,,,,,,,,,,,,,,,,,,,,,,,,,,,,,,,,,,,,,,,,,,,,,,,,,,,,,,,,,,,,,,,,,,,,,,,,,,,,,,,
,,,,,5f590c2649483e0f1a0c0cbc,6682b41eeb79ab8215dff63d,6682b8468205177075b0672c,34,female,english,2024-07-01_10h10.05.490,ABmemTask3,2023.2.3,Win32,59.88023952,,,,,,,,,,,,,,,,,,,,,,,,,,,,,,,,,,,,,,,,,,,,,,,,,,,,,,,,,,,,,,,,,,,,,,,,,,,,,,,,,,,,,,,,,,,,,,,,,,,,,,,,,,,214.9884,214.9884,,,,,,,,,,,,,,,,,,,,,,,,,,,,,,,,,,,,,,,,,,,,,,,,,,,,,,,,,,,,,,,,,,,,,,,,,,,,,,,,,,,,,,,,,,,,,,,
,,,,,5f590c2649483e0f1a0c0cbc,6682b41eeb79ab8215dff63d,6682b8468205177075b0672c,34,female,english,2024-07-01_10h10.05.490,ABmemTask3,2023.2.3,Win32,59.88023952,,,,,,,,,,,,,,,,,,,,,,,,,,,,,,,,,,,,,,,,,,,,,,,,,,,,,,,,,,,,,,,,,,,,,,,,,,,,,,,,,,,,,,,,,,,,,,,,,,,,,,,,,,,214.9893,214.9893,,,,,,,,,,,,,,,,,,,,,,,,,,,,,,,,,,,,,,,,,,,,,,,,,,,,,,,,,,,,,,,,,,,,,,,,,,,,,,,,,,,,,,,,,,,,,,,
,,,,,5f590c2649483e0f1a0c0cbc,6682b41eeb79ab8215dff63d,6682b8468205177075b0672c,34,female,english,2024-07-01_10h10.05.490,ABmemTask3,2023.2.3,Win32,59.88023952,,,,,,,,,,,,,,,,,,,,,,,,,,,,,,,,,,,,,,,,,,,,,,,,,,,,,,,,,,,,,,,,,,,,,,,,,,,,,,,,,,,,,,,,,,,,,,,,,,,,,,,,,,,214.9903,214.9903,,,,,,,,,,,,,,,,,,,,,,,,,,,,,,,,,,,,,,,,,,,,,,,,,,,,,,,,,,,,,,,,,,,,,,,,,,,,,,,,,,,,,,,,,,,,,,,
,,,,,5f590c2649483e0f1a0c0cbc,6682b41eeb79ab8215dff63d,6682b8468205177075b0672c,34,female,english,2024-07-01_10h10.05.490,ABmemTask3,2023.2.3,Win32,59.88023952,,,,,,,,,,,,,,,,,,,,,,,,,,,,,,,,,,,,,,,,,,,,,,,,,,,,,,,,,,,,,,,,,,,,,,,,,,,,,,,,,,,,,,,,,,,,,,,,,,,,,,,,,,,,,,,,214.9906,234.2584,space,19.247,,,,,,,,,,,,,,,,,,,,,,,,,,,,,,,,,,,,,,,,,,,,,,,,,,,,,,,,,,,,,,,,,,,,,,,,,,,,,,,,,,,,,,,,
,,,,,5f590c2649483e0f1a0c0cbc,6682b41eeb79ab8215dff63d,6682b8468205177075b0672c,34,female,english,2024-07-01_10h10.05.490,ABmemTask3,2023.2.3,Win32,59.88023952,,,,,,,,,,,,,,,,,,,,,,,,,,,,,,,,,234.2666,599,234.7572,,,,,,,,,,,,,,,,,,,,,,,,,,0,,,,,,,,,prac_MEM,new,,,,,,,,,,,10,,,,,,,,,,,,,,,,,,,,,,,,,,,,,,,,,,,234.7574,237.6045,-9,6,2.824,,237.6053,238.6035,0,0,0,10,1,999,999,pics/tomato01.jpg,,,,,,,,,,,,,,,,,,,,,,,,,,,,,,,,,,,,,,,,,,,,,,,,,,,,,,,,,,,,,,,,,,,,,,,
,,,,,5f590c2649483e0f1a0c0cbc,6682b41eeb79ab8215dff63d,6682b8468205177075b0672c,34,female,english,2024-07-01_10h10.05.490,ABmemTask3,2023.2.3,Win32,59.88023952,,,,,,,,,,,,,,,,,,,,,,,,,,,,,,,,,238.611,599,239.1031,,,,,,,,,,,,,,,,,,,,,,,,,,0,,,,,,,,,prac_MEM,old,,,,,,,,,,,10,,,,,,,,,,,,,,,,,,,,,,,,,,,,,,,,,,,239.1031,250.5081,-6,6,11.3866,,250.5088,251.5073,0,1,1,6,1,12,5,pics/humanskull.jpg,,,,,,,,,,,,,,,,,,,,,,,,,,,,,,,,,,,,,,,,,,,,,,,,,,,,,,,,,,,,,,,,,,,,,,,
,,,,,5f590c2649483e0f1a0c0cbc,6682b41eeb79ab8215dff63d,6682b8468205177075b0672c,34,female,english,2024-07-01_10h10.05.490,ABmemTask3,2023.2.3,Win32,59.88023952,,,,,,,,,,,,,,,,,,,,,,,,,,,,,,,,,251.5155,599,252.0065,,,,,,,,,,,,,,,,,,,,,,,,,,0,,,,,,,,,prac_MEM,new,,,,,,,,,,,10,,,,,,,,,,,,,,,,,,,,,,,,,,,,,,,,,,,252.0066,253.9215,-3,1,1.9032,,253.922,254.9203,0,2,2,7,1,999,999,pics/cherry01.jpg,,,,,,,,,,,,,,,,,,,,,,,,,,,,,,,,,,,,,,,,,,,,,,,,,,,,,,,,,,,,,,,,,,,,,,,
,,,,,5f590c2649483e0f1a0c0cbc,6682b41eeb79ab8215dff63d,6682b8468205177075b0672c,34,female,english,2024-07-01_10h10.05.490,ABmemTask3,2023.2.3,Win32,59.88023952,,,,,,,,,,,,,,,,,,,,,,,,,,,,,,,,,254.9273,599,255.4202,,,,,,,,,,,,,,,,,,,,,,,,,,0,,,,,,,,,prac_MEM,old,,,,,,,,,,,10,,,,,,,,,,,,,,,,,,,,,,,,,,,,,,,,,,,255.4203,259.2662,0,6,3.8256,,259.2667,260.2651,0,3,3,5,1,11,5,pics/grater01a.jpg,,,,,,,,,,,,,,,,,,,,,,,,,,,,,,,,,,,,,,,,,,,,,,,,,,,,,,,,,,,,,,,,,,,,,,,
,,,,,5f590c2649483e0f1a0c0cbc,6682b41eeb79ab8215dff63d,6682b8468205177075b0672c,34,female,english,2024-07-01_10h10.05.490,ABmemTask3,2023.2.3,Win32,59.88023952,,,,,,,,,,,,,,,,,,,,,,,,,,,,,,,,,260.2723,599,260.7646,,,,,,,,,,,,,,,,,,,,,,,,,,0,,,,,,,,,prac_MEM,old,,,,,,,,,,,10,,,,,,,,,,,,,,,,,,,,,,,,,,,,,,,,,,,260.7646,262.4795,3,6,1.6995,,262.4797,263.4789,0,4,4,2,1,3,1,pics/sturgeon.jpg,,,,,,,,,,,,,,,,,,,,,,,,,,,,,,,,,,,,,,,,,,,,,,,,,,,,,,,,,,,,,,,,,,,,,,,
,,,,,5f590c2649483e0f1a0c0cbc,6682b41eeb79ab8215dff63d,6682b8468205177075b0672c,34,female,english,2024-07-01_10h10.05.490,ABmemTask3,2023.2.3,Win32,59.88023952,,,,,,,,,,,,,,,,,,,,,,,,,,,,,,,,,263.4792,599,263.9781,,,,,,,,,,,,,,,,,,,,,,,,,,0,,,,,,,,,prac_MEM,old,,,,,,,,,,,10,,,,,,,,,,,,,,,,,,,,,,,,,,,,,,,,,,,263.9782,264.9103,6,6,0.9231,,264.9108,265.9095,0,5,5,0,1,1,1,pics/tree.jpg,,,,,,,,,,,,,,,,,,,,,,,,,,,,,,,,,,,,,,,,,,,,,,,,,,,,,,,,,,,,,,,,,,,,,,,
,,,,,5f590c2649483e0f1a0c0cbc,6682b41eeb79ab8215dff63d,6682b8468205177075b0672c,34,female,english,2024-07-01_10h10.05.490,ABmemTask3,2023.2.3,Win32,59.88023952,,,,,,,,,,,,,,,,,,,,,,,,,,,,,,,,,265.9098,599,266.4089,,,,,,,,,,,,,,,,,,,,,,,,,,0,,,,,,,,,prac_MEM,new,,,,,,,,,,,10,,,,,,,,,,,,,,,,,,,,,,,,,,,,,,,,,,,266.409,268.6566,7,3,2.2393,,268.6571,269.6557,0,6,6,9,1,999,999,pics/moth.jpg,,,,,,,,,,,,,,,,,,,,,,,,,,,,,,,,,,,,,,,,,,,,,,,,,,,,,,,,,,,,,,,,,,,,,,,
,,,,,5f590c2649483e0f1a0c0cbc,6682b41eeb79ab8215dff63d,6682b8468205177075b0672c,34,female,english,2024-07-01_10h10.05.490,ABmemTask3,2023.2.3,Win32,59.88023952,,,,,,,,,,,,,,,,,,,,,,,,,,,,,,,,,269.6627,599,270.1552,,,,,,,,,,,,,,,,,,,,,,,,,,0,,,,,,,,,prac_MEM,new,,,,,,,,,,,10,,,,,,,,,,,,,,,,,,,,,,,,,,,,,,,,,,,270.1552,271.787,6,4,1.6208,,271.7872,272.7859,0,7,7,8,1,999,999,pics/thread02.jpg,,,,,,,,,,,,,,,,,,,,,,,,,,,,,,,,,,,,,,,,,,,,,,,,,,,,,,,,,,,,,,,,,,,,,,,
,,,,,5f590c2649483e0f1a0c0cbc,6682b41eeb79ab8215dff63d,6682b8468205177075b0672c,34,female,english,2024-07-01_10h10.05.490,ABmemTask3,2023.2.3,Win32,59.88023952,,,,,,,,,,,,,,,,,,,,,,,,,,,,,,,,,272.7935,599,273.2853,,,,,,,,,,,,,,,,,,,,,,,,,,0,,,,,,,,,prac_MEM,old,,,,,,,,,,,10,,,,,,,,,,,,,,,,,,,,,,,,,,,,,,,,,,,273.2854,275.0171,9,6,1.713,,275.0178,276.016,0,8,8,4,1,5,1,pics/tongs01b.jpg,,,,,,,,,,,,,,,,,,,,,,,,,,,,,,,,,,,,,,,,,,,,,,,,,,,,,,,,,,,,,,,,,,,,,,,
,,,,,5f590c2649483e0f1a0c0cbc,6682b41eeb79ab8215dff63d,6682b8468205177075b0672c,34,female,english,2024-07-01_10h10.05.490,ABmemTask3,2023.2.3,Win32,59.88023952,,,,,,,,,,,,,,,,,,,,,,,,,,,,,,,,,276.0163,599,276.5155,,,,,,,,,,,,,,,,,,,,,,,,,,0,,,,,,,,,prac_MEM,old,,,,,,,,,,,10,,,,,,,,,,,,,,,,,,,,,,,,,,,,,,,,,,,276.5155,277.5312,12,6,1.0089,,277.5314,278.5309,0,9,9,1,1,2,1,pics/pants.jpg,,,,,,,,,,,,,,,,,,,,,,,,,,,,,,,,,,,,,,,,,,,,,,,,,,,,,,,,,,,,,,,,,,,,,,,
,,,,,5f590c2649483e0f1a0c0cbc,6682b41eeb79ab8215dff63d,6682b8468205177075b0672c,34,female,english,2024-07-01_10h10.05.490,ABmemTask3,2023.2.3,Win32,59.88023952,,,,,,,,,,,,,,,,,,,,,,,,,,,,,,,,,278.5379,599,279.0296,,,,,,,,,,,,,,,,,,,,,,,,,,0,,,,,,,,,prac_MEM,old,,,,,,,,,,,10,,,,,,,,,,,,,,,,,,,,,,,,,,,,,,,,,,,279.0297,279.7123,15,6,0.6764,,279.7126,280.7112,0,10,10,3,1,4,1,pics/shorts01.jpg,,,,,,,,,,,,,,,,,,,,,,,,,,,,,,,,,,,,,,,,,,,,,,,,,,,,,,,,,,,,,,,,,,,,,,,
,,,,,5f590c2649483e0f1a0c0cbc,6682b41eeb79ab8215dff63d,6682b8468205177075b0672c,34,female,english,2024-07-01_10h10.05.490,ABmemTask3,2023.2.3,Win32,59.88023952,,,,,,,,,,,,,,,,,,,,,,,,,,,,,,,,,,,,,,,,,,,,,,,,,,,,,,,,,,,,,,,,,,,,,,,,,,,,,,,,,,,,,,,,,,,,,,,,,,,,,,,,,,,,,,,,,,,,,,,,,,,,,,,,,,,,,280.7116,282.2431,282.2433,282.2435,,,,,,,,,,,,,,,,,,,,,,,,,,,,,,,,,,,,,,,,,,,,,,,,,,,,,,,,,,,,,,,,,,,
,,,,,5f590c2649483e0f1a0c0cbc,6682b41eeb79ab8215dff63d,6682b8468205177075b0672c,34,female,english,2024-07-01_10h10.05.490,ABmemTask3,2023.2.3,Win32,59.88023952,,,,,,,,,,,,,,,,,,space,142.7321,,,,,,,,,,,,,,,,,,,,,,,,,,,,,,,,,,,,,,,,,,,,,,,,,,,,,,,,,,,,,,,,,,,,,,,,,,,,,,,,,,,,,,,,,,,,,,,,,,,,,,,,,,,,,,,,,,,,,,282.2435,425.0022,,,,,,,,,,,,,,,,,,,,,,,,,,,,,,,,,,,,,,,,,,,,,,,,,,,,,,,,,,,,,,,,,
,,,,,5f590c2649483e0f1a0c0cbc,6682b41eeb79ab8215dff63d,6682b8468205177075b0672c,34,female,english,2024-07-01_10h10.05.490,ABmemTask3,2023.2.3,Win32,59.88023952,,,,,,,,,,,,,,,,,,,,,,,,,,,,,,,,,,,,,,,,,,,,,,,,,,,,,,,,,,,,,,,,,,,,,,,,,,,,,,,,,,,,,,,,,,,,,,,,,,,,,,,,,,,,,,,,,,,,,,,,,,,,,,,,,,,,,,,,,,,425.0022,434.1597,space,9.1296,,,,,,,,,,,,,,,,,,,,,,,,,,,,,,,,,,,,,,,,,,,,,,,,,,,,,,,,,,,,,
,,,,,5f590c2649483e0f1a0c0cbc,6682b41eeb79ab8215dff63d,6682b8468205177075b0672c,34,female,english,2024-07-01_10h10.05.490,ABmemTask3,2023.2.3,Win32,59.88023952,,,,,,,,,,,,,,,,,,,,,,,,,,,,,,,434.1677,435.1577,435.1578,7,435.6573,437.4059,0.001,437.5221,0.116,0.1165,0.1167,0.1164,0.1168,0.1167,0.1162,0.1167,0.1166,0.1164,0.1166,437.5223,438.5879,left,1.0569,,438.5879,438.9375,left,0.3332,,-2,0,2,438.9376,439.9364,,,,,,1_AB,L5_T1P_T2P,5,1,1,6,11,5,5,16,cruise ship,Did you see the cruise ship,0.12,0,resources/,pics/seaturtle.jpg,pics/ashtray01.jpg,pics/pencil01.jpg,pics/fanblades.jpg,pics/triangle.jpg,pics/cruiseship.jpg,pics/wheel01.jpg,pics/dustpan.jpg,pics/starfish01.jpg,pics/banjo.jpg,pics/stapler12.jpg,pics/match.jpg,pics/cannon.jpg,pics/sandbarshark.jpg,pics/sink.jpg,pics/zebra.jpg,blankImage,cruiseship,51,0.1163,0.1166,0.1167,,,,,,,,,,,,,,,,,,,,,,,,,,,,,,,,,,,,,,0.1166,0,0,0,50,1,,,,,,,,,,,,,,,,,,,,,,,,,,,,,,,,,,,,,,,,,,,,,,,,,,,,,,
,,,,,5f590c2649483e0f1a0c0cbc,6682b41eeb79ab8215dff63d,6682b8468205177075b0672c,34,female,english,2024-07-01_10h10.05.490,ABmemTask3,2023.2.3,Win32,59.88023952,,,,,,,,,,,,,,,,,,,,,,,,,,,,,,,439.9372,440.9354,440.9354,7,441.4349,442.2509,0.0011,442.3672,0.1158,0.1167,0.1165,0.1165,0.1166,0.1165,0.1166,,,,,442.3673,447.2792,left,4.9006,,447.2793,448.5447,left,1.2494,,-2,0,4,448.5448,449.5435,,,,,,1_AB,L1_T1A_T2P,1,0,1,4,5,3,3,8,Parking meter,Did you see the Parking meter,0.12,0,resources/,pics/leaf02a.jpg,pics/carrot01.jpg,pics/sink.jpg,pics/butterfly.jpg,pics/stapler10.jpg,pics/pictureframe04.jpg,pics/spiderweb.jpg,pics/icecube01.jpg,blankImage,blankImage,blankImage,blankImage,blankImage,blankImage,blankImage,blankImage,blankImage,parkingmeter,30,,,,,,,,,,,,,,,,,,,,,,,,,,,,,,,,,,,,,,,,,,0,1,1,29,1,,,,,,,,,,,,,,,,,,,,,,,,,,,,,,,,,,,,,,,,,,,,,,,,,,,,,,
,,,,,5f590c2649483e0f1a0c0cbc,6682b41eeb79ab8215dff63d,6682b8468205177075b0672c,34,female,english,2024-07-01_10h10.05.490,ABmemTask3,2023.2.3,Win32,59.88023952,,,,,,,,,,,,,,,,,,,,,,,,,,,,,,,449.5509,450.5427,450.5427,7,451.042,452.2078,0.0008,452.3241,0.1162,0.1166,0.1168,0.1162,0.117,0.1162,0.1164,0.1169,0.1164,0.1164,,452.3241,453.2734,right,0.9316,,453.2735,453.6896,right,0.4051,,0,0,6,453.6896,454.6885,,,,,,1_AB,L1_T1P_T2P,1,1,1,7,8,6,3,11,sock,Did you see the sock,0.12,0,resources/,pics/hen.jpg,pics/christmaslights.jpg,pics/salmon.jpg,pics/sealion.jpg,pics/seaturtle.jpg,pics/giraffe.jpg,pics/athleticsock.jpg,pics/stapler01.jpg,pics/shovel01.jpg,pics/leaf02a.jpg,pics/backpack01a.jpg,blankImage,blankImage,blankImage,blankImage,blankImage,blankImage,athleticsock,11,,,,,,,,,,,,,,,,,,,,,,,,,,,,,,,,,,,,,,,,,,0,2,2,10,1,,,,,,,,,,,,,,,,,,,,,,,,,,,,,,,,,,,,,,,,,,,,,,,,,,,,,,
,,,,,5f590c2649483e0f1a0c0cbc,6682b41eeb79ab8215dff63d,6682b8468205177075b0672c,34,female,english,2024-07-01_10h10.05.490,ABmemTask3,2023.2.3,Win32,59.88023952,,,,,,,,,,,,,,,,,,,,,,,,,,,,,,,454.6888,455.6877,455.6877,7,456.1869,457.7026,0.0008,457.8187,0.1163,0.1165,0.1164,0.1165,0.1169,0.1161,0.1167,0.1164,0.1166,0.1167,0.1164,457.8188,458.5847,right,0.7511,,458.5847,458.9344,right,0.3323,,2,0,8,458.9344,459.9333,,,,,,1_AB,L5_T1P_T2P,5,1,1,6,11,5,3,14,truck,Did you see the truck,0.12,0,resources/,pics/calendar.jpg,pics/mummy.jpg,pics/ashtray01.jpg,pics/pencilsharpener02a.jpg,pics/dustpan.jpg,pics/boxtruck.jpg,pics/lightswitch01.jpg,pics/pictureframe04.jpg,pics/starfish01.jpg,pics/zebra.jpg,pics/stapler12.jpg,pics/bowtie.jpg,pics/candleholder01.jpg,pics/candle01.jpg,blankImage,blankImage,blankImage,boxtruck,50,0.1165,0.1169,,,,,,,,,,,,,,,,,,,,,,,,,,,,,,,,,,,,,,,,0,3,3,49,1,,,,,,,,,,,,,,,,,,,,,,,,,,,,,,,,,,,,,,,,,,,,,,,,,,,,,,
,,,,,5f590c2649483e0f1a0c0cbc,6682b41eeb79ab8215dff63d,6682b8468205177075b0672c,34,female,english,2024-07-01_10h10.05.490,ABmemTask3,2023.2.3,Win32,59.88023952,,,,,,,,,,,,,,,,,,,,,,,,,,,,,,,459.934,460.9323,460.9323,7,461.4317,462.8305,0.0009,462.9468,0.116,0.1168,0.1165,0.1168,0.1166,0.1166,0.1161,0.1165,0.1165,0.1166,0.1166,462.947,463.9294,left,0.9696,,463.9295,464.5787,right,0.6317,,4,0,10,464.5788,465.5778,,,,,,1_AB,L1_T1A_T2P,1,0,1,7,8,6,5,13,Basketball,Did you see the Basketball,0.12,0,resources/,pics/cork02.jpg,pics/table01.jpg,pics/christmaslights.jpg,pics/nutcracker01.jpg,pics/golfball.jpg,pics/hammerheadshark.jpg,pics/seaturtle.jpg,pics/stapler04b.jpg,pics/lock03a.jpg,pics/snowshoe.jpg,pics/sewingmachine01a.jpg,pics/peach01.jpg,pics/hose.jpg,blankImage,blankImage,blankImage,blankImage,basketball01,24,0.1165,,,,,,,,,,,,,,,,,,,,,,,,,,,,,,,,,,,,,,,,,0,4,4,23,1,,,,,,,,,,,,,,,,,,,,,,,,,,,,,,,,,,,,,,,,,,,,,,,,,,,,,,
,,,,,5f590c2649483e0f1a0c0cbc,6682b41eeb79ab8215dff63d,6682b8468205177075b0672c,34,female,english,2024-07-01_10h10.05.490,ABmemTask3,2023.2.3,Win32,59.88023952,,,,,,,,,,,,,,,,,,,,,,,,,,,,,,,465.5851,466.5768,466.5768,7,467.076,468.3583,0.001,468.4748,0.116,0.1167,0.1164,0.1167,0.1164,0.1168,0.1164,0.1173,0.1157,0.1166,0.1165,468.4748,469.6738,right,1.1903,,469.6743,470.0065,right,0.3167,,2,0,12,470.0066,471.0056,,,,,,1_AB,L1_T1P_T2A,1,1,0,7,8,6,4,12,Tennis racket,Did you see the Tennis racket,0.12,0,resources/,pics/banjo.jpg,pics/leaf02a.jpg,pics/shovel01.jpg,pics/microscope.jpg,pics/cork02.jpg,pics/seagull.jpg,pics/tennisracket.jpg,pics/binder03b.jpg,pics/floortile02.jpg,pics/carrot01.jpg,pics/candle01.jpg,pics/siamesecat.jpg,blankImage,blankImage,blankImage,blankImage,blankImage,tennisracket,38,,,,,,,,,,,,,,,,,,,,,,,,,,,,,,,,,,,,,,,,,,0,5,5,37,1,,,,,,,,,,,,,,,,,,,,,,,,,,,,,,,,,,,,,,,,,,,,,,,,,,,,,,
,,,,,5f590c2649483e0f1a0c0cbc,6682b41eeb79ab8215dff63d,6682b8468205177075b0672c,34,female,english,2024-07-01_10h10.05.490,ABmemTask3,2023.2.3,Win32,59.88023952,,,,,,,,,,,,,,,,,,,,,,,,,,,,,,,471.006,472.0046,472.0046,7,472.5041,474.0194,0.0008,474.1358,0.116,0.1167,0.1164,0.1168,0.1163,0.1167,0.1165,0.1165,0.117,0.1162,0.1164,474.1358,476.0008,right,1.8473,,476.001,476.3836,left,0.3764,,4,0,14,476.3836,477.3826,,,,,,1_AB,L5_T1P_T2A,5,1,0,6,11,5,3,14,Kiwi,Did you see the Kiwi,0.12,0,resources/,pics/candleholder01.jpg,pics/kangaroo.jpg,pics/banjo.jpg,pics/binoculars01b.jpg,pics/microscope.jpg,pics/kiwi03.jpg,pics/bowtie.jpg,pics/peanut01.jpg,pics/backpack01a.jpg,pics/zebra.jpg,pics/toiletpaper01a.jpg,pics/hen.jpg,pics/spoon01.jpg,pics/calendar.jpg,blankImage,blankImage,blankImage,kiwi03,59,0.117,0.1162,,,,,,,,,,,,,,,,,,,,,,,,,,,,,,,,,,,,,,,,0,6,6,58,1,,,,,,,,,,,,,,,,,,,,,,,,,,,,,,,,,,,,,,,,,,,,,,,,,,,,,,
,,,,,5f590c2649483e0f1a0c0cbc,6682b41eeb79ab8215dff63d,6682b8468205177075b0672c,34,female,english,2024-07-01_10h10.05.490,ABmemTask3,2023.2.3,Win32,59.88023952,,,,,,,,,,,,,,,,,,,,,,,,,,,,,,,477.392,478.3815,478.3815,7,478.8813,479.6975,0.001,479.8136,0.116,0.1164,0.1167,0.1168,0.116,0.1168,0.1168,,,,,479.8137,481.1955,right,1.3662,,481.1955,481.5118,right,0.3044,,6,0,16,481.5119,482.5108,,,,,,1_AB,L1_T1P_T2P,1,1,1,4,5,3,3,8,Recycling bin,Did you see the Recycling bin,0.12,0,resources/,pics/microscope.jpg,pics/dustpan.jpg,pics/seagull.jpg,pics/recyclingbin.jpg,pics/stapler06.jpg,pics/bowtie.jpg,pics/dromedary.jpg,pics/salmon.jpg,blankImage,blankImage,blankImage,blankImage,blankImage,blankImage,blankImage,blankImage,blankImage,recyclingbin,16,,,,,,,,,,,,,,,,,,,,,,,,,,,,,,,,,,,,,,,,,,0,7,7,15,1,,,,,,,,,,,,,,,,,,,,,,,,,,,,,,,,,,,,,,,,,,,,,,,,,,,,,,
,,,,,5f590c2649483e0f1a0c0cbc,6682b41eeb79ab8215dff63d,6682b8468205177075b0672c,34,female,english,2024-07-01_10h10.05.490,ABmemTask3,2023.2.3,Win32,59.88023952,,,,,,,,,,,,,,,,,,,,,,,,,,,,,,,482.5112,483.5098,483.5099,7,484.0093,484.9418,0.0008,485.0582,0.1165,0.1166,0.116,0.1169,0.1164,0.1167,0.1165,0.1163,,,,485.0583,485.6411,right,0.577,,485.6412,485.9574,right,0.3009,,8,0,18,485.9574,486.9566,,,,,,1_AB,L1_T1P_T2P,1,1,1,4,5,3,4,9,antenna,Did you see the antenna,0.12,0,resources/,pics/microscope.jpg,pics/spoon01.jpg,pics/dromedary.jpg,pics/antenna.jpg,pics/stapler03.jpg,pics/hen.jpg,pics/leaf02a.jpg,pics/candle01.jpg,pics/sealion.jpg,blankImage,blankImage,blankImage,blankImage,blankImage,blankImage,blankImage,blankImage,antenna,9,,,,,,,,,,,,,,,,,,,,,,,,,,,,,,,,,,,,,,,,,,0,8,8,8,1,,,,,,,,,,,,,,,,,,,,,,,,,,,,,,,,,,,,,,,,,,,,,,,,,,,,,,
,,,,,5f590c2649483e0f1a0c0cbc,6682b41eeb79ab8215dff63d,6682b8468205177075b0672c,34,female,english,2024-07-01_10h10.05.490,ABmemTask3,2023.2.3,Win32,59.88023952,,,,,,,,,,,,,,,,,,,,,,,,,,,,,,,486.9573,487.9553,487.9553,7,488.4548,490.2034,0.0008,490.3196,0.1162,0.1169,0.1162,0.1166,0.1166,0.1168,0.1163,0.1164,0.1164,0.1168,0.1163,490.3196,491.4021,right,1.0738,,491.4021,491.7186,left,0.2991,,10,0,20,491.7187,492.7172,,,,,,1_AB,L5_T1P_T2A,5,1,0,6,11,5,5,16,belt,Did you see the belt,0.12,0,resources/,pics/banjo.jpg,pics/birdhouse.jpg,pics/spoon01.jpg,pics/table01.jpg,pics/candle01.jpg,pics/belt02a.jpg,pics/peach01.jpg,pics/chainsaw.jpg,pics/toiletpaper01a.jpg,pics/proboscismonkey.jpg,pics/cymbal.jpg,pics/binoculars01b.jpg,pics/cannon.jpg,pics/noparkingsign.jpg,pics/sailboat.jpg,pics/carrot01.jpg,blankImage,belt02a,61,0.1166,0.1166,0.1168,,,,,,,,,,,,,,,,,,,,,,,,,,,,,,,,,,,,,,0.1163,0,9,9,60,1,,,,,,,,,,,,,,,,,,,,,,,,,,,,,,,,,,,,,,,,,,,,,,,,,,,,,,
,,,,,5f590c2649483e0f1a0c0cbc,6682b41eeb79ab8215dff63d,6682b8468205177075b0672c,34,female,english,2024-07-01_10h10.05.490,ABmemTask3,2023.2.3,Win32,59.88023952,,,,,,,,,,,,,,,,,,,,,,,,,,,,,,,492.7177,493.7164,493.7164,7,494.2158,495.4981,0.0007,495.6143,0.1162,0.1167,0.1166,0.1165,0.1165,0.1166,0.1165,0.1164,0.1167,0.1166,0.1166,495.6145,496.0976,right,0.476,,496.0977,496.447,right,0.3374,,12,0,22,496.447,497.4461,,,,,,1_AB,L1_T1P_T2P,1,1,1,7,8,6,4,12,hammer,Did you see the hammer,0.12,0,resources/,pics/microscope.jpg,pics/blender.jpg,pics/dustpan.jpg,pics/snowshoe.jpg,pics/mummy.jpg,pics/bowtie.jpg,pics/hammer01.jpg,pics/stapler04b.jpg,pics/seaturtle.jpg,pics/candle01.jpg,pics/necklace.jpg,pics/cannon.jpg,blankImage,blankImage,blankImage,blankImage,blankImage,hammer01,21,,,,,,,,,,,,,,,,,,,,,,,,,,,,,,,,,,,,,,,,,,0,10,10,20,1,,,,,,,,,,,,,,,,,,,,,,,,,,,,,,,,,,,,,,,,,,,,,,,,,,,,,,
,,,,,5f590c2649483e0f1a0c0cbc,6682b41eeb79ab8215dff63d,6682b8468205177075b0672c,34,female,english,2024-07-01_10h10.05.490,ABmemTask3,2023.2.3,Win32,59.88023952,,,,,,,,,,,,,,,,,,,,,,,,,,,,,,,497.4466,498.445,498.445,7,498.9443,500.4598,0.0008,500.5762,0.1166,0.1162,0.1167,0.1164,0.1167,0.1166,0.1164,0.1165,0.1165,0.1166,0.1165,500.5763,500.9759,right,0.3871,,500.9759,501.2921,right,0.3026,,14,0,24,501.2922,502.2911,,,,,,1_AB,L5_T1P_T2P,5,1,1,4,9,3,5,14,pliers,Did you see the pliers,0.12,0,resources/,pics/calendar.jpg,pics/footballhelmet.jpg,pics/seaturtle.jpg,pics/pliers02b.jpg,pics/wheel01.jpg,pics/cannon.jpg,pics/proboscismonkey.jpg,pics/shovel01.jpg,pics/stapler06.jpg,pics/football.jpg,pics/hose.jpg,pics/dustpan.jpg,pics/spiderweb.jpg,pics/golfball.jpg,blankImage,blankImage,blankImage,pliers02b,48,0.1166,0.1166,,,,,,,,,,,,,,,,,,,,,,,,,,,,,,,,,,,,,,,,0,11,11,47,1,,,,,,,,,,,,,,,,,,,,,,,,,,,,,,,,,,,,,,,,,,,,,,,,,,,,,,
,,,,,5f590c2649483e0f1a0c0cbc,6682b41eeb79ab8215dff63d,6682b8468205177075b0672c,34,female,english,2024-07-01_10h10.05.490,ABmemTask3,2023.2.3,Win32,59.88023952,,,,,,,,,,,,,,,,,,,,,,,,,,,,,,,502.2915,503.2902,503.2902,7,503.7896,504.8389,0.0011,504.9553,0.1159,0.1167,0.1163,0.1169,0.1165,0.1169,0.116,0.1164,0.1168,,,504.9555,506.3871,right,1.4125,,506.3872,506.8699,right,0.474,,16,0,26,506.8699,507.8688,,,,,,1_AB,L1_T1P_T2P,1,1,1,5,6,4,4,10,thermometer,Did you see the thermometer,0.12,0,resources/,pics/triangle.jpg,pics/shovel01.jpg,pics/mummy.jpg,pics/noparkingsign.jpg,pics/thermometer02b.jpg,pics/stapler04.jpg,pics/piggybank.jpg,pics/golfball.jpg,pics/laptop01a.jpg,pics/aquarium.jpg,blankImage,blankImage,blankImage,blankImage,blankImage,blankImage,blankImage,thermometer02b,8,,,,,,,,,,,,,,,,,,,,,,,,,,,,,,,,,,,,,,,,,,0,12,12,7,1,,,,,,,,,,,,,,,,,,,,,,,,,,,,,,,,,,,,,,,,,,,,,,,,,,,,,,
,,,,,5f590c2649483e0f1a0c0cbc,6682b41eeb79ab8215dff63d,6682b8468205177075b0672c,34,female,english,2024-07-01_10h10.05.490,ABmemTask3,2023.2.3,Win32,59.88023952,,,,,,,,,,,,,,,,,,,,,,,,,,,,,,,507.8761,508.868,508.868,7,509.3674,510.7662,0.001,510.8825,0.1159,0.117,0.1163,0.1168,0.1163,0.1163,0.1166,0.1167,0.1164,0.1166,0.1164,510.8826,511.2323,right,0.3442,,511.2323,511.5486,right,0.3117,,18,0,28,511.5487,512.5475,,,,,,1_AB,L1_T1P_T2P,1,1,1,7,8,6,5,13,strawberry,Did you see the strawberry,0.12,0,resources/,pics/sealion.jpg,pics/backpack01a.jpg,pics/binoculars01b.jpg,pics/ball02.jpg,pics/proboscismonkey.jpg,pics/pictureframe04.jpg,pics/strawberry.jpg,pics/stapler12.jpg,pics/seaturtle.jpg,pics/dustpan.jpg,pics/bowlingpin.jpg,pics/hammerheadshark.jpg,pics/hen.jpg,blankImage,blankImage,blankImage,blankImage,strawberry,10,0.1166,,,,,,,,,,,,,,,,,,,,,,,,,,,,,,,,,,,,,,,,,0,13,13,9,1,,,,,,,,,,,,,,,,,,,,,,,,,,,,,,,,,,,,,,,,,,,,,,,,,,,,,,
,,,,,5f590c2649483e0f1a0c0cbc,6682b41eeb79ab8215dff63d,6682b8468205177075b0672c,34,female,english,2024-07-01_10h10.05.490,ABmemTask3,2023.2.3,Win32,59.88023952,,,,,,,,,,,,,,,,,,,,,,,,,,,,,,,512.5479,513.5465,513.5466,7,514.0462,515.445,0.0009,515.5612,0.1163,0.1164,0.1163,0.1167,0.1168,0.1164,0.1163,0.1165,0.1165,0.1167,0.1168,515.5612,516.3608,right,0.7804,,516.3609,516.6936,left,0.3204,,18,0,30,516.6936,517.6926,,,,,,1_AB,L5_T1P_T2P,5,1,1,4,9,3,4,13,Forklift,Did you see the Forklift,0.12,0,resources/,pics/dustpan.jpg,pics/table01.jpg,pics/sink.jpg,pics/forklift.jpg,pics/dromedary.jpg,pics/proboscismonkey.jpg,pics/cymbal.jpg,pics/shovel01.jpg,pics/stapler10.jpg,pics/backpack01a.jpg,pics/binder03b.jpg,pics/banjo.jpg,pics/candleholder01.jpg,blankImage,blankImage,blankImage,blankImage,forklift,47,0.1164,,,,,,,,,,,,,,,,,,,,,,,,,,,,,,,,,,,,,,,,,0,14,14,46,1,,,,,,,,,,,,,,,,,,,,,,,,,,,,,,,,,,,,,,,,,,,,,,,,,,,,,,
,,,,,5f590c2649483e0f1a0c0cbc,6682b41eeb79ab8215dff63d,6682b8468205177075b0672c,34,female,english,2024-07-01_10h10.05.490,ABmemTask3,2023.2.3,Win32,59.88023952,,,,,,,,,,,,,,,,,,,,,,,,,,,,,,,517.6932,518.6914,518.6914,7,519.1909,520.7063,0.0008,520.8227,0.1162,0.1167,0.1163,0.1166,0.1166,0.1165,0.1166,0.1165,0.1171,0.116,0.1169,520.8227,523.2869,left,2.4459,,523.287,523.8864,right,0.5916,,18,0,32,523.8864,524.8853,,,,,,1_AB,L5_T1P_T2P,5,1,1,6,11,5,3,14,mail box,Did you see the mail box,0.12,0,resources/,pics/pictureframe04.jpg,pics/seaturtle.jpg,pics/blender.jpg,pics/carrot01.jpg,pics/nutcracker01.jpg,pics/mailbox02.jpg,pics/seagull.jpg,pics/sink.jpg,pics/siamesecat.jpg,pics/spiderweb.jpg,pics/stapler08.jpg,pics/safetypin.jpg,pics/candle01.jpg,pics/mummy.jpg,blankImage,blankImage,blankImage,mailbox02,43,0.1164,0.1164,,,,,,,,,,,,,,,,,,,,,,,,,,,,,,,,,,,,,,,,0,15,15,42,1,,,,,,,,,,,,,,,,,,,,,,,,,,,,,,,,,,,,,,,,,,,,,,,,,,,,,,
,,,,,5f590c2649483e0f1a0c0cbc,6682b41eeb79ab8215dff63d,6682b8468205177075b0672c,34,female,english,2024-07-01_10h10.05.490,ABmemTask3,2023.2.3,Win32,59.88023952,,,,,,,,,,,,,,,,,,,,,,,,,,,,,,,524.8934,525.8842,525.8842,7,526.3838,527.3167,0.0009,527.4328,0.1163,0.1164,0.1166,0.1165,0.1166,0.1164,0.1167,0.1169,,,,527.4328,528.4655,left,1.023,,528.4656,528.9313,left,0.4502,,20,0,34,528.9314,529.9303,,,,,,1_AB,L1_T1A_T2A,1,0,0,4,5,3,4,9,License Plate,Did you see the License Plate,0.12,0,resources/,pics/snowshoe.jpg,pics/kangaroo.jpg,pics/noparkingsign.jpg,pics/match.jpg,pics/hose.jpg,pics/blender.jpg,pics/ashtray01.jpg,pics/ball02.jpg,pics/sink.jpg,blankImage,blankImage,blankImage,blankImage,blankImage,blankImage,blankImage,blankImage,licenseplate,40,,,,,,,,,,,,,,,,,,,,,,,,,,,,,,,,,,,,,,,,,,0,16,16,39,1,,,,,,,,,,,,,,,,,,,,,,,,,,,,,,,,,,,,,,,,,,,,,,,,,,,,,,
,,,,,5f590c2649483e0f1a0c0cbc,6682b41eeb79ab8215dff63d,6682b8468205177075b0672c,34,female,english,2024-07-01_10h10.05.490,ABmemTask3,2023.2.3,Win32,59.88023952,,,,,,,,,,,,,,,,,,,,,,,,,,,,,,,529.9308,530.9293,530.9293,7,531.4288,532.711,0.0014,532.8275,0.1156,0.1165,0.1166,0.1164,0.1167,0.1167,0.1164,0.1165,0.1165,0.1166,0.1165,532.8275,533.2104,right,0.3648,,533.2105,533.4937,right,0.2666,,22,0,36,533.4937,534.4923,,,,,,1_AB,L1_T1P_T2P,1,1,1,6,7,5,5,12,Bear,Did you see the Bear,0.12,0,resources/,pics/necklace.jpg,pics/hen.jpg,pics/dromedary.jpg,pics/piggybank.jpg,pics/sandbarshark.jpg,pics/grizzly.jpg,pics/stapler12.jpg,pics/bowlingpin.jpg,pics/christmaslights.jpg,pics/icecube01.jpg,pics/match.jpg,pics/lock03a.jpg,blankImage,blankImage,blankImage,blankImage,blankImage,grizzly,18,,,,,,,,,,,,,,,,,,,,,,,,,,,,,,,,,,,,,,,,,,0,17,17,17,1,,,,,,,,,,,,,,,,,,,,,,,,,,,,,,,,,,,,,,,,,,,,,,,,,,,,,,
,,,,,5f590c2649483e0f1a0c0cbc,6682b41eeb79ab8215dff63d,6682b8468205177075b0672c,34,female,english,2024-07-01_10h10.05.490,ABmemTask3,2023.2.3,Win32,59.88023952,,,,,,,,,,,,,,,,,,,,,,,,,,,,,,,534.4928,535.4915,535.4915,7,535.991,537.1568,0.0006,537.273,0.1162,0.1166,0.1165,0.1167,0.1165,0.1165,0.1167,0.1168,0.1161,0.1168,,537.2731,538.705,right,1.4176,,538.7051,539.1878,left,0.4767,,24,0,38,539.1879,540.1869,,,,,,1_AB,L1_T1P_T2A,1,1,0,7,8,6,3,11,eggplant,Did you see the eggplant,0.12,0,resources/,pics/salmon.jpg,pics/fanblades.jpg,pics/hammerheadshark.jpg,pics/wheel01.jpg,pics/snowshoe.jpg,pics/birdhouse.jpg,pics/eggplant.jpg,pics/spiderweb.jpg,pics/zebra.jpg,pics/pencilsharpener02a.jpg,pics/backpack01a.jpg,blankImage,blankImage,blankImage,blankImage,blankImage,blankImage,eggplant,32,,,,,,,,,,,,,,,,,,,,,,,,,,,,,,,,,,,,,,,,,,0,18,18,31,1,,,,,,,,,,,,,,,,,,,,,,,,,,,,,,,,,,,,,,,,,,,,,,,,,,,,,,
,,,,,5f590c2649483e0f1a0c0cbc,6682b41eeb79ab8215dff63d,6682b8468205177075b0672c,34,female,english,2024-07-01_10h10.05.490,ABmemTask3,2023.2.3,Win32,59.88023952,,,,,,,,,,,,,,,,,,,,,,,,,,,,,,,540.1875,541.1857,541.1858,7,541.6852,542.8509,0.0007,542.9673,0.1166,0.1162,0.1169,0.1162,0.1167,0.1164,0.1166,0.1167,0.1166,0.1162,,542.9673,543.95,right,0.9738,,543.95,544.2828,left,0.3156,,26,0,40,544.2829,545.2817,,,,,,1_AB,L1_T1P_T2A,1,1,0,7,8,6,3,11,Spear,Did you see the Spear,0.12,0,resources/,pics/butterfly.jpg,pics/banjo.jpg,pics/chainsaw.jpg,pics/christmaslights.jpg,pics/dustpan.jpg,pics/shovel01.jpg,pics/spear02.jpg,pics/table01.jpg,pics/starfish01.jpg,pics/bowlingpin.jpg,pics/carrot01.jpg,blankImage,blankImage,blankImage,blankImage,blankImage,blankImage,spear02,39,,,,,,,,,,,,,,,,,,,,,,,,,,,,,,,,,,,,,,,,,,0,19,19,38,1,,,,,,,,,,,,,,,,,,,,,,,,,,,,,,,,,,,,,,,,,,,,,,,,,,,,,,
,,,,,5f590c2649483e0f1a0c0cbc,6682b41eeb79ab8215dff63d,6682b8468205177075b0672c,34,female,english,2024-07-01_10h10.05.490,ABmemTask3,2023.2.3,Win32,59.88023952,,,,,,,,,,,,,,,,,,,,,,,,,,,,,,,545.2886,546.2807,546.2807,7,546.7802,547.9459,0.0013,548.0622,0.1158,0.1165,0.1165,0.1165,0.1166,0.1165,0.1166,0.1165,0.117,0.1161,,548.0622,548.9618,right,0.8843,,548.9618,549.5277,left,0.5502,,28,0,42,549.5277,550.5265,,,,,,1_AB,L1_T1P_T2A,1,1,0,6,7,5,4,11,lamp,Did you see the lamp,0.12,0,resources/,pics/chainsaw.jpg,pics/fanblades.jpg,pics/salmon.jpg,pics/proboscismonkey.jpg,pics/boot02b.jpg,pics/lamp04a.jpg,pics/blender.jpg,pics/sink.jpg,pics/pencil01.jpg,pics/floortile02.jpg,pics/shovel01.jpg,blankImage,blankImage,blankImage,blankImage,blankImage,blankImage,lamp04a,37,,,,,,,,,,,,,,,,,,,,,,,,,,,,,,,,,,,,,,,,,,0,20,20,36,1,,,,,,,,,,,,,,,,,,,,,,,,,,,,,,,,,,,,,,,,,,,,,,,,,,,,,,
,,,,,5f590c2649483e0f1a0c0cbc,6682b41eeb79ab8215dff63d,6682b8468205177075b0672c,34,female,english,2024-07-01_10h10.05.490,ABmemTask3,2023.2.3,Win32,59.88023952,,,,,,,,,,,,,,,,,,,,,,,,,,,,,,,550.5269,551.5255,551.5255,7,552.0251,553.3077,0.0008,553.4238,0.1162,0.1163,0.1166,0.1167,0.1165,0.1165,0.117,0.1163,0.1169,0.116,0.1171,553.4239,553.8733,right,0.4383,,553.8734,554.1729,right,0.2852,,30,0,44,554.1729,555.1718,,,,,,1_AB,L5_T1P_T2P,5,1,1,4,9,3,3,12,Sheep,Did you see the Sheep,0.12,0,resources/,pics/icecube01.jpg,pics/cymbal.jpg,pics/wheel01.jpg,pics/sheep.jpg,pics/starfish01.jpg,pics/safetypin.jpg,pics/siamesecat.jpg,pics/lock03a.jpg,pics/stapler01.jpg,pics/sink.jpg,pics/fanblades.jpg,pics/bowlingpin.jpg,blankImage,blankImage,blankImage,blankImage,blankImage,sheep,52,,,,,,,,,,,,,,,,,,,,,,,,,,,,,,,,,,,,,,,,,,0,21,21,51,1,,,,,,,,,,,,,,,,,,,,,,,,,,,,,,,,,,,,,,,,,,,,,,,,,,,,,,
,,,,,5f590c2649483e0f1a0c0cbc,6682b41eeb79ab8215dff63d,6682b8468205177075b0672c,34,female,english,2024-07-01_10h10.05.490,ABmemTask3,2023.2.3,Win32,59.88023952,,,,,,,,,,,,,,,,,,,,,,,,,,,,,,,555.1722,556.1709,556.1709,7,556.6705,558.4188,0.001,558.5354,0.116,0.1163,0.1174,0.1163,0.1163,0.1162,0.1166,0.1166,0.1165,0.1166,0.1166,558.5355,559.2679,left,0.718,,559.2679,559.5676,left,0.285,,30,0,46,559.5676,560.5665,,,,,,1_AB,L5_T1P_T2A,5,1,0,7,12,6,4,16,boat,Did you see the boat,0.12,0,resources/,pics/butterfly.jpg,pics/onion.jpg,pics/hose.jpg,pics/ball02.jpg,pics/ashtray01.jpg,pics/bowtie.jpg,pics/boat.jpg,pics/seaturtle.jpg,pics/blender.jpg,pics/zebra.jpg,pics/pictureframe04.jpg,pics/shovel01.jpg,pics/spoon01.jpg,pics/peanut01.jpg,pics/nutcracker01.jpg,pics/aquarium.jpg,blankImage,boat,60,0.1165,0.1169,0.1165,,,,,,,,,,,,,,,,,,,,,,,,,,,,,,,,,,,,,,0.1162,0,22,22,59,1,,,,,,,,,,,,,,,,,,,,,,,,,,,,,,,,,,,,,,,,,,,,,,,,,,,,,,
,,,,,5f590c2649483e0f1a0c0cbc,6682b41eeb79ab8215dff63d,6682b8468205177075b0672c,34,female,english,2024-07-01_10h10.05.490,ABmemTask3,2023.2.3,Win32,59.88023952,,,,,,,,,,,,,,,,,,,,,,,,,,,,,,,560.5669,561.5657,561.5657,7,562.0651,563.1142,0.0009,563.2305,0.1159,0.1169,0.1163,0.1165,0.1166,0.1166,0.1171,0.116,0.1164,,,563.2306,563.6302,right,0.3813,,563.6302,563.8967,right,0.25,,32,0,48,563.8967,564.8957,,,,,,1_AB,L1_T1P_T2P,1,1,1,4,5,3,5,10,vacuum,Did you see the vacuum,0.12,0,resources/,pics/birdhouse.jpg,pics/floortile02.jpg,pics/toiletpaper01a.jpg,pics/vacuumcleaner01.jpg,pics/stapler02.jpg,pics/spoon01.jpg,pics/banjo.jpg,pics/binder03b.jpg,pics/leaf02a.jpg,pics/aquarium.jpg,blankImage,blankImage,blankImage,blankImage,blankImage,blankImage,blankImage,vacuumcleaner01,5,,,,,,,,,,,,,,,,,,,,,,,,,,,,,,,,,,,,,,,,,,0,23,23,4,1,,,,,,,,,,,,,,,,,,,,,,,,,,,,,,,,,,,,,,,,,,,,,,,,,,,,,,
,,,,,5f590c2649483e0f1a0c0cbc,6682b41eeb79ab8215dff63d,6682b8468205177075b0672c,34,female,english,2024-07-01_10h10.05.490,ABmemTask3,2023.2.3,Win32,59.88023952,,,,,,,,,,,,,,,,,,,,,,,,,,,,,,,564.8963,565.8945,565.8946,7,566.3941,567.3266,0.0008,567.4429,0.116,0.1168,0.1165,0.1166,0.1165,0.1169,0.1162,0.1164,,,,567.443,568.3422,right,0.8861,,568.3422,568.6085,left,0.2508,,34,0,50,568.6086,569.6075,,,,,,1_AB,L1_T1P_T2A,1,1,0,4,5,3,4,9,blueberry,Did you see the blueberry,0.12,0,resources/,pics/sealion.jpg,pics/piggybank.jpg,pics/sink.jpg,pics/blueberry01.jpg,pics/onion.jpg,pics/sailboat.jpg,pics/seaturtle.jpg,pics/hen.jpg,pics/fanblades.jpg,blankImage,blankImage,blankImage,blankImage,blankImage,blankImage,blankImage,blankImage,blueberry01,35,,,,,,,,,,,,,,,,,,,,,,,,,,,,,,,,,,,,,,,,,,0,24,24,34,1,,,,,,,,,,,,,,,,,,,,,,,,,,,,,,,,,,,,,,,,,,,,,,,,,,,,,,
,,,,,5f590c2649483e0f1a0c0cbc,6682b41eeb79ab8215dff63d,6682b8468205177075b0672c,34,female,english,2024-07-01_10h10.05.490,ABmemTask3,2023.2.3,Win32,59.88023952,,,,,,,,,,,,,,,,,,,,,,,,,,,,,,,569.6079,570.6065,570.6066,7,571.1061,572.2718,0.0007,572.3882,0.1162,0.1165,0.1166,0.1165,0.1165,0.1167,0.1165,0.1165,0.1165,0.1167,,572.3882,572.9542,right,0.5486,,572.9544,573.2207,right,0.252,,36,0,52,573.2207,574.2197,,,,,,1_AB,L1_T1P_T2P,1,1,1,7,8,6,3,11,Eiffel tower,Did you see the Eiffel tower,0.12,0,resources/,pics/seagull.jpg,pics/cymbal.jpg,pics/match.jpg,pics/binoculars01b.jpg,pics/ball02.jpg,pics/onion.jpg,pics/eiffeltower.jpg,pics/stapler11.jpg,pics/peach01.jpg,pics/sandbarshark.jpg,pics/boot02b.jpg,blankImage,blankImage,blankImage,blankImage,blankImage,blankImage,eiffeltower,1,,,,,,,,,,,,,,,,,,,,,,,,,,,,,,,,,,,,,,,,,,0,25,25,0,1,,,,,,,,,,,,,,,,,,,,,,,,,,,,,,,,,,,,,,,,,,,,,,,,,,,,,,
,,,,,5f590c2649483e0f1a0c0cbc,6682b41eeb79ab8215dff63d,6682b8468205177075b0672c,34,female,english,2024-07-01_10h10.05.490,ABmemTask3,2023.2.3,Win32,59.88023952,,,,,,,,,,,,,,,,,,,,,,,,,,,,,,,574.2201,575.2185,575.2185,7,575.7181,576.8839,0.0008,577.0001,0.1163,0.117,0.1159,0.1166,0.1165,0.1165,0.117,0.1164,0.1169,0.1161,,577.0001,577.4332,right,0.4154,,577.4333,577.7162,right,0.2694,,38,0,54,577.7164,578.7153,,,,,,1_AB,L1_T1P_T2P,1,1,1,7,8,6,3,11,medal,Did you see the medal,0.12,0,resources/,pics/hen.jpg,pics/starfish01.jpg,pics/nutcracker01.jpg,pics/ball02.jpg,pics/fanblades.jpg,pics/christmaslights.jpg,pics/medal02b.jpg,pics/stapler09.jpg,pics/carrot01.jpg,pics/hammerheadshark.jpg,pics/sailboat.jpg,blankImage,blankImage,blankImage,blankImage,blankImage,blankImage,medal02b,19,,,,,,,,,,,,,,,,,,,,,,,,,,,,,,,,,,,,,,,,,,0,26,26,18,1,,,,,,,,,,,,,,,,,,,,,,,,,,,,,,,,,,,,,,,,,,,,,,,,,,,,,,
,,,,,5f590c2649483e0f1a0c0cbc,6682b41eeb79ab8215dff63d,6682b8468205177075b0672c,34,female,english,2024-07-01_10h10.05.490,ABmemTask3,2023.2.3,Win32,59.88023952,,,,,,,,,,,,,,,,,,,,,,,,,,,,,,,578.716,579.714,579.7141,7,580.2136,582.0788,0.0009,582.1952,0.1166,0.1163,0.1164,0.1164,0.1166,0.1172,0.1159,0.1166,0.1165,0.1169,0.1162,582.1953,582.8115,left,0.602,,582.8115,583.1108,left,0.2828,,40,0,56,583.1109,584.1098,,,,,,1_AB,L5_T1A_T2A,5,0,0,7,12,6,5,17,Bib,Did you see the Bib,0.12,0,resources/,pics/hammerheadshark.jpg,pics/wheel01.jpg,pics/binder03b.jpg,pics/hairdryer02a.jpg,pics/christmaslights.jpg,pics/sandbarshark.jpg,pics/binoculars01b.jpg,pics/piggybank.jpg,pics/aquarium.jpg,pics/candleholder01.jpg,pics/sink.jpg,pics/calendar.jpg,pics/birdhouse.jpg,pics/bowtie.jpg,pics/onion.jpg,pics/golfball.jpg,pics/sailboat.jpg,bib,62,0.1166,0.1169,0.1161,,,,,,,,,,,,,,,,,,,,,,,,,,,,,,,,,,,,,,0.1165,0,27,27,61,1,0.1167,,,,,,,,,,,,,,,,,,,,,,,,,,,,,,,,,,,,,,,,,,,,,,,,,,,,,
,,,,,5f590c2649483e0f1a0c0cbc,6682b41eeb79ab8215dff63d,6682b8468205177075b0672c,34,female,english,2024-07-01_10h10.05.490,ABmemTask3,2023.2.3,Win32,59.88023952,,,,,,,,,,,,,,,,,,,,,,,,,,,,,,,584.1101,585.1089,585.1089,7,585.6084,586.541,0.0011,586.6572,0.1156,0.1167,0.1167,0.1163,0.1167,0.1164,0.1165,0.1169,,,,586.6572,587.3732,left,0.6972,,587.3733,587.6064,left,0.2216,,38,0,58,587.6064,588.6054,,,,,,1_AB,L1_T1P_T2P,1,1,1,4,5,3,4,9,Chefs hat,Did you see the Chefs hat,0.12,0,resources/,pics/sewingmachine01a.jpg,pics/icecube01.jpg,pics/fanblades.jpg,pics/chefshat.jpg,pics/stapler06.jpg,pics/ashtray01.jpg,pics/blender.jpg,pics/sandbarshark.jpg,pics/lock03a.jpg,blankImage,blankImage,blankImage,blankImage,blankImage,blankImage,blankImage,blankImage,chefshat,12,,,,,,,,,,,,,,,,,,,,,,,,,,,,,,,,,,,,,,,,,,0,28,28,11,1,,,,,,,,,,,,,,,,,,,,,,,,,,,,,,,,,,,,,,,,,,,,,,,,,,,,,,
,,,,,5f590c2649483e0f1a0c0cbc,6682b41eeb79ab8215dff63d,6682b8468205177075b0672c,34,female,english,2024-07-01_10h10.05.490,ABmemTask3,2023.2.3,Win32,59.88023952,,,,,,,,,,,,,,,,,,,,,,,,,,,,,,,588.606,589.6043,589.6044,7,590.1039,591.1532,0.0008,591.2693,0.116,0.1167,0.1165,0.1165,0.1165,0.1167,0.1164,0.1169,0.1166,,,591.2694,591.6357,right,0.3525,,591.6358,591.8688,right,0.2274,,40,0,60,591.8688,592.8677,,,,,,1_AB,L1_T1P_T2P,1,1,1,4,5,3,5,10,chair,Did you see the chair,0.12,0,resources/,pics/zebra.jpg,pics/floortile02.jpg,pics/cork02.jpg,pics/chair.jpg,pics/stapler07.jpg,pics/sealion.jpg,pics/shovel01.jpg,pics/piggybank.jpg,pics/candleholder01.jpg,pics/laptop01a.jpg,blankImage,blankImage,blankImage,blankImage,blankImage,blankImage,blankImage,chair,3,,,,,,,,,,,,,,,,,,,,,,,,,,,,,,,,,,,,,,,,,,0,29,29,2,1,,,,,,,,,,,,,,,,,,,,,,,,,,,,,,,,,,,,,,,,,,,,,,,,,,,,,,
,,,,,5f590c2649483e0f1a0c0cbc,6682b41eeb79ab8215dff63d,6682b8468205177075b0672c,34,female,english,2024-07-01_10h10.05.490,ABmemTask3,2023.2.3,Win32,59.88023952,,,,,,,,,,,,,,,,,,,,,,,,,,,,,,,592.8682,593.8668,593.8669,7,594.3665,595.6487,0.0012,595.7649,0.1154,0.1166,0.1165,0.1167,0.1167,0.1165,0.1167,0.1164,0.1164,0.117,0.1162,595.7649,596.9637,left,1.1801,,596.9638,597.28,right,0.3117,,40,0,62,597.2801,598.2792,,,,,,1_AB,L1_T1P_T2P,1,1,1,7,8,6,4,12,Turnstile,Did you see the Turnstile,0.12,0,resources/,pics/golfball.jpg,pics/hose.jpg,pics/siamesecat.jpg,pics/binoculars01b.jpg,pics/hen.jpg,pics/candleholder01.jpg,pics/turnstile.jpg,pics/stapler03a.jpg,pics/giraffe.jpg,pics/pictureframe04.jpg,pics/sandbarshark.jpg,pics/spoon01.jpg,blankImage,blankImage,blankImage,blankImage,blankImage,turnstile,13,,,,,,,,,,,,,,,,,,,,,,,,,,,,,,,,,,,,,,,,,,0,30,30,12,1,,,,,,,,,,,,,,,,,,,,,,,,,,,,,,,,,,,,,,,,,,,,,,,,,,,,,,
,,,,,5f590c2649483e0f1a0c0cbc,6682b41eeb79ab8215dff63d,6682b8468205177075b0672c,34,female,english,2024-07-01_10h10.05.490,ABmemTask3,2023.2.3,Win32,59.88023952,,,,,,,,,,,,,,,,,,,,,,,,,,,,,,,598.2795,599.2781,599.2782,7,599.7776,601.1765,0.001,601.2927,0.1163,0.1162,0.1168,0.1168,0.1166,0.1165,0.1165,0.1161,0.1172,0.1163,0.116,601.2927,602.1421,left,0.8307,,602.1421,602.5915,right,0.4444,,42,0,64,602.5915,603.5905,,,,,,1_AB,L1_T1A_T2P,1,0,1,7,8,6,5,13,statue,Did you see the statue,0.12,0,resources/,pics/giraffe.jpg,pics/seaturtle.jpg,pics/peach01.jpg,pics/boot02b.jpg,pics/backpack01a.jpg,pics/sandbarshark.jpg,pics/microscope.jpg,pics/stapler07.jpg,pics/snowshoe.jpg,pics/laptop01a.jpg,pics/necklace.jpg,pics/zebra.jpg,pics/carrot01.jpg,blankImage,blankImage,blankImage,blankImage,statue,27,0.1166,,,,,,,,,,,,,,,,,,,,,,,,,,,,,,,,,,,,,,,,,0,31,31,26,1,,,,,,,,,,,,,,,,,,,,,,,,,,,,,,,,,,,,,,,,,,,,,,,,,,,,,,
,,,,,5f590c2649483e0f1a0c0cbc,6682b41eeb79ab8215dff63d,6682b8468205177075b0672c,34,female,english,2024-07-01_10h10.05.490,ABmemTask3,2023.2.3,Win32,59.88023952,,,,,,,,,,,,,,,,,,,,,,,,,,,,,,,603.5909,604.5894,604.5894,7,605.0889,606.3712,0.001,606.4875,0.116,0.1166,0.1165,0.1164,0.117,0.1164,0.1163,0.1166,0.1167,0.1163,0.1164,606.4876,606.9206,right,0.4191,,606.9206,607.2202,right,0.2876,,44,0,66,607.2204,608.2192,,,,,,1_AB,L1_T1P_T2P,1,1,1,6,7,5,5,12,rope,Did you see the rope,0.12,0,resources/,pics/toiletpaper01a.jpg,pics/sewingmachine01a.jpg,pics/birdhouse.jpg,pics/sealion.jpg,pics/safetypin.jpg,pics/rope03.jpg,pics/stapler04.jpg,pics/binder03b.jpg,pics/ashtray01.jpg,pics/sandbarshark.jpg,pics/chainsaw.jpg,pics/nutcracker01.jpg,blankImage,blankImage,blankImage,blankImage,blankImage,rope03,4,,,,,,,,,,,,,,,,,,,,,,,,,,,,,,,,,,,,,,,,,,0,32,32,3,1,,,,,,,,,,,,,,,,,,,,,,,,,,,,,,,,,,,,,,,,,,,,,,,,,,,,,,
,,,,,5f590c2649483e0f1a0c0cbc,6682b41eeb79ab8215dff63d,6682b8468205177075b0672c,34,female,english,2024-07-01_10h10.05.490,ABmemTask3,2023.2.3,Win32,59.88023952,,,,,,,,,,,,,,,,,,,,,,,,,,,,,,,608.2197,609.2181,609.2182,7,609.7176,611.3498,0.0009,611.4659,0.1162,0.1164,0.1166,0.1167,0.1165,0.1166,0.1163,0.1166,0.1164,0.1165,0.1167,611.4661,612.0155,left,0.5409,,612.0156,612.2651,right,0.2444,,46,0,68,612.2651,613.2641,,,,,,1_AB,L5_T1A_T2P,5,0,1,5,10,4,5,15,scorpion,Did you see the scorpion,0.12,0,resources/,pics/pictureframe04.jpg,pics/binder03b.jpg,pics/pencil01.jpg,pics/leaf02a.jpg,pics/icecube01.jpg,pics/dromedary.jpg,pics/toiletpaper01a.jpg,pics/peanut01.jpg,pics/golfball.jpg,pics/stapler03.jpg,pics/carrot01.jpg,pics/peach01.jpg,pics/sealion.jpg,pics/football.jpg,pics/zebra.jpg,blankImage,blankImage,scorpion,54,0.1167,0.1165,0.1169,,,,,,,,,,,,,,,,,,,,,,,,,,,,,,,,,,,,,,,0,33,33,53,1,,,,,,,,,,,,,,,,,,,,,,,,,,,,,,,,,,,,,,,,,,,,,,,,,,,,,,
,,,,,5f590c2649483e0f1a0c0cbc,6682b41eeb79ab8215dff63d,6682b8468205177075b0672c,34,female,english,2024-07-01_10h10.05.490,ABmemTask3,2023.2.3,Win32,59.88023952,,,,,,,,,,,,,,,,,,,,,,,,,,,,,,,613.2644,614.2631,614.2632,7,614.7627,615.9284,0.0011,616.0448,0.1159,0.1166,0.1166,0.1162,0.1166,0.1167,0.1168,0.1161,0.117,0.1163,,616.0449,616.6276,left,0.5634,,616.6276,616.8775,left,0.2444,,48,0,70,616.8776,617.8763,,,,,,1_AB,L1_T1A_T2A,1,0,0,7,8,6,3,11,Poker chips,Did you see the Poker chips,0.12,0,resources/,pics/candle01.jpg,pics/proboscismonkey.jpg,pics/fanblades.jpg,pics/dromedary.jpg,pics/aquarium.jpg,pics/salmon.jpg,pics/hose.jpg,pics/kangaroo.jpg,pics/noparkingsign.jpg,pics/carrot01.jpg,pics/leaf02a.jpg,blankImage,blankImage,blankImage,blankImage,blankImage,blankImage,pokerchips,41,,,,,,,,,,,,,,,,,,,,,,,,,,,,,,,,,,,,,,,,,,0,34,34,40,1,,,,,,,,,,,,,,,,,,,,,,,,,,,,,,,,,,,,,,,,,,,,,,,,,,,,,,
,,,,,5f590c2649483e0f1a0c0cbc,6682b41eeb79ab8215dff63d,6682b8468205177075b0672c,34,female,english,2024-07-01_10h10.05.490,ABmemTask3,2023.2.3,Win32,59.88023952,,,,,,,,,,,,,,,,,,,,,,,,,,,,,,,617.877,618.8754,618.8754,7,619.3747,620.5404,0.0007,620.6567,0.1163,0.1166,0.1165,0.1165,0.1166,0.1165,0.1168,0.1164,0.1164,0.1165,,620.6568,621.2396,right,0.5765,,621.2396,621.6392,left,0.3835,,50,0,72,621.6394,622.6381,,,,,,1_AB,L1_T1P_T2A,1,1,0,7,8,6,3,11,garlic,Did you see the garlic,0.12,0,resources/,pics/zebra.jpg,pics/banjo.jpg,pics/pencilsharpener02a.jpg,pics/football.jpg,pics/candle01.jpg,pics/footballhelmet.jpg,pics/garlic01a.jpg,pics/birdhouse.jpg,pics/peach01.jpg,pics/pictureframe04.jpg,pics/binder03b.jpg,blankImage,blankImage,blankImage,blankImage,blankImage,blankImage,garlic01a,33,,,,,,,,,,,,,,,,,,,,,,,,,,,,,,,,,,,,,,,,,,0,35,35,32,1,,,,,,,,,,,,,,,,,,,,,,,,,,,,,,,,,,,,,,,,,,,,,,,,,,,,,,
,,,,,5f590c2649483e0f1a0c0cbc,6682b41eeb79ab8215dff63d,6682b8468205177075b0672c,34,female,english,2024-07-01_10h10.05.490,ABmemTask3,2023.2.3,Win32,59.88023952,,,,,,,,,,,,,,,,,,,,,,,,,,,,,,,622.6385,623.6374,623.6375,7,624.1367,625.6521,0.0007,625.7685,0.1161,0.1168,0.1172,0.1157,0.1164,0.1168,0.1164,0.1166,0.1165,0.1165,0.1171,625.7685,626.3355,left,0.5615,,626.3355,626.6177,left,0.2662,,50,0,74,626.6178,627.6165,,,,,,1_AB,L5_T1A_T2P,5,0,1,4,9,3,5,14,lemon,Did you see the lemon,0.12,0,resources/,pics/seaturtle.jpg,pics/lightswitch01.jpg,pics/candle01.jpg,pics/cannon.jpg,pics/seagull.jpg,pics/spoon01.jpg,pics/spiderweb.jpg,pics/sewingmachine01a.jpg,pics/stapler05.jpg,pics/binoculars01b.jpg,pics/zebra.jpg,pics/sealion.jpg,pics/shovel01.jpg,pics/wheel01.jpg,blankImage,blankImage,blankImage,lemon02,56,0.1161,0.1166,,,,,,,,,,,,,,,,,,,,,,,,,,,,,,,,,,,,,,,,0,36,36,55,1,,,,,,,,,,,,,,,,,,,,,,,,,,,,,,,,,,,,,,,,,,,,,,,,,,,,,,
,,,,,5f590c2649483e0f1a0c0cbc,6682b41eeb79ab8215dff63d,6682b8468205177075b0672c,34,female,english,2024-07-01_10h10.05.490,ABmemTask3,2023.2.3,Win32,59.88023952,,,,,,,,,,,,,,,,,,,,,,,,,,,,,,,627.6169,628.6155,628.6155,7,629.115,630.2808,0.0009,630.3971,0.1166,0.116,0.1168,0.1163,0.1167,0.1163,0.1176,0.1157,0.1167,0.1164,,630.3972,630.8302,right,0.4197,,630.8303,631.263,right,0.4193,,52,0,76,631.2631,632.2621,,,,,,1_AB,L1_T1P_T2P,1,1,1,7,8,6,3,11,bird,Did you see the bird,0.12,0,resources/,pics/sealion.jpg,pics/backpack01a.jpg,pics/hose.jpg,pics/table01.jpg,pics/wheel01.jpg,pics/seaturtle.jpg,pics/americangoldfinch.jpg,pics/stapler08.jpg,pics/siamesecat.jpg,pics/hammerheadshark.jpg,pics/ashtray01.jpg,blankImage,blankImage,blankImage,blankImage,blankImage,blankImage,americangoldfinch,23,,,,,,,,,,,,,,,,,,,,,,,,,,,,,,,,,,,,,,,,,,0,37,37,22,1,,,,,,,,,,,,,,,,,,,,,,,,,,,,,,,,,,,,,,,,,,,,,,,,,,,,,,
,,,,,5f590c2649483e0f1a0c0cbc,6682b41eeb79ab8215dff63d,6682b8468205177075b0672c,34,female,english,2024-07-01_10h10.05.490,ABmemTask3,2023.2.3,Win32,59.88023952,,,,,,,,,,,,,,,,,,,,,,,,,,,,,,,632.263,633.2608,633.2609,7,633.7605,635.0427,0.0011,635.1591,0.1158,0.1168,0.1168,0.1163,0.1163,0.1166,0.1164,0.1173,0.116,0.1166,0.1164,635.1591,635.559,right,0.3848,,635.559,635.8251,right,0.2526,,54,0,78,635.8252,636.8241,,,,,,1_AB,L1_T1P_T2P,1,1,1,6,7,5,5,12,jeep,Did you see the jeep,0.12,0,resources/,pics/sandbarshark.jpg,pics/laptop01a.jpg,pics/peach01.jpg,pics/binoculars01b.jpg,pics/giraffe.jpg,pics/jeep.jpg,pics/stapler03b.jpg,pics/fanblades.jpg,pics/cannon.jpg,pics/starfish01.jpg,pics/piggybank.jpg,pics/noparkingsign.jpg,blankImage,blankImage,blankImage,blankImage,blankImage,jeep,2,,,,,,,,,,,,,,,,,,,,,,,,,,,,,,,,,,,,,,,,,,0,38,38,1,1,,,,,,,,,,,,,,,,,,,,,,,,,,,,,,,,,,,,,,,,,,,,,,,,,,,,,,
,,,,,5f590c2649483e0f1a0c0cbc,6682b41eeb79ab8215dff63d,6682b8468205177075b0672c,34,female,english,2024-07-01_10h10.05.490,ABmemTask3,2023.2.3,Win32,59.88023952,,,,,,,,,,,,,,,,,,,,,,,,,,,,,,,636.8248,637.8232,637.8232,7,638.3228,639.2552,0.0007,639.3715,0.1162,0.1164,0.1165,0.1165,0.1167,0.1164,0.1165,0.1166,,,,639.3716,639.7711,right,0.3907,,639.7712,640.0542,right,0.2705,,56,0,80,640.0543,641.0531,,,,,,1_AB,L1_T1P_T2P,1,1,1,5,6,4,3,9,Ant,Did you see the Ant,0.12,0,resources/,pics/kangaroo.jpg,pics/giraffe.jpg,pics/footballhelmet.jpg,pics/onion.jpg,pics/ant.jpg,pics/stapler04b.jpg,pics/banjo.jpg,pics/zebra.jpg,pics/dromedary.jpg,blankImage,blankImage,blankImage,blankImage,blankImage,blankImage,blankImage,blankImage,ant,15,,,,,,,,,,,,,,,,,,,,,,,,,,,,,,,,,,,,,,,,,,0,39,39,14,1,,,,,,,,,,,,,,,,,,,,,,,,,,,,,,,,,,,,,,,,,,,,,,,,,,,,,,
,,,,,5f590c2649483e0f1a0c0cbc,6682b41eeb79ab8215dff63d,6682b8468205177075b0672c,34,female,english,2024-07-01_10h10.05.490,ABmemTask3,2023.2.3,Win32,59.88023952,,,,,,,,,,,,,,,,,,,,,,,,,,,,,,,641.0535,642.0521,642.0521,7,642.5517,643.9504,0.0009,644.0668,0.1162,0.1162,0.1168,0.1164,0.1168,0.1163,0.1169,0.1162,0.1167,0.1164,0.1166,644.0669,645.7486,left,1.6642,,645.7486,645.965,right,0.2127,,54,0,82,645.965,646.9646,,,,,,1_AB,L1_T1A_T2A,1,0,0,7,8,6,5,13,fan,Did you see the fan,0.12,0,resources/,pics/leaf02a.jpg,pics/dustpan.jpg,pics/pencil01.jpg,pics/kangaroo.jpg,pics/golfball.jpg,pics/lightswitch01.jpg,pics/nutcracker01.jpg,pics/calendar.jpg,pics/hose.jpg,pics/starfish01.jpg,pics/siamesecat.jpg,pics/bowlingpin.jpg,pics/necklace.jpg,blankImage,blankImage,blankImage,blankImage,fan,42,0.1165,,,,,,,,,,,,,,,,,,,,,,,,,,,,,,,,,,,,,,,,,0,40,40,41,1,,,,,,,,,,,,,,,,,,,,,,,,,,,,,,,,,,,,,,,,,,,,,,,,,,,,,,
,,,,,5f590c2649483e0f1a0c0cbc,6682b41eeb79ab8215dff63d,6682b8468205177075b0672c,34,female,english,2024-07-01_10h10.05.490,ABmemTask3,2023.2.3,Win32,59.88023952,,,,,,,,,,,,,,,,,,,,,,,,,,,,,,,646.9652,647.963,647.963,7,648.4625,649.3951,0.0008,649.5114,0.116,0.1166,0.1166,0.1166,0.1165,0.1168,0.1167,0.1161,,,,649.5114,650.9102,right,1.3828,,650.9104,651.1266,right,0.208,,56,0,84,651.1266,652.1254,,,,,,1_AB,L1_T1P_T2P,1,1,1,5,6,4,3,9,paint brush,Did you see the paint brush,0.12,0,resources/,pics/nutcracker01.jpg,pics/piggybank.jpg,pics/spiderweb.jpg,pics/table01.jpg,pics/paintbrush01.jpg,pics/stapler09.jpg,pics/hose.jpg,pics/cannon.jpg,pics/mummy.jpg,blankImage,blankImage,blankImage,blankImage,blankImage,blankImage,blankImage,blankImage,paintbrush01,20,,,,,,,,,,,,,,,,,,,,,,,,,,,,,,,,,,,,,,,,,,0,41,41,19,1,,,,,,,,,,,,,,,,,,,,,,,,,,,,,,,,,,,,,,,,,,,,,,,,,,,,,,
,,,,,5f590c2649483e0f1a0c0cbc,6682b41eeb79ab8215dff63d,6682b8468205177075b0672c,34,female,english,2024-07-01_10h10.05.490,ABmemTask3,2023.2.3,Win32,59.88023952,,,,,,,,,,,,,,,,,,,,,,,,,,,,,,,652.1257,653.1246,653.1247,7,653.624,655.256,0.0007,655.3722,0.1162,0.1167,0.1164,0.1168,0.1166,0.1166,0.1162,0.1166,0.1167,0.1167,0.1164,655.3723,656.0551,left,0.6765,,656.0552,656.3381,right,0.2665,,58,0,86,656.3381,657.3371,,,,,,1_AB,L5_T1A_T2P,5,0,1,7,12,6,3,15,scissors,Did you see the scissors,0.12,0,resources/,pics/cannon.jpg,pics/mummy.jpg,pics/shovel01.jpg,pics/christmaslights.jpg,pics/snowshoe.jpg,pics/candle01.jpg,pics/bowtie.jpg,pics/giraffe.jpg,pics/carrot01.jpg,pics/spoon01.jpg,pics/seaturtle.jpg,pics/stapler10.jpg,pics/footballhelmet.jpg,pics/onion.jpg,pics/wheel01.jpg,blankImage,blankImage,scissors01,57,0.1164,0.1167,0.1164,,,,,,,,,,,,,,,,,,,,,,,,,,,,,,,,,,,,,,,0,42,42,56,1,,,,,,,,,,,,,,,,,,,,,,,,,,,,,,,,,,,,,,,,,,,,,,,,,,,,,,
,,,,,5f590c2649483e0f1a0c0cbc,6682b41eeb79ab8215dff63d,6682b8468205177075b0672c,34,female,english,2024-07-01_10h10.05.490,ABmemTask3,2023.2.3,Win32,59.88023952,,,,,,,,,,,,,,,,,,,,,,,,,,,,,,,657.3374,658.3361,658.3362,7,658.8355,660.3511,0.0014,660.4674,0.116,0.1165,0.1166,0.1164,0.1164,0.1166,0.1166,0.1165,0.1166,0.1164,0.117,660.4674,660.9003,right,0.4147,,660.9004,661.1498,right,0.2392,,60,0,88,661.1499,662.1489,,,,,,1_AB,L5_T1P_T2P,5,1,1,5,10,4,4,14,Fox,Did you see the Fox,0.12,0,resources/,pics/hammerheadshark.jpg,pics/bowlingpin.jpg,pics/pictureframe04.jpg,pics/peanut01.jpg,pics/redfox.jpg,pics/cymbal.jpg,pics/spoon01.jpg,pics/banjo.jpg,pics/butterfly.jpg,pics/stapler11.jpg,pics/football.jpg,pics/safetypin.jpg,pics/triangle.jpg,pics/onion.jpg,blankImage,blankImage,blankImage,redfox,45,0.1163,0.1166,,,,,,,,,,,,,,,,,,,,,,,,,,,,,,,,,,,,,,,,0,43,43,44,1,,,,,,,,,,,,,,,,,,,,,,,,,,,,,,,,,,,,,,,,,,,,,,,,,,,,,,
,,,,,5f590c2649483e0f1a0c0cbc,6682b41eeb79ab8215dff63d,6682b8468205177075b0672c,34,female,english,2024-07-01_10h10.05.490,ABmemTask3,2023.2.3,Win32,59.88023952,,,,,,,,,,,,,,,,,,,,,,,,,,,,,,,662.1495,663.1481,663.1481,7,663.6474,665.1628,0.001,665.279,0.1159,0.1166,0.1165,0.1164,0.1167,0.1167,0.1169,0.1159,0.1167,0.1164,0.1166,665.279,665.9951,right,0.7025,,665.9953,666.2617,left,0.2504,,62,0,90,666.2617,667.2604,,,,,,1_AB,L5_T1P_T2A,5,1,0,4,9,3,5,14,Frisbee,Did you see the Frisbee,0.12,0,resources/,pics/giraffe.jpg,pics/christmaslights.jpg,pics/bowtie.jpg,pics/frisbee.jpg,pics/banjo.jpg,pics/calendar.jpg,pics/butterfly.jpg,pics/onion.jpg,pics/starfish01.jpg,pics/footballhelmet.jpg,pics/blender.jpg,pics/candleholder01.jpg,pics/hairdryer02a.jpg,pics/dromedary.jpg,blankImage,blankImage,blankImage,frisbee,58,0.1167,0.1166,,,,,,,,,,,,,,,,,,,,,,,,,,,,,,,,,,,,,,,,0,44,44,57,1,,,,,,,,,,,,,,,,,,,,,,,,,,,,,,,,,,,,,,,,,,,,,,,,,,,,,,
,,,,,5f590c2649483e0f1a0c0cbc,6682b41eeb79ab8215dff63d,6682b8468205177075b0672c,34,female,english,2024-07-01_10h10.05.490,ABmemTask3,2023.2.3,Win32,59.88023952,,,,,,,,,,,,,,,,,,,,,,,,,,,,,,,667.2607,668.2595,668.2595,7,668.7591,669.9247,0.0008,670.0409,0.116,0.117,0.1163,0.1171,0.1163,0.1164,0.1162,0.1166,0.1165,0.1166,,670.041,671.1067,left,1.044,,671.1068,671.3734,right,0.2556,,64,0,92,671.3734,672.3722,,,,,,1_AB,L1_T1A_T2P,1,0,1,7,8,6,3,11,turkey,Did you see the turkey,0.12,0,resources/,pics/proboscismonkey.jpg,pics/blender.jpg,pics/sealion.jpg,pics/snowshoe.jpg,pics/carrot01.jpg,pics/microscope.jpg,pics/piggybank.jpg,pics/stapler12.jpg,pics/peanut01.jpg,pics/dustpan.jpg,pics/footballhelmet.jpg,blankImage,blankImage,blankImage,blankImage,blankImage,blankImage,turkey,26,,,,,,,,,,,,,,,,,,,,,,,,,,,,,,,,,,,,,,,,,,0,45,45,25,1,,,,,,,,,,,,,,,,,,,,,,,,,,,,,,,,,,,,,,,,,,,,,,,,,,,,,,
,,,,,5f590c2649483e0f1a0c0cbc,6682b41eeb79ab8215dff63d,6682b8468205177075b0672c,34,female,english,2024-07-01_10h10.05.490,ABmemTask3,2023.2.3,Win32,59.88023952,,,,,,,,,,,,,,,,,,,,,,,,,,,,,,,672.3725,673.3711,673.3711,7,673.8705,675.5025,0.0008,675.6188,0.1162,0.1165,0.1166,0.1165,0.1169,0.1162,0.1165,0.1168,0.1167,0.1163,0.1165,675.6188,676.0519,right,0.4177,,676.052,676.3014,right,0.2362,,66,0,94,676.3015,677.3006,,,,,,1_AB,L5_T1P_T2P,5,1,1,6,11,5,4,15,toast,Did you see the toast,0.12,0,resources/,pics/piggybank.jpg,pics/leaf02a.jpg,pics/carrot01.jpg,pics/birdhouse.jpg,pics/bowlingpin.jpg,pics/toast.jpg,pics/spiderweb.jpg,pics/cork02.jpg,pics/sink.jpg,pics/nutcracker01.jpg,pics/stapler02.jpg,pics/ashtray01.jpg,pics/fanblades.jpg,pics/pencil01.jpg,pics/lightswitch01.jpg,blankImage,blankImage,toast,46,0.1166,0.1171,0.1159,,,,,,,,,,,,,,,,,,,,,,,,,,,,,,,,,,,,,,,0,46,46,45,1,,,,,,,,,,,,,,,,,,,,,,,,,,,,,,,,,,,,,,,,,,,,,,,,,,,,,,
,,,,,5f590c2649483e0f1a0c0cbc,6682b41eeb79ab8215dff63d,6682b8468205177075b0672c,34,female,english,2024-07-01_10h10.05.490,ABmemTask3,2023.2.3,Win32,59.88023952,,,,,,,,,,,,,,,,,,,,,,,,,,,,,,,677.3009,678.2996,678.2996,7,678.7992,679.7315,0.0012,679.8479,0.1155,0.1166,0.1167,0.1167,0.1162,0.1171,0.1164,0.1161,,,,679.848,681.0968,left,1.2297,,681.097,681.4297,right,0.3156,,68,0,96,681.4299,682.4286,,,,,,1_AB,L1_T1A_T2P,1,0,1,5,6,4,3,9,Trailer,Did you see the Trailer,0.12,0,resources/,pics/pencil01.jpg,pics/football.jpg,pics/hairdryer02a.jpg,pics/wheel01.jpg,pics/chainsaw.jpg,pics/stapler10.jpg,pics/peanut01.jpg,pics/triangle.jpg,pics/sink.jpg,blankImage,blankImage,blankImage,blankImage,blankImage,blankImage,blankImage,blankImage,boxtrailer,29,,,,,,,,,,,,,,,,,,,,,,,,,,,,,,,,,,,,,,,,,,0,47,47,28,1,,,,,,,,,,,,,,,,,,,,,,,,,,,,,,,,,,,,,,,,,,,,,,,,,,,,,,
,,,,,5f590c2649483e0f1a0c0cbc,6682b41eeb79ab8215dff63d,6682b8468205177075b0672c,34,female,english,2024-07-01_10h10.05.490,ABmemTask3,2023.2.3,Win32,59.88023952,,,,,,,,,,,,,,,,,,,,,,,,,,,,,,,682.4291,683.4276,683.4278,7,683.9273,685.5591,0.0009,685.6754,0.116,0.1166,0.1164,0.117,0.1165,0.1164,0.1163,0.1167,0.1168,0.1164,0.1163,685.6755,686.1584,right,0.471,,686.1585,686.4247,right,0.2507,,70,0,98,686.4248,687.424,,,,,,1_AB,L5_T1P_T2P,5,1,1,5,10,4,5,15,ribbon,Did you see the ribbon,0.12,0,resources/,pics/giraffe.jpg,pics/boot02b.jpg,pics/cymbal.jpg,pics/leaf02a.jpg,pics/ribbon04.jpg,pics/lightswitch01.jpg,pics/necklace.jpg,pics/calendar.jpg,pics/kangaroo.jpg,pics/stapler12.jpg,pics/hose.jpg,pics/carrot01.jpg,pics/match.jpg,pics/sink.jpg,pics/candleholder01.jpg,blankImage,blankImage,ribbon04,53,0.1165,0.1168,0.1163,,,,,,,,,,,,,,,,,,,,,,,,,,,,,,,,,,,,,,,0,48,48,52,1,,,,,,,,,,,,,,,,,,,,,,,,,,,,,,,,,,,,,,,,,,,,,,,,,,,,,,
,,,,,5f590c2649483e0f1a0c0cbc,6682b41eeb79ab8215dff63d,6682b8468205177075b0672c,34,female,english,2024-07-01_10h10.05.490,ABmemTask3,2023.2.3,Win32,59.88023952,,,,,,,,,,,,,,,,,,,,,,,,,,,,,,,687.4246,688.4228,688.4229,7,688.9224,690.5541,0.0014,690.6705,0.1153,0.1166,0.1165,0.1166,0.1166,0.1169,0.1167,0.1161,0.1168,0.1162,0.1165,690.6705,691.3699,right,0.6804,,691.3699,691.7031,right,0.3265,,72,0,100,691.7033,692.7022,,,,,,1_AB,L5_T1P_T2P,5,1,1,5,10,4,5,15,dolphin,Did you see the dolphin,0.12,0,resources/,pics/banjo.jpg,pics/shipinabottle.jpg,pics/laptop01a.jpg,pics/onion.jpg,pics/dolphin01.jpg,pics/sink.jpg,pics/seaturtle.jpg,pics/butterfly.jpg,pics/hen.jpg,pics/stapler10.jpg,pics/proboscismonkey.jpg,pics/starfish01.jpg,pics/salmon.jpg,pics/spiderweb.jpg,pics/cymbal.jpg,blankImage,blankImage,dolphin01,49,0.1168,0.1163,0.1165,,,,,,,,,,,,,,,,,,,,,,,,,,,,,,,,,,,,,,,0,49,49,48,1,,,,,,,,,,,,,,,,,,,,,,,,,,,,,,,,,,,,,,,,,,,,,,,,,,,,,,
,,,,,5f590c2649483e0f1a0c0cbc,6682b41eeb79ab8215dff63d,6682b8468205177075b0672c,34,female,english,2024-07-01_10h10.05.490,ABmemTask3,2023.2.3,Win32,59.88023952,,,,,,,,,,,,,,,,,,,,,,,,,,,,,,,692.703,693.7009,693.701,7,694.2003,695.2494,0.0009,695.3658,0.1161,0.1166,0.1166,0.1168,0.1162,0.1165,0.1167,0.1165,0.1165,,,695.3659,696.7479,left,1.373,,696.748,697.0476,right,0.2836,,74,0,102,697.0477,698.0467,,,,,,1_AB,L1_T1A_T2P,1,0,1,5,6,4,4,10,button,Did you see the button,0.12,0,resources/,pics/pencil01.jpg,pics/necklace.jpg,pics/sink.jpg,pics/noparkingsign.jpg,pics/banjo.jpg,pics/stapler03b.jpg,pics/candle01.jpg,pics/icecube01.jpg,pics/shovel01.jpg,pics/pencilsharpener02a.jpg,blankImage,blankImage,blankImage,blankImage,blankImage,blankImage,blankImage,button01,25,,,,,,,,,,,,,,,,,,,,,,,,,,,,,,,,,,,,,,,,,,0,50,50,24,1,,,,,,,,,,,,,,,,,,,,,,,,,,,,,,,,,,,,,,,,,,,,,,,,,,,,,,
,,,,,5f590c2649483e0f1a0c0cbc,6682b41eeb79ab8215dff63d,6682b8468205177075b0672c,34,female,english,2024-07-01_10h10.05.490,ABmemTask3,2023.2.3,Win32,59.88023952,,,,,,,,,,,,,,,,,,,,,,,,,,,,,,,698.0473,699.0455,699.0456,7,699.545,700.4777,0.0008,700.5939,0.1161,0.1165,0.1167,0.1165,0.1168,0.1163,0.1168,0.1163,,,,700.5939,701.5431,right,0.9301,,701.5431,701.7763,right,0.2186,,76,0,104,701.7763,702.7752,,,,,,1_AB,L1_T1P_T2P,1,1,1,5,6,4,3,9,cabbage,Did you see the cabbage,0.12,0,resources/,pics/match.jpg,pics/icecube01.jpg,pics/noparkingsign.jpg,pics/christmaslights.jpg,pics/cabbage.jpg,pics/stapler03a.jpg,pics/carrot01.jpg,pics/dustpan.jpg,pics/cannon.jpg,blankImage,blankImage,blankImage,blankImage,blankImage,blankImage,blankImage,blankImage,cabbage,14,,,,,,,,,,,,,,,,,,,,,,,,,,,,,,,,,,,,,,,,,,0,51,51,13,1,,,,,,,,,,,,,,,,,,,,,,,,,,,,,,,,,,,,,,,,,,,,,,,,,,,,,,
,,,,,5f590c2649483e0f1a0c0cbc,6682b41eeb79ab8215dff63d,6682b8468205177075b0672c,34,female,english,2024-07-01_10h10.05.490,ABmemTask3,2023.2.3,Win32,59.88023952,,,,,,,,,,,,,,,,,,,,,,,,,,,,,,,702.7756,703.7741,703.7742,7,704.2739,705.4399,0.0009,705.5556,0.1164,0.1161,0.1165,0.1165,0.1166,0.1168,0.1165,0.1163,0.1166,0.1171,,705.5557,706.0221,right,0.46,,706.0221,706.3217,right,0.2824,,78,0,106,706.3218,707.3206,,,,,,1_AB,L1_T1P_T2P,1,1,1,7,8,6,3,11,pliers,Did you see the pliers,0.12,0,resources/,pics/mummy.jpg,pics/binder03b.jpg,pics/bowtie.jpg,pics/toiletpaper01a.jpg,pics/football.jpg,pics/blender.jpg,pics/needlenosepliers01.jpg,pics/stapler13.jpg,pics/zebra.jpg,pics/hammerheadshark.jpg,pics/sealion.jpg,blankImage,blankImage,blankImage,blankImage,blankImage,blankImage,needlenosepliers01,6,,,,,,,,,,,,,,,,,,,,,,,,,,,,,,,,,,,,,,,,,,0,52,52,5,1,,,,,,,,,,,,,,,,,,,,,,,,,,,,,,,,,,,,,,,,,,,,,,,,,,,,,,
,,,,,5f590c2649483e0f1a0c0cbc,6682b41eeb79ab8215dff63d,6682b8468205177075b0672c,34,female,english,2024-07-01_10h10.05.490,ABmemTask3,2023.2.3,Win32,59.88023952,,,,,,,,,,,,,,,,,,,,,,,,,,,,,,,707.3209,708.3195,708.3196,7,708.8191,709.8683,0.0008,709.9846,0.1165,0.1162,0.1165,0.1168,0.1166,0.1163,0.1166,0.1166,0.1166,,,709.9847,711.2335,right,1.2301,,711.2336,711.5164,left,0.2668,,80,0,108,711.5165,712.5154,,,,,,1_AB,L1_T1P_T2A,1,1,0,6,7,5,3,10,Duct tape,Did you see the Duct tape,0.12,0,resources/,pics/butterfly.jpg,pics/noparkingsign.jpg,pics/pictureframe04.jpg,pics/cork02.jpg,pics/fanblades.jpg,pics/ducttape.jpg,pics/icecube01.jpg,pics/siamesecat.jpg,pics/sink.jpg,pics/sandbarshark.jpg,blankImage,blankImage,blankImage,blankImage,blankImage,blankImage,blankImage,ducttape,36,,,,,,,,,,,,,,,,,,,,,,,,,,,,,,,,,,,,,,,,,,0,53,53,35,1,,,,,,,,,,,,,,,,,,,,,,,,,,,,,,,,,,,,,,,,,,,,,,,,,,,,,,
,,,,,5f590c2649483e0f1a0c0cbc,6682b41eeb79ab8215dff63d,6682b8468205177075b0672c,34,female,english,2024-07-01_10h10.05.490,ABmemTask3,2023.2.3,Win32,59.88023952,,,,,,,,,,,,,,,,,,,,,,,,,,,,,,,712.5157,713.5145,713.5146,7,714.014,715.5292,0.0007,715.6457,0.1161,0.1166,0.1167,0.1164,0.1166,0.1169,0.1163,0.1164,0.1167,0.1166,0.1167,715.6458,716.0287,right,0.3641,,716.0287,716.2952,right,0.2509,,82,0,110,716.2952,717.294,,,,,,1_AB,L5_T1P_T2P,5,1,1,4,9,3,5,14,asparagus,Did you see the asparagus,0.12,0,resources/,pics/siamesecat.jpg,pics/starfish01.jpg,pics/aquarium.jpg,pics/asparagus.jpg,pics/salmon.jpg,pics/binoculars01b.jpg,pics/ball02.jpg,pics/calendar.jpg,pics/stapler10.jpg,pics/giraffe.jpg,pics/dromedary.jpg,pics/seaturtle.jpg,pics/sandbarshark.jpg,pics/shipinabottle.jpg,blankImage,blankImage,blankImage,asparagus,44,0.1168,0.116,,,,,,,,,,,,,,,,,,,,,,,,,,,,,,,,,,,,,,,,0,54,54,43,1,,,,,,,,,,,,,,,,,,,,,,,,,,,,,,,,,,,,,,,,,,,,,,,,,,,,,,
,,,,,5f590c2649483e0f1a0c0cbc,6682b41eeb79ab8215dff63d,6682b8468205177075b0672c,34,female,english,2024-07-01_10h10.05.490,ABmemTask3,2023.2.3,Win32,59.88023952,,,,,,,,,,,,,,,,,,,,,,,,,,,,,,,717.2944,718.2932,718.2932,7,718.7925,719.8419,0.0014,719.9582,0.1155,0.117,0.1161,0.1165,0.117,0.1171,0.1159,0.117,0.1162,,,719.9582,721.0074,left,1.0362,,721.0074,721.5565,right,0.5402,,78,0,112,721.5566,722.5557,,,,,,1_AB,L1_T1P_T2A,1,1,0,6,7,5,3,10,Electric toothbrush,Did you see the Electric toothbrush,0.12,0,resources/,pics/football.jpg,pics/sailboat.jpg,pics/cymbal.jpg,pics/hen.jpg,pics/pencil01.jpg,pics/electrictoothbrush01c.jpg,pics/bowlingpin.jpg,pics/wheel01.jpg,pics/birdhouse.jpg,pics/leaf02a.jpg,blankImage,blankImage,blankImage,blankImage,blankImage,blankImage,blankImage,electrictoothbrush01c,34,,,,,,,,,,,,,,,,,,,,,,,,,,,,,,,,,,,,,,,,,,0,55,55,33,1,,,,,,,,,,,,,,,,,,,,,,,,,,,,,,,,,,,,,,,,,,,,,,,,,,,,,,
,,,,,5f590c2649483e0f1a0c0cbc,6682b41eeb79ab8215dff63d,6682b8468205177075b0672c,34,female,english,2024-07-01_10h10.05.490,ABmemTask3,2023.2.3,Win32,59.88023952,,,,,,,,,,,,,,,,,,,,,,,,,,,,,,,722.5561,723.5544,723.5544,7,724.054,725.3363,0.0008,725.4527,0.1166,0.1161,0.1169,0.1163,0.1164,0.1166,0.1166,0.1168,0.1163,0.1164,0.1167,725.4527,726.485,left,1.0247,,726.4851,726.868,right,0.3684,,80,0,114,726.8681,727.8669,,,,,,1_AB,L5_T1A_T2P,5,0,1,4,9,3,3,12,rooster,Did you see the rooster,0.12,0,resources/,pics/table01.jpg,pics/icecube01.jpg,pics/dustpan.jpg,pics/lock03a.jpg,pics/sailboat.jpg,pics/salmon.jpg,pics/banjo.jpg,pics/zebra.jpg,pics/stapler09.jpg,pics/peach01.jpg,pics/chainsaw.jpg,pics/football.jpg,blankImage,blankImage,blankImage,blankImage,blankImage,rooster,55,,,,,,,,,,,,,,,,,,,,,,,,,,,,,,,,,,,,,,,,,,0,56,56,54,1,,,,,,,,,,,,,,,,,,,,,,,,,,,,,,,,,,,,,,,,,,,,,,,,,,,,,,
,,,,,5f590c2649483e0f1a0c0cbc,6682b41eeb79ab8215dff63d,6682b8468205177075b0672c,34,female,english,2024-07-01_10h10.05.490,ABmemTask3,2023.2.3,Win32,59.88023952,,,,,,,,,,,,,,,,,,,,,,,,,,,,,,,727.8676,728.866,728.866,7,729.3653,730.5312,0.001,730.6474,0.1166,0.1159,0.1171,0.1168,0.1163,0.1162,0.1165,0.1168,0.1164,0.1165,,730.6475,731.097,right,0.4429,,731.097,731.3803,right,0.2739,,82,0,116,731.3804,732.3792,,,,,,1_AB,L1_T1P_T2P,1,1,1,7,8,6,3,11,toothpick,Did you see the toothpick,0.12,0,resources/,pics/candleholder01.jpg,pics/blender.jpg,pics/siamesecat.jpg,pics/peanut01.jpg,pics/spiderweb.jpg,pics/football.jpg,pics/toothpick02.jpg,pics/stapler04b.jpg,pics/seagull.jpg,pics/pictureframe04.jpg,pics/shipinabottle.jpg,blankImage,blankImage,blankImage,blankImage,blankImage,blankImage,toothpick02,17,,,,,,,,,,,,,,,,,,,,,,,,,,,,,,,,,,,,,,,,,,0,57,57,16,1,,,,,,,,,,,,,,,,,,,,,,,,,,,,,,,,,,,,,,,,,,,,,,,,,,,,,,
,,,,,5f590c2649483e0f1a0c0cbc,6682b41eeb79ab8215dff63d,6682b8468205177075b0672c,34,female,english,2024-07-01_10h10.05.490,ABmemTask3,2023.2.3,Win32,59.88023952,,,,,,,,,,,,,,,,,,,,,,,,,,,,,,,732.3799,733.378,733.3781,7,733.8775,734.9273,0.0008,735.043,0.1164,0.1163,0.1169,0.1161,0.1166,0.1166,0.1169,0.1163,0.1171,,,735.0431,735.8426,left,0.7882,,735.8426,736.6917,right,0.8376,,84,0,118,736.6917,737.6907,,,,,,1_AB,L1_T1A_T2P,1,0,1,5,6,4,4,10,Rabbit,Did you see the Rabbit,0.12,0,resources/,pics/cannon.jpg,pics/proboscismonkey.jpg,pics/salmon.jpg,pics/nutcracker01.jpg,pics/seagull.jpg,pics/stapler02.jpg,pics/table01.jpg,pics/laptop01a.jpg,pics/necklace.jpg,pics/pencilsharpener02a.jpg,blankImage,blankImage,blankImage,blankImage,blankImage,blankImage,blankImage,jackrabbit,31,,,,,,,,,,,,,,,,,,,,,,,,,,,,,,,,,,,,,,,,,,0,58,58,30,1,,,,,,,,,,,,,,,,,,,,,,,,,,,,,,,,,,,,,,,,,,,,,,,,,,,,,,
,,,,,5f590c2649483e0f1a0c0cbc,6682b41eeb79ab8215dff63d,6682b8468205177075b0672c,34,female,english,2024-07-01_10h10.05.490,ABmemTask3,2023.2.3,Win32,59.88023952,,,,,,,,,,,,,,,,,,,,,,,,,,,,,,,737.6984,738.6893,738.6894,7,739.1889,740.3546,0.0007,740.471,0.1163,0.1166,0.1165,0.1165,0.1169,0.1162,0.117,0.1161,0.1165,0.1167,,740.4711,741.1869,left,0.7022,,741.1871,741.4367,right,0.2412,,86,0,120,741.4369,742.4356,,,,,,1_AB,L1_T1A_T2P,1,0,1,5,6,4,5,11,Recorder,Did you see the Recorder,0.12,0,resources/,pics/bowtie.jpg,pics/nutcracker01.jpg,pics/hairdryer02a.jpg,pics/shovel01.jpg,pics/onion.jpg,pics/stapler13.jpg,pics/safetypin.jpg,pics/spiderweb.jpg,pics/seagull.jpg,pics/dustpan.jpg,pics/icecube01.jpg,blankImage,blankImage,blankImage,blankImage,blankImage,blankImage,recorder04,28,,,,,,,,,,,,,,,,,,,,,,,,,,,,,,,,,,,,,,,,,,0,59,59,27,1,,,,,,,,,,,,,,,,,,,,,,,,,,,,,,,,,,,,,,,,,,,,,,,,,,,,,,
,,,,,5f590c2649483e0f1a0c0cbc,6682b41eeb79ab8215dff63d,6682b8468205177075b0672c,34,female,english,2024-07-01_10h10.05.490,ABmemTask3,2023.2.3,Win32,59.88023952,,,,,,,,,,,,,,,,,,,,,,,,,,,,,,,742.436,743.4349,743.435,7,743.9342,745.333,0.0011,745.4494,0.1158,0.1166,0.1167,0.1164,0.1166,0.1165,0.1166,0.1167,0.1163,0.1168,0.1164,745.4495,746.3152,right,0.852,,746.3153,746.565,right,0.2381,,88,0,122,746.5652,747.564,,,,,,1_AB,L1_T1P_T2P,1,1,1,7,8,6,5,13,Totem Pole,Did you see the Totem Pole,0.12,0,resources/,pics/laptop01a.jpg,pics/carrot01.jpg,pics/wheel01.jpg,pics/icecube01.jpg,pics/ashtray01.jpg,pics/lock03a.jpg,pics/totempole.jpg,pics/stapler08.jpg,pics/golfball.jpg,pics/pencil01.jpg,pics/banjo.jpg,pics/sandbarshark.jpg,pics/shipinabottle.jpg,blankImage,blankImage,blankImage,blankImage,totempole,22,0.1165,,,,,,,,,,,,,,,,,,,,,,,,,,,,,,,,,,,,,,,,,0,60,60,21,1,,,,,,,,,,,,,,,,,,,,,,,,,,,,,,,,,,,,,,,,,,,,,,,,,,,,,,
,,,,,5f590c2649483e0f1a0c0cbc,6682b41eeb79ab8215dff63d,6682b8468205177075b0672c,34,female,english,2024-07-01_10h10.05.490,ABmemTask3,2023.2.3,Win32,59.88023952,,,,,,,,,,,,,,,,,,,,,,,,,,,,,,,747.5645,748.5629,748.563,7,749.0626,750.1116,0.0008,750.2279,0.1162,0.1163,0.1166,0.1165,0.1164,0.1168,0.1164,0.1165,0.1165,,,750.228,751.7265,left,1.4931,,751.7266,752.1594,left,0.4257,,86,0,124,752.1595,753.1584,,,,,,1_AB,L1_T1P_T2P,1,1,1,4,5,3,5,10,flute,Did you see the flute,0.12,0,resources/,pics/peach01.jpg,pics/seaturtle.jpg,pics/dromedary.jpg,pics/recorder01.jpg,pics/stapler08.jpg,pics/giraffe.jpg,pics/blender.jpg,pics/necklace.jpg,pics/sink.jpg,pics/dustpan.jpg,blankImage,blankImage,blankImage,blankImage,blankImage,blankImage,blankImage,recorder01,7,,,,,,,,,,,,,,,,,,,,,,,,,,,,,,,,,,,,,,,,,,0,61,61,6,1,,,,,,,,,,,,,,,,,,,,,,,,,,,,,,,,,,,,,,,,,,,,,,,,,,,,,,
,,,,,5f590c2649483e0f1a0c0cbc,6682b41eeb79ab8215dff63d,6682b8468205177075b0672c,34,female,english,2024-07-01_10h10.05.490,ABmemTask3,2023.2.3,Win32,59.88023952,,,,,,,,,,,,,,,,,,,,,,,,,,,,,,,,,,,,,,,,,,,,,,,,,,,,,,,,,,,,,,,,,,,,,,,,,,,,,,,,,,,,,,,,,,,,,,,,,,,,,,,,,,,753.1592,758.0209,space,4.849,,,,,,,,,,,,,,,,,,,,,,,,,,,,,,,,,,,,,,,,,,,,,,,,,,,,,,,,,,,,,,,,,,,,,,,,,,,,,,,,,,,,,,,,,,,,,
,,,,,5f590c2649483e0f1a0c0cbc,6682b41eeb79ab8215dff63d,6682b8468205177075b0672c,34,female,english,2024-07-01_10h10.05.490,ABmemTask3,2023.2.3,Win32,59.88023952,,,space,77.6742,,,,,,,,,,,,,,,,,,,,,,,,,,,,,,,,,,,,,,,,,,,,,,,,,,,,,,,,,,,,,,,,,,,,,,,,,,,,,,,,,,,,,,,,,,,,,,,,,,,,,,,,,,,,,,,,,,,,,,,,,,,,,,,,,,,,,,,,,,,,,,,,,,,758.021,835.7271,,,,,,,,,,,,,,,,,,,,,,,,,,,,,,,,,,,,,,,,,,,,,,,,,,,
,,,,,5f590c2649483e0f1a0c0cbc,6682b41eeb79ab8215dff63d,6682b8468205177075b0672c,34,female,english,2024-07-01_10h10.05.490,ABmemTask3,2023.2.3,Win32,59.88023952,,,,,,,,,,,,,,,,,,,,,,,,,,,,,,,,,,,,,,,,,,,,,,,,,,,,,,,,,,,,,,,,,,,,,,,,,,,,,,,,,,,,,,,,,,,,,,,,,,,,,,,,,,,,,,,,,,,,,,,,,,,,,,,,,,,,,,,,,,,,,,,,,,,,,,,,,835.7272,839.3398,space,3.5871,,,,,,,,,,,,,,,,,,,,,,,,,,,,,,,,,,,,,,,,,,,,,,,
,,,,,5f590c2649483e0f1a0c0cbc,6682b41eeb79ab8215dff63d,6682b8468205177075b0672c,34,female,english,2024-07-01_10h10.05.490,ABmemTask3,2023.2.3,Win32,59.88023952,,,,,,,,,,,,,,,,,,,,,,,,,,,,,,,839.3488,840.3386,840.3386,7,840.8381,842.3534,0.0012,842.4696,0.116,0.1161,0.1166,0.1165,0.1165,0.1165,0.117,0.116,0.1166,0.1167,0.1164,842.4699,844.6842,right,2.1972,,,,,,,1,86,2,844.6843,845.6832,,,,,,2_AB,L5_T1P_T2A,5,1,0,5,10,4,4,14,No smoking sign,Did you see the No smoking sign,0.12,0,resources/,pics/backpack01a.jpg,pics/floortile02.jpg,pics/pictureframe04.jpg,pics/pencilsharpener02a.jpg,pics/nosmokingsign.jpg,pics/cymbal.jpg,pics/piggybank.jpg,pics/football.jpg,pics/aquarium.jpg,pics/wheel01.jpg,pics/candleholder01.jpg,pics/snowshoe.jpg,pics/hammerheadshark.jpg,pics/lightswitch01.jpg,blankImage,blankImage,blankImage,nosmokingsign,61,0.1166,0.1168,,,,,,,,,,,,,,,,,,,,,,,,,,,,,,,,,,,,,,,,,,,,,,,,,,,,,0,0,0,60,1,,,,,,,,,,,,,,,,,,,,,,,,,,,,,,,,,,,,,,,,,
,,,,,5f590c2649483e0f1a0c0cbc,6682b41eeb79ab8215dff63d,6682b8468205177075b0672c,34,female,english,2024-07-01_10h10.05.490,ABmemTask3,2023.2.3,Win32,59.88023952,,,,,,,,,,,,,,,,,,,,,,,,,,,,,,,845.6837,846.6822,846.6823,7,847.1816,848.9301,0.0009,849.0464,0.116,0.1166,0.1165,0.1165,0.1168,0.1164,0.1166,0.1164,0.1172,0.1161,0.1165,849.0464,849.6625,right,0.5975,,,,,,,2,86,4,849.6625,850.6615,,,,,,2_AB,L5_T1P_T2P,5,1,1,7,12,6,4,16,printer,Did you see the printer,0.12,0,resources/,pics/laptop01a.jpg,pics/peanut01.jpg,pics/backpack01a.jpg,pics/snowshoe.jpg,pics/lock03a.jpg,pics/table01.jpg,pics/printer02.jpg,pics/leaf02a.jpg,pics/match.jpg,pics/piggybank.jpg,pics/binoculars01b.jpg,pics/stapler08.jpg,pics/floortile02.jpg,pics/noparkingsign.jpg,pics/wheel01.jpg,pics/mummy.jpg,blankImage,printer02,44,0.1167,0.1163,0.1166,,,,,,,,,,,,,,,,,,,,,,,,,,,,,,,,,,,,,,0.1166,,,,,,,,,,,,,,0,1,1,43,1,,,,,,,,,,,,,,,,,,,,,,,,,,,,,,,,,,,,,,,,,
,,,,,5f590c2649483e0f1a0c0cbc,6682b41eeb79ab8215dff63d,6682b8468205177075b0672c,34,female,english,2024-07-01_10h10.05.490,ABmemTask3,2023.2.3,Win32,59.88023952,,,,,,,,,,,,,,,,,,,,,,,,,,,,,,,850.6618,851.6606,851.6606,7,852.1601,854.0251,0.0014,854.1417,0.1154,0.1165,0.1168,0.1163,0.1165,0.1167,0.1165,0.1166,0.1165,0.1165,0.1167,854.1417,854.541,right,0.3855,,,,,,,3,86,6,854.5411,855.5399,,,,,,2_AB,L5_T1P_T2P,5,1,1,7,12,6,5,17,lips,Did you see the lips,0.12,0,resources/,pics/binder03b.jpg,pics/christmaslights.jpg,pics/shovel01.jpg,pics/wheel01.jpg,pics/calendar.jpg,pics/sealion.jpg,pics/lip.jpg,pics/table01.jpg,pics/seagull.jpg,pics/hammerheadshark.jpg,pics/bowtie.jpg,pics/stapler05.jpg,pics/mummy.jpg,pics/hen.jpg,pics/golfball.jpg,pics/fanblades.jpg,pics/laptop01a.jpg,lip,43,0.1165,0.1165,0.1171,,,,,,,,,,,,,,,,,,,,,,,,,,,,,,,,,,,,,,0.1162,,,,,,0.1165,,,,,,,,0,2,2,42,1,,,,,,,,,,,,,,,,,,,,,,,,,,,,,,,,,,,,,,,,,
,,,,,5f590c2649483e0f1a0c0cbc,6682b41eeb79ab8215dff63d,6682b8468205177075b0672c,34,female,english,2024-07-01_10h10.05.490,ABmemTask3,2023.2.3,Win32,59.88023952,,,,,,,,,,,,,,,,,,,,,,,,,,,,,,,855.5403,856.539,856.539,7,857.0385,858.3208,0.0007,858.437,0.1161,0.1166,0.1165,0.1174,0.1157,0.1173,0.1162,0.1164,0.1165,0.1167,0.1164,858.4371,859.303,right,0.8561,,,,,,,4,86,8,859.3031,860.3019,,,,,,2_AB,L5_T1P_T2P,5,1,1,4,9,3,3,12,Skis,Did you see the Skis,0.12,0,resources/,pics/mummy.jpg,pics/microscope.jpg,pics/pencilsharpener02a.jpg,pics/crosscountryski.jpg,pics/butterfly.jpg,pics/chainsaw.jpg,pics/sink.jpg,pics/boot02b.jpg,pics/stapler03b.jpg,pics/spoon01.jpg,pics/necklace.jpg,pics/peach01.jpg,blankImage,blankImage,blankImage,blankImage,blankImage,crosscountryski,52,,,,,,,,,,,,,,,,,,,,,,,,,,,,,,,,,,,,,,,,,,,,,,,,,,,,,,,0,3,3,51,1,,,,,,,,,,,,,,,,,,,,,,,,,,,,,,,,,,,,,,,,,
,,,,,5f590c2649483e0f1a0c0cbc,6682b41eeb79ab8215dff63d,6682b8468205177075b0672c,34,female,english,2024-07-01_10h10.05.490,ABmemTask3,2023.2.3,Win32,59.88023952,,,,,,,,,,,,,,,,,,,,,,,,,,,,,,,860.3022,861.301,861.3011,7,861.8005,862.8495,0.0013,862.9661,0.1163,0.1159,0.1165,0.1166,0.1166,0.1164,0.1165,0.1167,0.1165,,,862.9662,863.4988,right,0.5163,,,,,,,5,86,10,863.499,864.4977,,,,,,2_AB,L1_T1P_T2P,1,1,1,4,5,3,5,10,church,Did you see the church,0.12,0,resources/,pics/sewingmachine01a.jpg,pics/footballhelmet.jpg,pics/floortile02.jpg,pics/church.jpg,pics/stapler13.jpg,pics/football.jpg,pics/calendar.jpg,pics/ashtray01.jpg,pics/blender.jpg,pics/spoon01.jpg,blankImage,blankImage,blankImage,blankImage,blankImage,blankImage,blankImage,church,15,,,,,,,,,,,,,,,,,,,,,,,,,,,,,,,,,,,,,,,,,,,,,,,,,,,,,,,0,4,4,14,1,,,,,,,,,,,,,,,,,,,,,,,,,,,,,,,,,,,,,,,,,
,,,,,5f590c2649483e0f1a0c0cbc,6682b41eeb79ab8215dff63d,6682b8468205177075b0672c,34,female,english,2024-07-01_10h10.05.490,ABmemTask3,2023.2.3,Win32,59.88023952,,,,,,,,,,,,,,,,,,,,,,,,,,,,,,,864.4981,865.4967,865.4967,7,865.9963,867.2786,0.001,867.3948,0.1158,0.1168,0.1164,0.117,0.116,0.1167,0.1165,0.1168,0.1162,0.1165,0.1168,867.3949,867.8611,right,0.4512,,,,,,,6,86,12,867.8612,868.86,,,,,,2_AB,L5_T1P_T2P,5,1,1,4,9,3,3,12,tent,Did you see the tent,0.12,0,resources/,pics/spiderweb.jpg,pics/hairdryer02a.jpg,pics/noparkingsign.jpg,pics/tent.jpg,pics/nutcracker01.jpg,pics/boot02b.jpg,pics/golfball.jpg,pics/candle01.jpg,pics/stapler08.jpg,pics/fanblades.jpg,pics/cannon.jpg,pics/lightswitch01.jpg,blankImage,blankImage,blankImage,blankImage,blankImage,tent,51,,,,,,,,,,,,,,,,,,,,,,,,,,,,,,,,,,,,,,,,,,,,,,,,,,,,,,,0,5,5,50,1,,,,,,,,,,,,,,,,,,,,,,,,,,,,,,,,,,,,,,,,,
,,,,,5f590c2649483e0f1a0c0cbc,6682b41eeb79ab8215dff63d,6682b8468205177075b0672c,34,female,english,2024-07-01_10h10.05.490,ABmemTask3,2023.2.3,Win32,59.88023952,,,,,,,,,,,,,,,,,,,,,,,,,,,,,,,868.8604,869.859,869.859,7,870.3587,871.6409,0.0009,871.7571,0.1159,0.1166,0.1165,0.1165,0.1165,0.1166,0.1167,0.1165,0.1169,0.1161,0.1167,871.7571,872.3399,left,0.5729,,,,,,,7,86,14,872.34,873.3391,,,,,,2_AB,L1_T1A_T2P,1,0,1,7,8,6,4,12,brick,Did you see the brick,0.12,0,resources/,pics/mummy.jpg,pics/fanblades.jpg,pics/butterfly.jpg,pics/kangaroo.jpg,pics/proboscismonkey.jpg,pics/hose.jpg,pics/onion.jpg,pics/stapler04.jpg,pics/peach01.jpg,pics/birdhouse.jpg,pics/footballhelmet.jpg,pics/seaturtle.jpg,blankImage,blankImage,blankImage,blankImage,blankImage,brick,25,,,,,,,,,,,,,,,,,,,,,,,,,,,,,,,,,,,,,,,,,,,,,,,,,,,,,,,0,6,6,24,1,,,,,,,,,,,,,,,,,,,,,,,,,,,,,,,,,,,,,,,,,
,,,,,5f590c2649483e0f1a0c0cbc,6682b41eeb79ab8215dff63d,6682b8468205177075b0672c,34,female,english,2024-07-01_10h10.05.490,ABmemTask3,2023.2.3,Win32,59.88023952,,,,,,,,,,,,,,,,,,,,,,,,,,,,,,,873.3397,874.338,874.338,7,874.8375,875.6535,0.0009,875.7697,0.1163,0.1163,0.1166,0.1166,0.1166,0.1164,0.1166,,,,,875.7698,876.2028,right,0.4199,,,,,,,8,86,16,876.2028,877.2017,,,,,,2_AB,L1_T1P_T2A,1,1,0,4,5,3,3,8,almonds,Did you see the almonds,0.12,0,resources/,pics/shovel01.jpg,pics/icecube01.jpg,pics/candleholder01.jpg,pics/almond.jpg,pics/onion.jpg,pics/lightswitch01.jpg,pics/lock03a.jpg,pics/pencilsharpener02a.jpg,blankImage,blankImage,blankImage,blankImage,blankImage,blankImage,blankImage,blankImage,blankImage,almond,38,,,,,,,,,,,,,,,,,,,,,,,,,,,,,,,,,,,,,,,,,,,,,,,,,,,,,,,0,7,7,37,1,,,,,,,,,,,,,,,,,,,,,,,,,,,,,,,,,,,,,,,,,
,,,,,5f590c2649483e0f1a0c0cbc,6682b41eeb79ab8215dff63d,6682b8468205177075b0672c,34,female,english,2024-07-01_10h10.05.490,ABmemTask3,2023.2.3,Win32,59.88023952,,,,,,,,,,,,,,,,,,,,,,,,,,,,,,,877.2021,878.2007,878.2008,7,878.7002,880.4489,0.0008,880.565,0.1167,0.1164,0.1162,0.1165,0.1173,0.1159,0.1166,0.1165,0.1165,0.1167,0.1168,880.565,881.0146,right,0.4425,,,,,,,9,86,18,881.0147,882.0137,,,,,,2_AB,L5_T1P_T2P,5,1,1,6,11,5,5,16,Escalator,Did you see the Escalator,0.12,0,resources/,pics/carrot01.jpg,pics/microscope.jpg,pics/peanut01.jpg,pics/chainsaw.jpg,pics/icecube01.jpg,pics/escalator.jpg,pics/piggybank.jpg,pics/table01.jpg,pics/butterfly.jpg,pics/siamesecat.jpg,pics/stapler09.jpg,pics/noparkingsign.jpg,pics/peach01.jpg,pics/cannon.jpg,pics/shipinabottle.jpg,pics/football.jpg,blankImage,escalator,47,0.1162,0.1164,0.1168,,,,,,,,,,,,,,,,,,,,,,,,,,,,,,,,,,,,,,0.1165,,,,,,,,,,,,,,0,8,8,46,1,,,,,,,,,,,,,,,,,,,,,,,,,,,,,,,,,,,,,,,,,
,,,,,5f590c2649483e0f1a0c0cbc,6682b41eeb79ab8215dff63d,6682b8468205177075b0672c,34,female,english,2024-07-01_10h10.05.490,ABmemTask3,2023.2.3,Win32,59.88023952,,,,,,,,,,,,,,,,,,,,,,,,,,,,,,,882.014,883.0125,883.0127,7,883.5121,884.9112,0.0009,885.0273,0.116,0.1166,0.1166,0.1165,0.1169,0.1164,0.1174,0.1157,0.1163,0.1167,0.1172,885.0274,885.4603,right,0.4215,,,,,,,10,86,20,885.4604,886.4593,,,,,,2_AB,L1_T1P_T2P,1,1,1,7,8,6,5,13,Stool,Did you see the Stool,0.12,0,resources/,pics/boot02b.jpg,pics/sewingmachine01a.jpg,pics/kangaroo.jpg,pics/hairdryer02a.jpg,pics/floortile02.jpg,pics/onion.jpg,pics/stool01.jpg,pics/stapler07.jpg,pics/laptop01a.jpg,pics/zebra.jpg,pics/starfish01.jpg,pics/candleholder01.jpg,pics/hose.jpg,blankImage,blankImage,blankImage,blankImage,stool01,7,0.1162,,,,,,,,,,,,,,,,,,,,,,,,,,,,,,,,,,,,,,,,,,,,,,,,,,,,,,0,9,9,6,1,,,,,,,,,,,,,,,,,,,,,,,,,,,,,,,,,,,,,,,,,
