consent1.started,consent1.stopped,key_resp_8.keys,key_resp_8.rt,key_resp_8.duration,PROLIFIC_PID,STUDY_ID,SESSION_ID,age,sex,native language,date,expName,psychopyVersion,OS,frameRate,consent2.started,consent2.stopped,key_resp_9.keys,key_resp_9.rt,key_resp_9.duration,consent3.started,consent3.stopped,key_resp_10.keys,key_resp_10.rt,key_resp_10.duration,consent4.started,consent4.stopped,key_resp_11.keys,key_resp_11.rt,key_resp_11.duration,consent5.started,consent5.stopped,key_resp_12.keys,key_resp_12.rt,key_resp_12.duration,bonusInstruct.started,bonusInstruct.stopped,key_resp_14.keys,key_resp_14.rt,key_resp_14.duration,practiceInstruct.started,practiceInstruct.stopped,key_resp.keys,key_resp.rt,key_resp.duration,cueWord_2.started,cueWord_2.stopped,fix.started,frameTarget,fix.stopped,trial.started,img1Add,trial.stopped,img2Add,img3Add,img4Add,img5Add,img6Add,img7Add,img8Add,img9Add,img10Add,img11Add,img12Add,prompt1.started,prompt1.stopped,key_resp_2.keys,key_resp_2.rt,key_resp_2.duration,prompt2.started,prompt2.stopped,key_resp_3.keys,key_resp_3.rt,key_resp_3.duration,runningAcc_AB,runningTotal,runningCount_AB,feedback.started,feedback.stopped,trials.thisRepN,trials.thisTrialN,trials.thisN,trials.thisIndex,trials.ran,TrialType,CondType,Lag,T1_PA,T2_PA,T1Loc,T2Loc,PreDistractor,PostDistractor,TotalImg,cueWord,T1cue,StimLength,isi,PicFolder,Img1,Img2,Img3,Img4,Img5,Img6,Img7,Img8,Img9,Img10,Img11,Img12,Img13,Img14,Img15,Img16,Img17,T1_Identity,trialID,img13Add,img14Add,img15Add,ABfeedback.started,ABfeedback.stopped,key_resp_13.keys,key_resp_13.rt,key_resp_13.duration,MemPracticeInstruction.started,MemPracticeInstruction.stopped,key_resp_5.keys,key_resp_5.rt,key_resp_5.duration,memTrial.started,memTrial.stopped,Mem_runningPoints,key_resp_4.keys,key_resp_4.rt,key_resp_4.duration,memTrialFeedback.started,memTrialFeedback.stopped,trials_2.thisRepN,trials_2.thisTrialN,trials_2.thisN,trials_2.thisIndex,trials_2.ran,ABtrialID,priorLag,image,memFeedback.started,memFeedback.frame,memFeedback.ended,memFeedback.stopped,bonus.started,bonus.stopped,memoryBlockABInstruct.started,memoryBlockABInstruct.stopped,key_resp_6.keys,key_resp_6.rt,key_resp_6.duration,AB_block_1.thisRepN,AB_block_1.thisTrialN,AB_block_1.thisN,AB_block_1.thisIndex,AB_block_1.ran,img16Add,img17Add,AB_break1.started,AB_break1.stopped,PerceiveBlockABInstruct.started,PerceiveBlockABInstruct.stopped,key_resp_7.keys,key_resp_7.rt,key_resp_7.duration,AB_block_2.thisRepN,AB_block_2.thisTrialN,AB_block_2.thisN,AB_block_2.thisIndex,AB_block_2.ran,AB_break2.started,AB_break2.stopped,AB_block_3.thisRepN,AB_block_3.thisTrialN,AB_block_3.thisN,AB_block_3.thisIndex,AB_block_3.ran,AB_break3.started,AB_break3.stopped,AB_block_4.thisRepN,AB_block_4.thisTrialN,AB_block_4.thisN,AB_block_4.thisIndex,AB_block_4.ran,AB_break4.started,AB_break4.stopped,AB_block_5.thisRepN,AB_block_5.thisTrialN,AB_block_5.thisN,AB_block_5.thisIndex,AB_block_5.ran,AB_break5.started,AB_break5.stopped,AB_block_6.thisRepN,AB_block_6.thisTrialN,AB_block_6.thisN,AB_block_6.thisIndex,AB_block_6.ran,AB_break6.started,AB_break6.stopped,MemInstructionSURPRISE.started,MemInstructionSURPRISE.stopped,MemInstruction.started,MemInstruction.stopped,memBreak.started,memBreak.stopped,Mem_block_1.thisRepN,Mem_block_1.thisTrialN,Mem_block_1.thisN,Mem_block_1.thisIndex,Mem_block_1.ran
0.0005,6.559,space,6.5378,,65dcb1277d4c8c0b58de2db7,6682b41eeb79ab8215dff63d,6682b9f65ff67f9577442b56,59,Male,English,2024-07-01_15h16.15.394,ABmemTask3,2023.2.3,Win32,60.97560976,,,,,,,,,,,,,,,,,,,,,,,,,,,,,,,,,,,,,,,,,,,,,,,,,,,,,,,,,,,,,,,,,,,,,,,,,,,,,,,,,,,,,,,,,,,,,,,,,,,,,,,,,,,,,,,,,,,,,,,,,,,,,,,,,,,,,,,,,,,,,,,,,,,,,,,,,,,,,,,,,,,,,,,,,,,,,,,,,,,,,,,,,,,,,,,,,,,,,,,,,,,
,,,,,65dcb1277d4c8c0b58de2db7,6682b41eeb79ab8215dff63d,6682b9f65ff67f9577442b56,59,Male,English,2024-07-01_15h16.15.394,ABmemTask3,2023.2.3,Win32,60.97560976,6.5593,40.0967,space,33.4696,,,,,,,,,,,,,,,,,,,,,,,,,,,,,,,,,,,,,,,,,,,,,,,,,,,,,,,,,,,,,,,,,,,,,,,,,,,,,,,,,,,,,,,,,,,,,,,,,,,,,,,,,,,,,,,,,,,,,,,,,,,,,,,,,,,,,,,,,,,,,,,,,,,,,,,,,,,,,,,,,,,,,,,,,,,,,,,,,,,,,,,,,,,,,,,,,,,,,,,
,,,,,65dcb1277d4c8c0b58de2db7,6682b41eeb79ab8215dff63d,6682b9f65ff67f9577442b56,59,Male,English,2024-07-01_15h16.15.394,ABmemTask3,2023.2.3,Win32,60.97560976,,,,,,40.0969,44.6064,space,4.4716,,,,,,,,,,,,,,,,,,,,,,,,,,,,,,,,,,,,,,,,,,,,,,,,,,,,,,,,,,,,,,,,,,,,,,,,,,,,,,,,,,,,,,,,,,,,,,,,,,,,,,,,,,,,,,,,,,,,,,,,,,,,,,,,,,,,,,,,,,,,,,,,,,,,,,,,,,,,,,,,,,,,,,,,,,,,,,,,,,,,,,,,,,,,,,,,,,
,,,,,65dcb1277d4c8c0b58de2db7,6682b41eeb79ab8215dff63d,6682b9f65ff67f9577442b56,59,Male,English,2024-07-01_15h16.15.394,ABmemTask3,2023.2.3,Win32,60.97560976,,,,,,,,,,,44.6067,52.0787,space,7.4257,,,,,,,,,,,,,,,,,,,,,,,,,,,,,,,,,,,,,,,,,,,,,,,,,,,,,,,,,,,,,,,,,,,,,,,,,,,,,,,,,,,,,,,,,,,,,,,,,,,,,,,,,,,,,,,,,,,,,,,,,,,,,,,,,,,,,,,,,,,,,,,,,,,,,,,,,,,,,,,,,,,,,,,,,,,,,,,,,,,,,,,,,,,,,
,,,,,65dcb1277d4c8c0b58de2db7,6682b41eeb79ab8215dff63d,6682b9f65ff67f9577442b56,59,Male,English,2024-07-01_15h16.15.394,ABmemTask3,2023.2.3,Win32,60.97560976,,,,,,,,,,,,,,,,52.0791,55.545,space,3.4223,,,,,,,,,,,,,,,,,,,,,,,,,,,,,,,,,,,,,,,,,,,,,,,,,,,,,,,,,,,,,,,,,,,,,,,,,,,,,,,,,,,,,,,,,,,,,,,,,,,,,,,,,,,,,,,,,,,,,,,,,,,,,,,,,,,,,,,,,,,,,,,,,,,,,,,,,,,,,,,,,,,,,,,,,,,,,,,,,,,,,,,,
,,,,,65dcb1277d4c8c0b58de2db7,6682b41eeb79ab8215dff63d,6682b9f65ff67f9577442b56,59,Male,English,2024-07-01_15h16.15.394,ABmemTask3,2023.2.3,Win32,60.97560976,,,,,,,,,,,,,,,,,,,,,55.5453,65.3176,space,9.7355,,,,,,,,,,,,,,,,,,,,,,,,,,,,,,,,,,,,,,,,,,,,,,,,,,,,,,,,,,,,,,,,,,,,,,,,,,,,,,,,,,,,,,,,,,,,,,,,,,,,,,,,,,,,,,,,,,,,,,,,,,,,,,,,,,,,,,,,,,,,,,,,,,,,,,,,,,,,,,,,,,,,,,,,,,,,,,,,,,,
,,,,,65dcb1277d4c8c0b58de2db7,6682b41eeb79ab8215dff63d,6682b9f65ff67f9577442b56,59,Male,English,2024-07-01_15h16.15.394,ABmemTask3,2023.2.3,Win32,60.97560976,,,,,,,,,,,,,,,,,,,,,,,,,,65.3177,100.443,space,35.0971,,,,,,,,,,,,,,,,,,,,,,,,,,,,,,,,,,,,,,,,,,,,,,,,,,,,,,,,,,,,,,,,,,,,,,,,,,,,,,,,,,,,,,,,,,,,,,,,,,,,,,,,,,,,,,,,,,,,,,,,,,,,,,,,,,,,,,,,,,,,,,,,,,,,,,,,,,,,,,,,,,,,,,,,,,,,,,
,,,,,65dcb1277d4c8c0b58de2db7,6682b41eeb79ab8215dff63d,6682b9f65ff67f9577442b56,59,Male,English,2024-07-01_15h16.15.394,ABmemTask3,2023.2.3,Win32,60.97560976,,,,,,,,,,,,,,,,,,,,,,,,,,,,,,,100.4718,101.475,101.4753,15,101.9749,104.7249,0.0027,104.9745,0.2482,0.2494,0.2498,0.2502,0.2501,0.2495,0.2503,0.2499,0.2501,0.2496,0.25,104.9761,123.3512,right,18.3493,,123.3514,126.074,left,2.701,,2,0,2,126.0744,127.0735,0,0,0,0,1,prac_AB,L1_T1P_T2A,1,1,0,6,7,5,5,12,cat,Did you see the cat,0.25,0,resources/,pics/shipinabottle.jpg,pics/table01.jpg,pics/dustpan.jpg,pics/golfball.jpg,pics/giraffe.jpg,pics/cat.jpg,pics/peanut01.jpg,pics/pictureframe04.jpg,pics/fanblades.jpg,pics/laptop01a.jpg,pics/ball02.jpg,pics/blender.jpg,blankImage,blankImage,blankImage,blankImage,blankImage,cat,8,,,,,,,,,,,,,,,,,,,,,,,,,,,,,,,,,,,,,,,,,,,,,,,,,,,,,,,,,,,,,,,,,,,,,,,,,,,,,,,,,,,,,,,,,,,,,,,,,,,,
,,,,,65dcb1277d4c8c0b58de2db7,6682b41eeb79ab8215dff63d,6682b9f65ff67f9577442b56,59,Male,English,2024-07-01_15h16.15.394,ABmemTask3,2023.2.3,Win32,60.97560976,,,,,,,,,,,,,,,,,,,,,,,,,,,,,,,127.0898,128.0887,128.0887,15,128.59,130.8401,0.0018,131.0897,0.2489,0.2498,0.2501,0.2503,0.2495,0.2498,0.2499,0.2504,0.25,,,131.0898,132.1399,right,1.0173,,132.1401,133.3067,right,1.134,,4,0,4,133.3068,134.306,0,1,1,1,1,prac_AB,L1_T1P_T2P,1,1,1,5,6,4,4,10,tree,Did you see the tree,0.24,0,resources/,pics/carrot01.jpg,pics/hammerheadshark.jpg,pics/kangaroo.jpg,pics/proboscismonkey.jpg,pics/tree.jpg,pics/stapler07.jpg,pics/siamesecat.jpg,pics/ball02.jpg,pics/pictureframe04.jpg,pics/mummy.jpg,blankImage,blankImage,blankImage,blankImage,blankImage,blankImage,blankImage,tree,1,,,,,,,,,,,,,,,,,,,,,,,,,,,,,,,,,,,,,,,,,,,,,,,,,,,,,,,,,,,,,,,,,,,,,,,,,,,,,,,,,,,,,,,,,,,,,,,,,,,,
,,,,,65dcb1277d4c8c0b58de2db7,6682b41eeb79ab8215dff63d,6682b9f65ff67f9577442b56,59,Male,English,2024-07-01_15h16.15.394,ABmemTask3,2023.2.3,Win32,60.97560976,,,,,,,,,,,,,,,,,,,,,,,,,,,,,,,134.3213,135.3227,135.3227,14,135.8228,138.3898,0.0016,138.6225,0.2323,0.2336,0.2333,0.2333,0.2333,0.2333,0.2335,0.2322,0.2337,0.2339,0.2336,138.6226,139.8895,left,1.2343,,139.8896,140.7061,right,0.7885,,6,0,6,140.7063,141.7058,0,2,2,2,1,prac_AB,L1_T1A_T2P,1,0,1,7,8,6,4,12,grapes,Did you see the grapes,0.23,0,resources/,pics/sailboat.jpg,pics/butterfly.jpg,pics/giraffe.jpg,pics/spoon01.jpg,pics/hose.jpg,pics/nutcracker01.jpg,pics/table01.jpg,pics/stapler13.jpg,pics/pencil01.jpg,pics/football.jpg,pics/triangle.jpg,pics/hairdryer02a.jpg,blankImage,blankImage,blankImage,blankImage,blankImage,grape01,6,,,,,,,,,,,,,,,,,,,,,,,,,,,,,,,,,,,,,,,,,,,,,,,,,,,,,,,,,,,,,,,,,,,,,,,,,,,,,,,,,,,,,,,,,,,,,,,,,,,,
,,,,,65dcb1277d4c8c0b58de2db7,6682b41eeb79ab8215dff63d,6682b9f65ff67f9577442b56,59,Male,English,2024-07-01_15h16.15.394,ABmemTask3,2023.2.3,Win32,60.97560976,,,,,,,,,,,,,,,,,,,,,,,,,,,,,,,141.7212,142.7222,142.7222,13,143.2221,146.2549,0.002,146.4709,0.215,0.2174,0.2159,0.2174,0.2154,0.2166,0.2168,0.2165,0.2172,0.2159,0.2167,146.4711,147.4983,right,1.0007,,147.4983,148.8543,right,1.3362,,8,0,8,148.8544,149.854,0,3,3,3,1,prac_AB,L5_T1P_T2P,5,1,1,7,12,6,3,15,Human skull,Did you see the Human skull,0.22,0,resources/,pics/peach01.jpg,pics/proboscismonkey.jpg,pics/hose.jpg,pics/laptop01a.jpg,pics/hammerheadshark.jpg,pics/nutcracker01.jpg,pics/humanskull.jpg,pics/table01.jpg,pics/icecube01.jpg,pics/boot02b.jpg,pics/calendar.jpg,pics/stapler03a.jpg,pics/ashtray01.jpg,pics/giraffe.jpg,pics/dromedary.jpg,blankImage,blankImage,humanskull,12,0.218,0.2153,0.217,,,,,,,,,,,,,,,,,,,,,,,,,,,,,,,,,,,,,,,,,,,,,,,,,,,,,,,,,,,,,,,,,,,,,,,,,,,,,,,,,,,,,,,,,,,,,,,,,
,,,,,65dcb1277d4c8c0b58de2db7,6682b41eeb79ab8215dff63d,6682b9f65ff67f9577442b56,59,Male,English,2024-07-01_15h16.15.394,ABmemTask3,2023.2.3,Win32,60.97560976,,,,,,,,,,,,,,,,,,,,,,,,,,,,,,,149.869,150.8708,150.8709,13,151.3708,153.5376,0.0018,153.7543,0.2156,0.2169,0.2258,0.2074,0.2167,0.2163,0.2169,0.2168,0.2165,0.2163,,153.7545,155.0041,left,1.2201,,155.0042,155.9039,left,0.8716,,8,0,10,155.904,156.9039,0,4,4,4,1,prac_AB,L1_T1A_T2P,1,0,1,7,8,6,3,11,dog,Did you see the dog,0.21,0,resources/,pics/ball02.jpg,pics/binder03b.jpg,pics/dromedary.jpg,pics/shipinabottle.jpg,pics/proboscismonkey.jpg,pics/laptop01a.jpg,pics/chainsaw.jpg,pics/stapler13.jpg,pics/nutcracker01.jpg,pics/carrot01.jpg,pics/calendar.jpg,blankImage,blankImage,blankImage,blankImage,blankImage,blankImage,saintbernard,7,,,,,,,,,,,,,,,,,,,,,,,,,,,,,,,,,,,,,,,,,,,,,,,,,,,,,,,,,,,,,,,,,,,,,,,,,,,,,,,,,,,,,,,,,,,,,,,,,,,,
,,,,,65dcb1277d4c8c0b58de2db7,6682b41eeb79ab8215dff63d,6682b9f65ff67f9577442b56,59,Male,English,2024-07-01_15h16.15.394,ABmemTask3,2023.2.3,Win32,60.97560976,,,,,,,,,,,,,,,,,,,,,,,,,,,,,,,156.9046,157.9037,157.9038,12,158.404,161.2039,0.0019,161.4038,0.1989,0.1999,0.1999,0.2001,0.1998,0.2,0.1998,0.2007,0.1993,0.2002,0.1996,161.4039,162.8871,right,1.4548,,162.8871,163.7465,right,0.8338,,10,0,12,163.7467,164.7377,0,5,5,5,1,prac_AB,L5_T1P_T2P,5,1,1,5,10,4,5,15,grater,Did you see the grater,0.2,0,resources/,pics/pencil01.jpg,pics/laptop01a.jpg,pics/hammerheadshark.jpg,pics/cork02.jpg,pics/grater01a.jpg,pics/shipinabottle.jpg,pics/binder03b.jpg,pics/dromedary.jpg,pics/pictureframe04.jpg,pics/stapler04b.jpg,pics/fanblades.jpg,pics/aquarium.jpg,pics/hairdryer02a.jpg,pics/lightswitch01.jpg,pics/piggybank.jpg,blankImage,blankImage,grater01a,11,0.2005,0.1996,0.2,,,,,,,,,,,,,,,,,,,,,,,,,,,,,,,,,,,,,,,,,,,,,,,,,,,,,,,,,,,,,,,,,,,,,,,,,,,,,,,,,,,,,,,,,,,,,,,,,
,,,,,65dcb1277d4c8c0b58de2db7,6682b41eeb79ab8215dff63d,6682b9f65ff67f9577442b56,59,Male,English,2024-07-01_15h16.15.394,ABmemTask3,2023.2.3,Win32,60.97560976,,,,,,,,,,,,,,,,,,,,,,,,,,,,,,,164.7529,165.7544,165.7545,12,166.2542,167.8547,0.0016,168.0535,0.1995,0.1999,0.1998,0.1998,0.2006,0.1997,0.2003,0.1998,,,,168.0535,169.331,right,1.2508,,169.3311,170.6875,left,1.3336,,12,0,14,170.6877,171.6873,0,6,6,6,1,prac_AB,L1_T1P_T2A,1,1,0,4,5,3,4,9,chalk,Did you see the chalk,0.19,0,resources/,pics/necklace.jpg,pics/starfish01.jpg,pics/safetypin.jpg,pics/chalk.jpg,pics/candleholder01.jpg,pics/bowtie.jpg,pics/match.jpg,pics/candle01.jpg,pics/pencilsharpener02a.jpg,blankImage,blankImage,blankImage,blankImage,blankImage,blankImage,blankImage,blankImage,chalk,9,,,,,,,,,,,,,,,,,,,,,,,,,,,,,,,,,,,,,,,,,,,,,,,,,,,,,,,,,,,,,,,,,,,,,,,,,,,,,,,,,,,,,,,,,,,,,,,,,,,,
,,,,,65dcb1277d4c8c0b58de2db7,6682b41eeb79ab8215dff63d,6682b9f65ff67f9577442b56,59,Male,English,2024-07-01_15h16.15.394,ABmemTask3,2023.2.3,Win32,60.97560976,,,,,,,,,,,,,,,,,,,,,,,,,,,,,,,171.7023,172.7038,172.704,11,173.2038,174.8541,0.0015,175.0373,0.1827,0.1826,0.184,0.1833,0.1835,0.1832,0.1835,0.1833,0.1831,,,175.0374,176.304,right,1.2335,,176.3041,177.1368,right,0.8015,,14,0,16,177.1369,178.137,0,7,7,7,1,prac_AB,L1_T1P_T2P,1,1,1,5,6,4,4,10,pants,Did you see the pants,0.18,0,resources/,pics/kangaroo.jpg,pics/safetypin.jpg,pics/salmon.jpg,pics/sandbarshark.jpg,pics/pants.jpg,pics/stapler03a.jpg,pics/sink.jpg,pics/calendar.jpg,pics/butterfly.jpg,pics/fanblades.jpg,blankImage,blankImage,blankImage,blankImage,blankImage,blankImage,blankImage,pants,2,,,,,,,,,,,,,,,,,,,,,,,,,,,,,,,,,,,,,,,,,,,,,,,,,,,,,,,,,,,,,,,,,,,,,,,,,,,,,,,,,,,,,,,,,,,,,,,,,,,,
,,,,,65dcb1277d4c8c0b58de2db7,6682b41eeb79ab8215dff63d,6682b9f65ff67f9577442b56,59,Male,English,2024-07-01_15h16.15.394,ABmemTask3,2023.2.3,Win32,60.97560976,,,,,,,,,,,,,,,,,,,,,,,,,,,,,,,178.1525,179.1537,179.1538,10,179.6536,181.9869,0.0016,182.1532,0.1652,0.1674,0.1662,0.1667,0.167,0.1663,0.1667,0.167,0.1666,0.1662,0.1668,182.1534,184.17,left,1.9837,,184.1701,185.4202,right,1.2174,,16,0,18,185.4203,186.4198,0,8,8,8,1,prac_AB,L5_T1A_T2P,5,0,1,7,12,6,3,15,shirt,Did you see the shirt,0.17,0,resources/,pics/banjo.jpg,pics/chainsaw.jpg,pics/sailboat.jpg,pics/shipinabottle.jpg,pics/lightswitch01.jpg,pics/starfish01.jpg,pics/hen.jpg,pics/ball02.jpg,pics/bowlingpin.jpg,pics/hammerheadshark.jpg,pics/footballhelmet.jpg,pics/stapler10.jpg,pics/laptop01a.jpg,pics/cannon.jpg,pics/golfball.jpg,blankImage,blankImage,shirt02,13,0.1665,0.1667,0.1668,,,,,,,,,,,,,,,,,,,,,,,,,,,,,,,,,,,,,,,,,,,,,,,,,,,,,,,,,,,,,,,,,,,,,,,,,,,,,,,,,,,,,,,,,,,,,,,,,
,,,,,65dcb1277d4c8c0b58de2db7,6682b41eeb79ab8215dff63d,6682b9f65ff67f9577442b56,59,Male,English,2024-07-01_15h16.15.394,ABmemTask3,2023.2.3,Win32,60.97560976,,,,,,,,,,,,,,,,,,,,,,,,,,,,,,,186.4347,187.4366,187.4366,10,187.9361,189.6023,0.0014,189.7695,0.1662,0.1663,0.1675,0.1656,0.1675,0.1665,0.1669,0.1666,0.1665,0.1656,,189.7697,190.9198,right,1.1168,,190.9199,191.4198,right,0.4674,,18,0,20,191.4199,192.4192,0,9,9,9,1,prac_AB,L1_T1P_T2P,1,1,1,7,8,6,3,11,tongs,Did you see the tongs,0.16,0,resources/,pics/sewingmachine01a.jpg,pics/shovel01.jpg,pics/football.jpg,pics/hen.jpg,pics/banjo.jpg,pics/zebra.jpg,pics/tongs01b.jpg,pics/stapler11.jpg,pics/shipinabottle.jpg,pics/match.jpg,pics/candle01.jpg,blankImage,blankImage,blankImage,blankImage,blankImage,blankImage,tongs01b,5,,,,,,,,,,,,,,,,,,,,,,,,,,,,,,,,,,,,,,,,,,,,,,,,,,,,,,,,,,,,,,,,,,,,,,,,,,,,,,,,,,,,,,,,,,,,,,,,,,,,
,,,,,65dcb1277d4c8c0b58de2db7,6682b41eeb79ab8215dff63d,6682b9f65ff67f9577442b56,59,Male,English,2024-07-01_15h16.15.394,ABmemTask3,2023.2.3,Win32,60.97560976,,,,,,,,,,,,,,,,,,,,,,,,,,,,,,,192.42,193.4192,193.4194,9,193.9194,195.5697,0.0017,195.7193,0.1492,0.15,0.1497,0.1504,0.1494,0.1504,0.1501,0.1498,0.1501,0.1499,0.15,195.7194,197.2025,left,1.4574,,197.2026,197.8523,left,0.6172,,20,0,22,197.8524,198.8521,0,10,10,10,1,prac_AB,L1_T1A_T2A,1,0,0,7,8,6,4,12,camera,Did you see the camera,0.15,0,resources/,pics/lightswitch01.jpg,pics/table01.jpg,pics/aquarium.jpg,pics/boot02b.jpg,pics/butterfly.jpg,pics/chainsaw.jpg,pics/binoculars01b.jpg,pics/giraffe.jpg,pics/triangle.jpg,pics/microscope.jpg,pics/mummy.jpg,pics/icecube01.jpg,blankImage,blankImage,blankImage,blankImage,blankImage,camera01a,10,,,,,,,,,,,,,,,,,,,,,,,,,,,,,,,,,,,,,,,,,,,,,,,,,,,,,,,,,,,,,,,,,,,,,,,,,,,,,,,,,,,,,,,,,,,,,,,,,,,,
,,,,,65dcb1277d4c8c0b58de2db7,6682b41eeb79ab8215dff63d,6682b9f65ff67f9577442b56,59,Male,English,2024-07-01_15h16.15.394,ABmemTask3,2023.2.3,Win32,60.97560976,,,,,,,,,,,,,,,,,,,,,,,,,,,,,,,198.8668,199.868,199.8681,9,200.3774,201.7194,0.0014,201.8681,0.1408,0.1503,0.1501,0.1501,0.1492,0.1598,0.1407,0.1501,0.1499,,,201.8682,202.8189,right,0.9169,,202.819,203.6447,right,0.8002,,22,0,24,203.6449,204.6441,0,11,11,11,1,prac_AB,L1_T1P_T2P,1,1,1,6,7,5,3,10,shorts,Did you see the shorts,0.14,0,resources/,pics/snowshoe.jpg,pics/chainsaw.jpg,pics/sailboat.jpg,pics/ball02.jpg,pics/candleholder01.jpg,pics/shorts01.jpg,pics/stapler07.jpg,pics/peach01.jpg,pics/proboscismonkey.jpg,pics/hen.jpg,blankImage,blankImage,blankImage,blankImage,blankImage,blankImage,blankImage,shorts01,4,,,,,,,,,,,,,,,,,,,,,,,,,,,,,,,,,,,,,,,,,,,,,,,,,,,,,,,,,,,,,,,,,,,,,,,,,,,,,,,,,,,,,,,,,,,,,,,,,,,,
,,,,,65dcb1277d4c8c0b58de2db7,6682b41eeb79ab8215dff63d,6682b9f65ff67f9577442b56,59,Male,English,2024-07-01_15h16.15.394,ABmemTask3,2023.2.3,Win32,60.97560976,,,,,,,,,,,,,,,,,,,,,,,,,,,,,,,204.645,205.6348,205.6348,8,206.1346,207.7357,0.0013,207.8685,0.1336,0.1334,0.1331,0.1333,0.1334,0.1332,0.1334,0.1333,0.1336,0.1331,0.1334,207.8686,208.952,right,1.0512,,208.952,209.5841,right,0.6042,,20,0,26,209.5842,210.5841,0,12,12,12,1,prac_AB,L5_T1P_T2A,5,1,0,5,10,4,3,13,fish,Did you see the fish,0.13,0,resources/,pics/football.jpg,pics/safetypin.jpg,pics/shovel01.jpg,pics/sink.jpg,pics/holdfast.jpg,pics/nutcracker01.jpg,pics/starfish01.jpg,pics/onion.jpg,pics/footballhelmet.jpg,pics/boot02b.jpg,pics/sewingmachine01a.jpg,pics/kangaroo.jpg,pics/banjo.jpg,blankImage,blankImage,blankImage,blankImage,holdfast,14,0.1332,,,,,,,,,,,,,,,,,,,,,,,,,,,,,,,,,,,,,,,,,,,,,,,,,,,,,,,,,,,,,,,,,,,,,,,,,,,,,,,,,,,,,,,,,,,,,,,,,,,
,,,,,65dcb1277d4c8c0b58de2db7,6682b41eeb79ab8215dff63d,6682b9f65ff67f9577442b56,59,Male,English,2024-07-01_15h16.15.394,ABmemTask3,2023.2.3,Win32,60.97560976,,,,,,,,,,,,,,,,,,,,,,,,,,,,,,,210.5846,211.5841,211.5842,7,212.084,213.1349,0.0015,213.2515,0.1172,0.1165,0.1165,0.1168,0.1155,0.1167,0.1168,0.1177,0.1162,,,213.2517,214.2687,right,0.9844,,214.2687,214.8075,right,0.5136,,22,0,28,214.8075,215.8013,0,13,13,13,1,prac_AB,L1_T1P_T2P,1,1,1,5,6,4,4,10,fish,Did you see the fish,0.12,0,resources/,pics/butterfly.jpg,pics/banjo.jpg,pics/leaf02a.jpg,pics/dustpan.jpg,pics/sturgeon.jpg,pics/stapler02.jpg,pics/necklace.jpg,pics/shovel01.jpg,pics/starfish01.jpg,pics/chainsaw.jpg,blankImage,blankImage,blankImage,blankImage,blankImage,blankImage,blankImage,sturgeon,3,,,,,,,,,,,,,,,,,,,,,,,,,,,,,,,,,,,,,,,,,,,,,,,,,,,,,,,,,,,,,,,,,,,,,,,,,,,,,,,,,,,,,,,,,,,,,,,,,,,,
,,,,,65dcb1277d4c8c0b58de2db7,6682b41eeb79ab8215dff63d,6682b9f65ff67f9577442b56,59,Male,English,2024-07-01_15h16.15.394,ABmemTask3,2023.2.3,Win32,60.97560976,,,,,,,,,,,,,,,,,,,,,,,,,,,,,,,,,,,,,,,,,,,,,,,,,,,,,,,,,,,,,,,,,,,,,,,,,,,,,,,,,,,,,,,,,,,,,,,,,,,,,,,,,,,215.8029,1066.946,space,851.1166,,,,,,,,,,,,,,,,,,,,,,,,,,,,,,,,,,,,,,,,,,,,,,,,,,,,,,,,,,,,,,,,,,,,,,,,,,,,,,,,,,,,,,,,,,,,,
,,,,,65dcb1277d4c8c0b58de2db7,6682b41eeb79ab8215dff63d,6682b9f65ff67f9577442b56,59,Male,English,2024-07-01_15h16.15.394,ABmemTask3,2023.2.3,Win32,60.97560976,,,,,,,,,,,,,,,,,,,,,,,,,,,,,,,,,,,,,,,,,,,,,,,,,,,,,,,,,,,,,,,,,,,,,,,,,,,,,,,,,,,,,,,,,,,,,,,,,,,,,,,,,,,1066.9684,1066.9761,,,,,,,,,,,,,,,,,,,,,,,,,,,,,,,,,,,,,,,,,,,,,,,,,,,,,,,,,,,,,,,,,,,,,,,,,,,,,,,,,,,,,,,,,,,,,,,
,,,,,65dcb1277d4c8c0b58de2db7,6682b41eeb79ab8215dff63d,6682b9f65ff67f9577442b56,59,Male,English,2024-07-01_15h16.15.394,ABmemTask3,2023.2.3,Win32,60.97560976,,,,,,,,,,,,,,,,,,,,,,,,,,,,,,,,,,,,,,,,,,,,,,,,,,,,,,,,,,,,,,,,,,,,,,,,,,,,,,,,,,,,,,,,,,,,,,,,,,,,,,,,,,,1066.9812,1066.9813,,,,,,,,,,,,,,,,,,,,,,,,,,,,,,,,,,,,,,,,,,,,,,,,,,,,,,,,,,,,,,,,,,,,,,,,,,,,,,,,,,,,,,,,,,,,,,,
,,,,,65dcb1277d4c8c0b58de2db7,6682b41eeb79ab8215dff63d,6682b9f65ff67f9577442b56,59,Male,English,2024-07-01_15h16.15.394,ABmemTask3,2023.2.3,Win32,60.97560976,,,,,,,,,,,,,,,,,,,,,,,,,,,,,,,,,,,,,,,,,,,,,,,,,,,,,,,,,,,,,,,,,,,,,,,,,,,,,,,,,,,,,,,,,,,,,,,,,,,,,,,,,,,1066.9853,1066.9854,,,,,,,,,,,,,,,,,,,,,,,,,,,,,,,,,,,,,,,,,,,,,,,,,,,,,,,,,,,,,,,,,,,,,,,,,,,,,,,,,,,,,,,,,,,,,,,
,,,,,65dcb1277d4c8c0b58de2db7,6682b41eeb79ab8215dff63d,6682b9f65ff67f9577442b56,59,Male,English,2024-07-01_15h16.15.394,ABmemTask3,2023.2.3,Win32,60.97560976,,,,,,,,,,,,,,,,,,,,,,,,,,,,,,,,,,,,,,,,,,,,,,,,,,,,,,,,,,,,,,,,,,,,,,,,,,,,,,,,,,,,,,,,,,,,,,,,,,,,,,,,,,,1066.99,1066.9902,,,,,,,,,,,,,,,,,,,,,,,,,,,,,,,,,,,,,,,,,,,,,,,,,,,,,,,,,,,,,,,,,,,,,,,,,,,,,,,,,,,,,,,,,,,,,,,
,,,,,65dcb1277d4c8c0b58de2db7,6682b41eeb79ab8215dff63d,6682b9f65ff67f9577442b56,59,Male,English,2024-07-01_15h16.15.394,ABmemTask3,2023.2.3,Win32,60.97560976,,,,,,,,,,,,,,,,,,,,,,,,,,,,,,,,,,,,,,,,,,,,,,,,,,,,,,,,,,,,,,,,,,,,,,,,,,,,,,,,,,,,,,,,,,,,,,,,,,,,,,,,,,,1066.9936,1066.9938,,,,,,,,,,,,,,,,,,,,,,,,,,,,,,,,,,,,,,,,,,,,,,,,,,,,,,,,,,,,,,,,,,,,,,,,,,,,,,,,,,,,,,,,,,,,,,,
,,,,,65dcb1277d4c8c0b58de2db7,6682b41eeb79ab8215dff63d,6682b9f65ff67f9577442b56,59,Male,English,2024-07-01_15h16.15.394,ABmemTask3,2023.2.3,Win32,60.97560976,,,,,,,,,,,,,,,,,,,,,,,,,,,,,,,,,,,,,,,,,,,,,,,,,,,,,,,,,,,,,,,,,,,,,,,,,,,,,,,,,,,,,,,,,,,,,,,,,,,,,,,,,,,1066.997,1066.9972,,,,,,,,,,,,,,,,,,,,,,,,,,,,,,,,,,,,,,,,,,,,,,,,,,,,,,,,,,,,,,,,,,,,,,,,,,,,,,,,,,,,,,,,,,,,,,,
,,,,,65dcb1277d4c8c0b58de2db7,6682b41eeb79ab8215dff63d,6682b9f65ff67f9577442b56,59,Male,English,2024-07-01_15h16.15.394,ABmemTask3,2023.2.3,Win32,60.97560976,,,,,,,,,,,,,,,,,,,,,,,,,,,,,,,,,,,,,,,,,,,,,,,,,,,,,,,,,,,,,,,,,,,,,,,,,,,,,,,,,,,,,,,,,,,,,,,,,,,,,,,,,,,1067.0014,1067.0016,,,,,,,,,,,,,,,,,,,,,,,,,,,,,,,,,,,,,,,,,,,,,,,,,,,,,,,,,,,,,,,,,,,,,,,,,,,,,,,,,,,,,,,,,,,,,,,
,,,,,65dcb1277d4c8c0b58de2db7,6682b41eeb79ab8215dff63d,6682b9f65ff67f9577442b56,59,Male,English,2024-07-01_15h16.15.394,ABmemTask3,2023.2.3,Win32,60.97560976,,,,,,,,,,,,,,,,,,,,,,,,,,,,,,,,,,,,,,,,,,,,,,,,,,,,,,,,,,,,,,,,,,,,,,,,,,,,,,,,,,,,,,,,,,,,,,,,,,,,,,,,,,,1067.0044,1067.0046,,,,,,,,,,,,,,,,,,,,,,,,,,,,,,,,,,,,,,,,,,,,,,,,,,,,,,,,,,,,,,,,,,,,,,,,,,,,,,,,,,,,,,,,,,,,,,,
,,,,,65dcb1277d4c8c0b58de2db7,6682b41eeb79ab8215dff63d,6682b9f65ff67f9577442b56,59,Male,English,2024-07-01_15h16.15.394,ABmemTask3,2023.2.3,Win32,60.97560976,,,,,,,,,,,,,,,,,,,,,,,,,,,,,,,,,,,,,,,,,,,,,,,,,,,,,,,,,,,,,,,,,,,,,,,,,,,,,,,,,,,,,,,,,,,,,,,,,,,,,,,,,,,1067.0072,1067.0073,,,,,,,,,,,,,,,,,,,,,,,,,,,,,,,,,,,,,,,,,,,,,,,,,,,,,,,,,,,,,,,,,,,,,,,,,,,,,,,,,,,,,,,,,,,,,,,
,,,,,65dcb1277d4c8c0b58de2db7,6682b41eeb79ab8215dff63d,6682b9f65ff67f9577442b56,59,Male,English,2024-07-01_15h16.15.394,ABmemTask3,2023.2.3,Win32,60.97560976,,,,,,,,,,,,,,,,,,,,,,,,,,,,,,,,,,,,,,,,,,,,,,,,,,,,,,,,,,,,,,,,,,,,,,,,,,,,,,,,,,,,,,,,,,,,,,,,,,,,,,,,,,,1067.0101,1067.0102,,,,,,,,,,,,,,,,,,,,,,,,,,,,,,,,,,,,,,,,,,,,,,,,,,,,,,,,,,,,,,,,,,,,,,,,,,,,,,,,,,,,,,,,,,,,,,,
,,,,,65dcb1277d4c8c0b58de2db7,6682b41eeb79ab8215dff63d,6682b9f65ff67f9577442b56,59,Male,English,2024-07-01_15h16.15.394,ABmemTask3,2023.2.3,Win32,60.97560976,,,,,,,,,,,,,,,,,,,,,,,,,,,,,,,,,,,,,,,,,,,,,,,,,,,,,,,,,,,,,,,,,,,,,,,,,,,,,,,,,,,,,,,,,,,,,,,,,,,,,,,,,,,1067.0141,1067.0143,,,,,,,,,,,,,,,,,,,,,,,,,,,,,,,,,,,,,,,,,,,,,,,,,,,,,,,,,,,,,,,,,,,,,,,,,,,,,,,,,,,,,,,,,,,,,,,
,,,,,65dcb1277d4c8c0b58de2db7,6682b41eeb79ab8215dff63d,6682b9f65ff67f9577442b56,59,Male,English,2024-07-01_15h16.15.394,ABmemTask3,2023.2.3,Win32,60.97560976,,,,,,,,,,,,,,,,,,,,,,,,,,,,,,,,,,,,,,,,,,,,,,,,,,,,,,,,,,,,,,,,,,,,,,,,,,,,,,,,,,,,,,,,,,,,,,,,,,,,,,,,,,,1067.0168,1067.017,,,,,,,,,,,,,,,,,,,,,,,,,,,,,,,,,,,,,,,,,,,,,,,,,,,,,,,,,,,,,,,,,,,,,,,,,,,,,,,,,,,,,,,,,,,,,,,
,,,,,65dcb1277d4c8c0b58de2db7,6682b41eeb79ab8215dff63d,6682b9f65ff67f9577442b56,59,Male,English,2024-07-01_15h16.15.394,ABmemTask3,2023.2.3,Win32,60.97560976,,,,,,,,,,,,,,,,,,,,,,,,,,,,,,,,,,,,,,,,,,,,,,,,,,,,,,,,,,,,,,,,,,,,,,,,,,,,,,,,,,,,,,,,,,,,,,,,,,,,,,,,,,,1067.0197,1067.0198,,,,,,,,,,,,,,,,,,,,,,,,,,,,,,,,,,,,,,,,,,,,,,,,,,,,,,,,,,,,,,,,,,,,,,,,,,,,,,,,,,,,,,,,,,,,,,,
,,,,,65dcb1277d4c8c0b58de2db7,6682b41eeb79ab8215dff63d,6682b9f65ff67f9577442b56,59,Male,English,2024-07-01_15h16.15.394,ABmemTask3,2023.2.3,Win32,60.97560976,,,,,,,,,,,,,,,,,,,,,,,,,,,,,,,,,,,,,,,,,,,,,,,,,,,,,,,,,,,,,,,,,,,,,,,,,,,,,,,,,,,,,,,,,,,,,,,,,,,,,,,,,,,1067.0226,1067.0228,,,,,,,,,,,,,,,,,,,,,,,,,,,,,,,,,,,,,,,,,,,,,,,,,,,,,,,,,,,,,,,,,,,,,,,,,,,,,,,,,,,,,,,,,,,,,,,
,,,,,65dcb1277d4c8c0b58de2db7,6682b41eeb79ab8215dff63d,6682b9f65ff67f9577442b56,59,Male,English,2024-07-01_15h16.15.394,ABmemTask3,2023.2.3,Win32,60.97560976,,,,,,,,,,,,,,,,,,,,,,,,,,,,,,,,,,,,,,,,,,,,,,,,,,,,,,,,,,,,,,,,,,,,,,,,,,,,,,,,,,,,,,,,,,,,,,,,,,,,,,,,,,,1067.0267,1067.0269,,,,,,,,,,,,,,,,,,,,,,,,,,,,,,,,,,,,,,,,,,,,,,,,,,,,,,,,,,,,,,,,,,,,,,,,,,,,,,,,,,,,,,,,,,,,,,,
,,,,,65dcb1277d4c8c0b58de2db7,6682b41eeb79ab8215dff63d,6682b9f65ff67f9577442b56,59,Male,English,2024-07-01_15h16.15.394,ABmemTask3,2023.2.3,Win32,60.97560976,,,,,,,,,,,,,,,,,,,,,,,,,,,,,,,,,,,,,,,,,,,,,,,,,,,,,,,,,,,,,,,,,,,,,,,,,,,,,,,,,,,,,,,,,,,,,,,,,,,,,,,,,,,1067.03,1067.03,,,,,,,,,,,,,,,,,,,,,,,,,,,,,,,,,,,,,,,,,,,,,,,,,,,,,,,,,,,,,,,,,,,,,,,,,,,,,,,,,,,,,,,,,,,,,,,
,,,,,65dcb1277d4c8c0b58de2db7,6682b41eeb79ab8215dff63d,6682b9f65ff67f9577442b56,59,Male,English,2024-07-01_15h16.15.394,ABmemTask3,2023.2.3,Win32,60.97560976,,,,,,,,,,,,,,,,,,,,,,,,,,,,,,,,,,,,,,,,,,,,,,,,,,,,,,,,,,,,,,,,,,,,,,,,,,,,,,,,,,,,,,,,,,,,,,,,,,,,,,,,,,,1067.033,1067.0332,,,,,,,,,,,,,,,,,,,,,,,,,,,,,,,,,,,,,,,,,,,,,,,,,,,,,,,,,,,,,,,,,,,,,,,,,,,,,,,,,,,,,,,,,,,,,,,
,,,,,65dcb1277d4c8c0b58de2db7,6682b41eeb79ab8215dff63d,6682b9f65ff67f9577442b56,59,Male,English,2024-07-01_15h16.15.394,ABmemTask3,2023.2.3,Win32,60.97560976,,,,,,,,,,,,,,,,,,,,,,,,,,,,,,,,,,,,,,,,,,,,,,,,,,,,,,,,,,,,,,,,,,,,,,,,,,,,,,,,,,,,,,,,,,,,,,,,,,,,,,,,,,,1067.037,1067.0371,,,,,,,,,,,,,,,,,,,,,,,,,,,,,,,,,,,,,,,,,,,,,,,,,,,,,,,,,,,,,,,,,,,,,,,,,,,,,,,,,,,,,,,,,,,,,,,
,,,,,65dcb1277d4c8c0b58de2db7,6682b41eeb79ab8215dff63d,6682b9f65ff67f9577442b56,59,Male,English,2024-07-01_15h16.15.394,ABmemTask3,2023.2.3,Win32,60.97560976,,,,,,,,,,,,,,,,,,,,,,,,,,,,,,,,,,,,,,,,,,,,,,,,,,,,,,,,,,,,,,,,,,,,,,,,,,,,,,,,,,,,,,,,,,,,,,,,,,,,,,,,,,,1067.0393,1067.0394,,,,,,,,,,,,,,,,,,,,,,,,,,,,,,,,,,,,,,,,,,,,,,,,,,,,,,,,,,,,,,,,,,,,,,,,,,,,,,,,,,,,,,,,,,,,,,,
,,,,,65dcb1277d4c8c0b58de2db7,6682b41eeb79ab8215dff63d,6682b9f65ff67f9577442b56,59,Male,English,2024-07-01_15h16.15.394,ABmemTask3,2023.2.3,Win32,60.97560976,,,,,,,,,,,,,,,,,,,,,,,,,,,,,,,,,,,,,,,,,,,,,,,,,,,,,,,,,,,,,,,,,,,,,,,,,,,,,,,,,,,,,,,,,,,,,,,,,,,,,,,,,,,1067.0416,1067.0417,,,,,,,,,,,,,,,,,,,,,,,,,,,,,,,,,,,,,,,,,,,,,,,,,,,,,,,,,,,,,,,,,,,,,,,,,,,,,,,,,,,,,,,,,,,,,,,
,,,,,65dcb1277d4c8c0b58de2db7,6682b41eeb79ab8215dff63d,6682b9f65ff67f9577442b56,59,Male,English,2024-07-01_15h16.15.394,ABmemTask3,2023.2.3,Win32,60.97560976,,,,,,,,,,,,,,,,,,,,,,,,,,,,,,,,,,,,,,,,,,,,,,,,,,,,,,,,,,,,,,,,,,,,,,,,,,,,,,,,,,,,,,,,,,,,,,,,,,,,,,,,,,,1067.0438,1067.044,,,,,,,,,,,,,,,,,,,,,,,,,,,,,,,,,,,,,,,,,,,,,,,,,,,,,,,,,,,,,,,,,,,,,,,,,,,,,,,,,,,,,,,,,,,,,,,
,,,,,65dcb1277d4c8c0b58de2db7,6682b41eeb79ab8215dff63d,6682b9f65ff67f9577442b56,59,Male,English,2024-07-01_15h16.15.394,ABmemTask3,2023.2.3,Win32,60.97560976,,,,,,,,,,,,,,,,,,,,,,,,,,,,,,,,,,,,,,,,,,,,,,,,,,,,,,,,,,,,,,,,,,,,,,,,,,,,,,,,,,,,,,,,,,,,,,,,,,,,,,,,,,,,,,,,1067.0443,1077.4792,space,10.3962,,,,,,,,,,,,,,,,,,,,,,,,,,,,,,,,,,,,,,,,,,,,,,,,,,,,,,,,,,,,,,,,,,,,,,,,,,,,,,,,,,,,,,,,
,,,,,65dcb1277d4c8c0b58de2db7,6682b41eeb79ab8215dff63d,6682b9f65ff67f9577442b56,59,Male,English,2024-07-01_15h16.15.394,ABmemTask3,2023.2.3,Win32,60.97560976,,,,,,,,,,,,,,,,,,,,,,,,,,,,,,,,,1077.497,610,1077.984,,,,,,,,,,,,,,,,,,,,,,,,,,0,,,,,,,,,prac_MEM,old,,,,,,,,,,,10,,,,,,,,,,,,,,,,,,,,,,,,,,,,,,,,,,,1077.9843,1086.1017,-1,3,8.0844,,1086.1031,1087.1005,0,0,0,4,1,5,1,pics/tongs01b.jpg,,,,,,,,,,,,,,,,,,,,,,,,,,,,,,,,,,,,,,,,,,,,,,,,,,,,,,,,,,,,,,,,,,,,,,,
,,,,,65dcb1277d4c8c0b58de2db7,6682b41eeb79ab8215dff63d,6682b9f65ff67f9577442b56,59,Male,English,2024-07-01_15h16.15.394,ABmemTask3,2023.2.3,Win32,60.97560976,,,,,,,,,,,,,,,,,,,,,,,,,,,,,,,,,1087.1154,610,1087.6169,,,,,,,,,,,,,,,,,,,,,,,,,,0,,,,,,,,,prac_MEM,old,,,,,,,,,,,10,,,,,,,,,,,,,,,,,,,,,,,,,,,,,,,,,,,1087.617,1091.5667,2,6,3.9172,,1091.5677,1092.5666,0,1,1,2,1,3,1,pics/sturgeon.jpg,,,,,,,,,,,,,,,,,,,,,,,,,,,,,,,,,,,,,,,,,,,,,,,,,,,,,,,,,,,,,,,,,,,,,,,
,,,,,65dcb1277d4c8c0b58de2db7,6682b41eeb79ab8215dff63d,6682b9f65ff67f9577442b56,59,Male,English,2024-07-01_15h16.15.394,ABmemTask3,2023.2.3,Win32,60.97560976,,,,,,,,,,,,,,,,,,,,,,,,,,,,,,,,,1092.5815,610,1093.083,,,,,,,,,,,,,,,,,,,,,,,,,,0,,,,,,,,,prac_MEM,new,,,,,,,,,,,10,,,,,,,,,,,,,,,,,,,,,,,,,,,,,,,,,,,1093.083,1094.9165,-7,6,1.8002,,1094.9168,1095.9164,0,2,2,7,1,999,999,pics/cherry01.jpg,,,,,,,,,,,,,,,,,,,,,,,,,,,,,,,,,,,,,,,,,,,,,,,,,,,,,,,,,,,,,,,,,,,,,,,
,,,,,65dcb1277d4c8c0b58de2db7,6682b41eeb79ab8215dff63d,6682b9f65ff67f9577442b56,59,Male,English,2024-07-01_15h16.15.394,ABmemTask3,2023.2.3,Win32,60.97560976,,,,,,,,,,,,,,,,,,,,,,,,,,,,,,,,,1095.9311,610,1096.4331,,,,,,,,,,,,,,,,,,,,,,,,,,0,,,,,,,,,prac_MEM,old,,,,,,,,,,,10,,,,,,,,,,,,,,,,,,,,,,,,,,,,,,,,,,,1096.4332,1099.9821,-4,6,3.5173,,1099.983,1100.9827,0,3,3,5,1,11,5,pics/grater01a.jpg,,,,,,,,,,,,,,,,,,,,,,,,,,,,,,,,,,,,,,,,,,,,,,,,,,,,,,,,,,,,,,,,,,,,,,,
,,,,,65dcb1277d4c8c0b58de2db7,6682b41eeb79ab8215dff63d,6682b9f65ff67f9577442b56,59,Male,English,2024-07-01_15h16.15.394,ABmemTask3,2023.2.3,Win32,60.97560976,,,,,,,,,,,,,,,,,,,,,,,,,,,,,,,,,1100.9981,610,1101.4993,,,,,,,,,,,,,,,,,,,,,,,,,,0,,,,,,,,,prac_MEM,old,,,,,,,,,,,10,,,,,,,,,,,,,,,,,,,,,,,,,,,,,,,,,,,1101.4994,1104.1495,-1,6,2.6167,,1104.1504,1105.1494,0,4,4,6,1,12,5,pics/humanskull.jpg,,,,,,,,,,,,,,,,,,,,,,,,,,,,,,,,,,,,,,,,,,,,,,,,,,,,,,,,,,,,,,,,,,,,,,,
,,,,,65dcb1277d4c8c0b58de2db7,6682b41eeb79ab8215dff63d,6682b9f65ff67f9577442b56,59,Male,English,2024-07-01_15h16.15.394,ABmemTask3,2023.2.3,Win32,60.97560976,,,,,,,,,,,,,,,,,,,,,,,,,,,,,,,,,1105.1642,610,1105.6658,,,,,,,,,,,,,,,,,,,,,,,,,,0,,,,,,,,,prac_MEM,new,,,,,,,,,,,10,,,,,,,,,,,,,,,,,,,,,,,,,,,,,,,,,,,1105.6659,1108.7825,-10,6,3.0837,,1108.7838,1109.7825,0,5,5,10,1,999,999,pics/tomato01.jpg,,,,,,,,,,,,,,,,,,,,,,,,,,,,,,,,,,,,,,,,,,,,,,,,,,,,,,,,,,,,,,,,,,,,,,,
,,,,,65dcb1277d4c8c0b58de2db7,6682b41eeb79ab8215dff63d,6682b9f65ff67f9577442b56,59,Male,English,2024-07-01_15h16.15.394,ABmemTask3,2023.2.3,Win32,60.97560976,,,,,,,,,,,,,,,,,,,,,,,,,,,,,,,,,1109.7972,610,1110.299,,,,,,,,,,,,,,,,,,,,,,,,,,0,,,,,,,,,prac_MEM,old,,,,,,,,,,,10,,,,,,,,,,,,,,,,,,,,,,,,,,,,,,,,,,,1110.2991,1114.6656,-11,3,4.3338,,1114.6669,1115.6654,0,6,6,3,1,4,1,pics/shorts01.jpg,,,,,,,,,,,,,,,,,,,,,,,,,,,,,,,,,,,,,,,,,,,,,,,,,,,,,,,,,,,,,,,,,,,,,,,
,,,,,65dcb1277d4c8c0b58de2db7,6682b41eeb79ab8215dff63d,6682b9f65ff67f9577442b56,59,Male,English,2024-07-01_15h16.15.394,ABmemTask3,2023.2.3,Win32,60.97560976,,,,,,,,,,,,,,,,,,,,,,,,,,,,,,,,,1115.6805,610,1116.1822,,,,,,,,,,,,,,,,,,,,,,,,,,0,,,,,,,,,prac_MEM,new,,,,,,,,,,,10,,,,,,,,,,,,,,,,,,,,,,,,,,,,,,,,,,,1116.1823,1118.4485,-8,1,2.234,,1118.4493,1119.4484,0,7,7,8,1,999,999,pics/thread02.jpg,,,,,,,,,,,,,,,,,,,,,,,,,,,,,,,,,,,,,,,,,,,,,,,,,,,,,,,,,,,,,,,,,,,,,,,
,,,,,65dcb1277d4c8c0b58de2db7,6682b41eeb79ab8215dff63d,6682b9f65ff67f9577442b56,59,Male,English,2024-07-01_15h16.15.394,ABmemTask3,2023.2.3,Win32,60.97560976,,,,,,,,,,,,,,,,,,,,,,,,,,,,,,,,,1119.449,610,1119.9489,,,,,,,,,,,,,,,,,,,,,,,,,,0,,,,,,,,,prac_MEM,old,,,,,,,,,,,10,,,,,,,,,,,,,,,,,,,,,,,,,,,,,,,,,,,1119.9489,1128.4082,-5,6,8.4335,,1128.4095,1129.3978,0,8,8,0,1,1,1,pics/tree.jpg,,,,,,,,,,,,,,,,,,,,,,,,,,,,,,,,,,,,,,,,,,,,,,,,,,,,,,,,,,,,,,,,,,,,,,,
,,,,,65dcb1277d4c8c0b58de2db7,6682b41eeb79ab8215dff63d,6682b9f65ff67f9577442b56,59,Male,English,2024-07-01_15h16.15.394,ABmemTask3,2023.2.3,Win32,60.97560976,,,,,,,,,,,,,,,,,,,,,,,,,,,,,,,,,1129.4139,610,1129.9144,,,,,,,,,,,,,,,,,,,,,,,,,,0,,,,,,,,,prac_MEM,new,,,,,,,,,,,10,,,,,,,,,,,,,,,,,,,,,,,,,,,,,,,,,,,1129.9144,1131.8306,-2,1,1.8841,,1131.8309,1132.8306,0,9,9,9,1,999,999,pics/moth.jpg,,,,,,,,,,,,,,,,,,,,,,,,,,,,,,,,,,,,,,,,,,,,,,,,,,,,,,,,,,,,,,,,,,,,,,,
,,,,,65dcb1277d4c8c0b58de2db7,6682b41eeb79ab8215dff63d,6682b9f65ff67f9577442b56,59,Male,English,2024-07-01_15h16.15.394,ABmemTask3,2023.2.3,Win32,60.97560976,,,,,,,,,,,,,,,,,,,,,,,,,,,,,,,,,1132.8454,610,1133.3474,,,,,,,,,,,,,,,,,,,,,,,,,,0,,,,,,,,,prac_MEM,old,,,,,,,,,,,10,,,,,,,,,,,,,,,,,,,,,,,,,,,,,,,,,,,1133.3475,1135.0634,-5,1,1.6886,,1135.0643,1136.064,0,10,10,1,1,2,1,pics/pants.jpg,,,,,,,,,,,,,,,,,,,,,,,,,,,,,,,,,,,,,,,,,,,,,,,,,,,,,,,,,,,,,,,,,,,,,,,
,,,,,65dcb1277d4c8c0b58de2db7,6682b41eeb79ab8215dff63d,6682b9f65ff67f9577442b56,59,Male,English,2024-07-01_15h16.15.394,ABmemTask3,2023.2.3,Win32,60.97560976,,,,,,,,,,,,,,,,,,,,,,,,,,,,,,,,,,,,,,,,,,,,,,,,,,,,,,,,,,,,,,,,,,,,,,,,,,,,,,,,,,,,,,,,,,,,,,,,,,,,,,,,,,,,,,,,,,,,,,,,,,,,,,,,,,,,,1136.0647,1139.0127,1139.0129,1139.0138,,,,,,,,,,,,,,,,,,,,,,,,,,,,,,,,,,,,,,,,,,,,,,,,,,,,,,,,,,,,,,,,,,,
,,,,,65dcb1277d4c8c0b58de2db7,6682b41eeb79ab8215dff63d,6682b9f65ff67f9577442b56,59,Male,English,2024-07-01_15h16.15.394,ABmemTask3,2023.2.3,Win32,60.97560976,,,,,,,,,,,,,,,,,,space,24.7821,,,,,,,,,,,,,,,,,,,,,,,,,,,,,,,,,,,,,,,,,,,,,,,,,,,,,,,,,,,,,,,,,,,,,,,,,,,,,,,,,,,,,,,,,,,,,,,,,,,,,,,,,,,,,,,,,,,,,,1139.014,1163.8413,,,,,,,,,,,,,,,,,,,,,,,,,,,,,,,,,,,,,,,,,,,,,,,,,,,,,,,,,,,,,,,,,
,,,,,65dcb1277d4c8c0b58de2db7,6682b41eeb79ab8215dff63d,6682b9f65ff67f9577442b56,59,Male,English,2024-07-01_15h16.15.394,ABmemTask3,2023.2.3,Win32,60.97560976,,,,,,,,,,,,,,,,,,,,,,,,,,,,,,,,,,,,,,,,,,,,,,,,,,,,,,,,,,,,,,,,,,,,,,,,,,,,,,,,,,,,,,,,,,,,,,,,,,,,,,,,,,,,,,,,,,,,,,,,,,,,,,,,,,,,,,,,,,,1163.8415,1169.2467,space,5.3605,,,,,,,,,,,,,,,,,,,,,,,,,,,,,,,,,,,,,,,,,,,,,,,,,,,,,,,,,,,,,
,,,,,65dcb1277d4c8c0b58de2db7,6682b41eeb79ab8215dff63d,6682b9f65ff67f9577442b56,59,Male,English,2024-07-01_15h16.15.394,ABmemTask3,2023.2.3,Win32,60.97560976,,,,,,,,,,,,,,,,,,,,,,,,,,,,,,,1169.2637,1170.2622,1170.2622,7,1170.7621,1172.3956,0.0019,1172.5121,0.1211,0.1111,0.1165,0.1169,0.1164,0.1171,0.1164,0.1259,0.1071,0.1169,0.1158,1172.5123,1174.7386,left,2.2007,,1174.7386,1175.912,right,1.1512,,2,0,2,1175.9121,1176.9118,,,,,,1_AB,L5_T1A_T2P,5,0,1,5,10,4,5,15,scorpion,Did you see the scorpion,0.12,0,resources/,pics/pictureframe04.jpg,pics/binder03b.jpg,pics/pencil01.jpg,pics/leaf02a.jpg,pics/icecube01.jpg,pics/dromedary.jpg,pics/toiletpaper01a.jpg,pics/peanut01.jpg,pics/golfball.jpg,pics/stapler03.jpg,pics/carrot01.jpg,pics/peach01.jpg,pics/sealion.jpg,pics/football.jpg,pics/zebra.jpg,blankImage,blankImage,scorpion,54,0.1177,0.1162,0.1169,,,,,,,,,,,,,,,,,,,,,,,,,,,,,,,,,,,,,,0,0,0,53,1,,,,,,,,,,,,,,,,,,,,,,,,,,,,,,,,,,,,,,,,,,,,,,,,,,,,,,,
,,,,,65dcb1277d4c8c0b58de2db7,6682b41eeb79ab8215dff63d,6682b9f65ff67f9577442b56,59,Male,English,2024-07-01_15h16.15.394,ABmemTask3,2023.2.3,Win32,60.97560976,,,,,,,,,,,,,,,,,,,,,,,,,,,,,,,1176.9277,1177.9282,1177.9283,7,1178.4283,1179.5952,0.0017,1179.7117,0.1148,0.1177,0.1162,0.1164,0.1174,0.1163,0.1168,0.1168,0.1167,0.1165,,1179.7118,1181.1119,right,1.3675,,1181.112,1182.3049,left,1.1675,,2,0,4,1182.3049,1183.2941,,,,,,1_AB,L1_T1P_T2P,1,1,1,7,8,6,3,11,toothpick,Did you see the toothpick,0.12,0,resources/,pics/candleholder01.jpg,pics/blender.jpg,pics/siamesecat.jpg,pics/peanut01.jpg,pics/spiderweb.jpg,pics/football.jpg,pics/toothpick02.jpg,pics/stapler04b.jpg,pics/seagull.jpg,pics/pictureframe04.jpg,pics/shipinabottle.jpg,blankImage,blankImage,blankImage,blankImage,blankImage,blankImage,toothpick02,17,,,,,,,,,,,,,,,,,,,,,,,,,,,,,,,,,,,,,,,,,0,1,1,16,1,,,,,,,,,,,,,,,,,,,,,,,,,,,,,,,,,,,,,,,,,,,,,,,,,,,,,,,
,,,,,65dcb1277d4c8c0b58de2db7,6682b41eeb79ab8215dff63d,6682b9f65ff67f9577442b56,59,Male,English,2024-07-01_15h16.15.394,ABmemTask3,2023.2.3,Win32,60.97560976,,,,,,,,,,,,,,,,,,,,,,,,,,,,,,,1183.3091,1184.3102,1184.3103,7,1184.8101,1186.454,0.0014,1186.5607,0.1173,0.1159,0.1176,0.1164,0.1162,0.1173,0.1162,0.1168,0.1163,0.1171,0.1164,1186.5608,1187.9945,right,1.4047,,1187.9947,1188.7274,right,0.7007,,4,0,6,1188.7275,1189.7275,,,,,,1_AB,L5_T1P_T2P,5,1,1,6,11,5,4,15,toast,Did you see the toast,0.12,0,resources/,pics/piggybank.jpg,pics/leaf02a.jpg,pics/carrot01.jpg,pics/birdhouse.jpg,pics/bowlingpin.jpg,pics/toast.jpg,pics/spiderweb.jpg,pics/cork02.jpg,pics/sink.jpg,pics/nutcracker01.jpg,pics/stapler02.jpg,pics/ashtray01.jpg,pics/fanblades.jpg,pics/pencil01.jpg,pics/lightswitch01.jpg,blankImage,blankImage,toast,46,0.117,0.1163,0.1261,,,,,,,,,,,,,,,,,,,,,,,,,,,,,,,,,,,,,,0,2,2,45,1,,,,,,,,,,,,,,,,,,,,,,,,,,,,,,,,,,,,,,,,,,,,,,,,,,,,,,,
,,,,,65dcb1277d4c8c0b58de2db7,6682b41eeb79ab8215dff63d,6682b9f65ff67f9577442b56,59,Male,English,2024-07-01_15h16.15.394,ABmemTask3,2023.2.3,Win32,60.97560976,,,,,,,,,,,,,,,,,,,,,,,,,,,,,,,1189.7283,1190.7275,1190.7276,7,1191.2276,1192.3947,0.0014,1192.511,0.1157,0.1171,0.1168,0.1255,0.1072,0.1169,0.1165,0.1168,0.1169,0.1167,,1192.511,1194.6441,left,2.1004,,1194.6442,1195.9107,right,1.2349,,4,0,8,1195.9107,1196.9103,,,,,,1_AB,L1_T1P_T2P,1,1,1,7,8,6,3,11,sock,Did you see the sock,0.12,0,resources/,pics/hen.jpg,pics/christmaslights.jpg,pics/salmon.jpg,pics/sealion.jpg,pics/seaturtle.jpg,pics/giraffe.jpg,pics/athleticsock.jpg,pics/stapler01.jpg,pics/shovel01.jpg,pics/leaf02a.jpg,pics/backpack01a.jpg,blankImage,blankImage,blankImage,blankImage,blankImage,blankImage,athleticsock,11,,,,,,,,,,,,,,,,,,,,,,,,,,,,,,,,,,,,,,,,,0,3,3,10,1,,,,,,,,,,,,,,,,,,,,,,,,,,,,,,,,,,,,,,,,,,,,,,,,,,,,,,,
,,,,,65dcb1277d4c8c0b58de2db7,6682b41eeb79ab8215dff63d,6682b9f65ff67f9577442b56,59,Male,English,2024-07-01_15h16.15.394,ABmemTask3,2023.2.3,Win32,60.97560976,,,,,,,,,,,,,,,,,,,,,,,,,,,,,,,1196.9254,1197.9271,1197.9272,7,1198.4199,1199.6941,0.0013,1199.8104,0.1068,0.1165,0.1166,0.117,0.1163,0.1167,0.1168,0.1165,0.1169,0.1158,0.1173,1199.8105,1201.1867,right,1.3506,,1201.1867,1202.377,left,1.1715,,4,0,10,1202.3771,1203.3767,,,,,,1_AB,L1_T1P_T2P,1,1,1,7,8,6,4,12,hammer,Did you see the hammer,0.12,0,resources/,pics/microscope.jpg,pics/blender.jpg,pics/dustpan.jpg,pics/snowshoe.jpg,pics/mummy.jpg,pics/bowtie.jpg,pics/hammer01.jpg,pics/stapler04b.jpg,pics/seaturtle.jpg,pics/candle01.jpg,pics/necklace.jpg,pics/cannon.jpg,blankImage,blankImage,blankImage,blankImage,blankImage,hammer01,21,,,,,,,,,,,,,,,,,,,,,,,,,,,,,,,,,,,,,,,,,0,4,4,20,1,,,,,,,,,,,,,,,,,,,,,,,,,,,,,,,,,,,,,,,,,,,,,,,,,,,,,,,
,,,,,65dcb1277d4c8c0b58de2db7,6682b41eeb79ab8215dff63d,6682b9f65ff67f9577442b56,59,Male,English,2024-07-01_15h16.15.394,ABmemTask3,2023.2.3,Win32,60.97560976,,,,,,,,,,,,,,,,,,,,,,,,,,,,,,,1203.392,1204.3932,1204.3933,7,1204.8932,1206.5271,0.0012,1206.643,0.1167,0.1163,0.1169,0.1162,0.1172,0.1164,0.1168,0.1161,0.1176,0.1159,0.1162,1206.6431,1207.8933,left,1.2172,,1207.8933,1208.8263,left,0.9004,,4,0,12,1208.8264,1209.8263,,,,,,1_AB,L5_T1A_T2P,5,0,1,7,12,6,3,15,scissors,Did you see the scissors,0.12,0,resources/,pics/cannon.jpg,pics/mummy.jpg,pics/shovel01.jpg,pics/christmaslights.jpg,pics/snowshoe.jpg,pics/candle01.jpg,pics/bowtie.jpg,pics/giraffe.jpg,pics/carrot01.jpg,pics/spoon01.jpg,pics/seaturtle.jpg,pics/stapler10.jpg,pics/footballhelmet.jpg,pics/onion.jpg,pics/wheel01.jpg,blankImage,blankImage,scissors01,57,0.117,0.1169,0.1166,,,,,,,,,,,,,,,,,,,,,,,,,,,,,,,,,,,,,,0,5,5,56,1,,,,,,,,,,,,,,,,,,,,,,,,,,,,,,,,,,,,,,,,,,,,,,,,,,,,,,,
,,,,,65dcb1277d4c8c0b58de2db7,6682b41eeb79ab8215dff63d,6682b9f65ff67f9577442b56,59,Male,English,2024-07-01_15h16.15.394,ABmemTask3,2023.2.3,Win32,60.97560976,,,,,,,,,,,,,,,,,,,,,,,,,,,,,,,1209.827,1210.8261,1210.8262,7,1211.3262,1212.2602,0.0013,1212.3759,0.1255,0.1073,0.1166,0.1169,0.1164,0.1169,0.1167,0.1168,,,,1212.3761,1213.7097,right,1.3006,,1213.7098,1214.7096,left,0.9675,,2,0,14,1214.7097,1215.7096,,,,,,1_AB,L1_T1A_T2A,1,0,0,4,5,3,4,9,License Plate,Did you see the License Plate,0.12,0,resources/,pics/snowshoe.jpg,pics/kangaroo.jpg,pics/noparkingsign.jpg,pics/match.jpg,pics/hose.jpg,pics/blender.jpg,pics/ashtray01.jpg,pics/ball02.jpg,pics/sink.jpg,blankImage,blankImage,blankImage,blankImage,blankImage,blankImage,blankImage,blankImage,licenseplate,40,,,,,,,,,,,,,,,,,,,,,,,,,,,,,,,,,,,,,,,,,0,6,6,39,1,,,,,,,,,,,,,,,,,,,,,,,,,,,,,,,,,,,,,,,,,,,,,,,,,,,,,,,
,,,,,65dcb1277d4c8c0b58de2db7,6682b41eeb79ab8215dff63d,6682b9f65ff67f9577442b56,59,Male,English,2024-07-01_15h16.15.394,ABmemTask3,2023.2.3,Win32,60.97560976,,,,,,,,,,,,,,,,,,,,,,,,,,,,,,,1215.7103,1216.7012,1216.7012,7,1217.1926,1218.5921,0.0015,1218.7095,0.1162,0.116,0.1166,0.1176,0.1161,0.117,0.1167,0.1165,0.1168,0.1258,0.1073,1218.7095,1219.976,left,1.2339,,1219.9761,1220.4595,left,0.4548,,4,0,16,1220.4596,1221.4592,,,,,,1_AB,L1_T1A_T2A,1,0,0,7,8,6,5,13,fan,Did you see the fan,0.12,0,resources/,pics/leaf02a.jpg,pics/dustpan.jpg,pics/pencil01.jpg,pics/kangaroo.jpg,pics/golfball.jpg,pics/lightswitch01.jpg,pics/nutcracker01.jpg,pics/calendar.jpg,pics/hose.jpg,pics/starfish01.jpg,pics/siamesecat.jpg,pics/bowlingpin.jpg,pics/necklace.jpg,blankImage,blankImage,blankImage,blankImage,fan,42,0.1158,,,,,,,,,,,,,,,,,,,,,,,,,,,,,,,,,,,,,,,,0,7,7,41,1,,,,,,,,,,,,,,,,,,,,,,,,,,,,,,,,,,,,,,,,,,,,,,,,,,,,,,,
,,,,,65dcb1277d4c8c0b58de2db7,6682b41eeb79ab8215dff63d,6682b9f65ff67f9577442b56,59,Male,English,2024-07-01_15h16.15.394,ABmemTask3,2023.2.3,Win32,60.97560976,,,,,,,,,,,,,,,,,,,,,,,,,,,,,,,1221.4598,1222.4683,1222.4683,7,1222.959,1224.2427,0.0014,1224.3581,0.1162,0.1169,0.1165,0.1161,0.1172,0.1162,0.1168,0.117,0.1164,0.1168,0.1165,1224.3582,1225.3582,right,0.9691,,1225.3583,1225.8585,right,0.4691,,6,0,18,1225.8586,1226.8577,,,,,,1_AB,L1_T1P_T2P,1,1,1,6,7,5,5,12,Bear,Did you see the Bear,0.12,0,resources/,pics/necklace.jpg,pics/hen.jpg,pics/dromedary.jpg,pics/piggybank.jpg,pics/sandbarshark.jpg,pics/grizzly.jpg,pics/stapler12.jpg,pics/bowlingpin.jpg,pics/christmaslights.jpg,pics/icecube01.jpg,pics/match.jpg,pics/lock03a.jpg,blankImage,blankImage,blankImage,blankImage,blankImage,grizzly,18,,,,,,,,,,,,,,,,,,,,,,,,,,,,,,,,,,,,,,,,,0,8,8,17,1,,,,,,,,,,,,,,,,,,,,,,,,,,,,,,,,,,,,,,,,,,,,,,,,,,,,,,,
,,,,,65dcb1277d4c8c0b58de2db7,6682b41eeb79ab8215dff63d,6682b9f65ff67f9577442b56,59,Male,English,2024-07-01_15h16.15.394,ABmemTask3,2023.2.3,Win32,60.97560976,,,,,,,,,,,,,,,,,,,,,,,,,,,,,,,1226.8583,1227.8579,1227.8579,7,1228.358,1230.1078,0.0012,1230.2245,0.117,0.1161,0.1172,0.1167,0.1166,0.1168,0.1165,0.1168,0.1166,0.1164,0.1162,1230.2247,1231.3753,right,1.1204,,1231.3755,1231.742,right,0.3342,,4,0,20,1231.7421,1232.742,,,,,,1_AB,L5_T1P_T2A,5,1,0,7,12,6,4,16,boat,Did you see the boat,0.12,0,resources/,pics/butterfly.jpg,pics/onion.jpg,pics/hose.jpg,pics/ball02.jpg,pics/ashtray01.jpg,pics/bowtie.jpg,pics/boat.jpg,pics/seaturtle.jpg,pics/blender.jpg,pics/zebra.jpg,pics/pictureframe04.jpg,pics/shovel01.jpg,pics/spoon01.jpg,pics/peanut01.jpg,pics/nutcracker01.jpg,pics/aquarium.jpg,blankImage,boat,60,0.1172,0.1168,0.1167,,,,,,,,,,,,,,,,,,,,,,,,,,,,,,,,,,,,,,0,9,9,59,1,0.1155,,,,,,,,,,,,,,,,,,,,,,,,,,,,,,,,,,,,,,,,,,,,,,,,,,,,,,
,,,,,65dcb1277d4c8c0b58de2db7,6682b41eeb79ab8215dff63d,6682b9f65ff67f9577442b56,59,Male,English,2024-07-01_15h16.15.394,ABmemTask3,2023.2.3,Win32,60.97560976,,,,,,,,,,,,,,,,,,,,,,,,,,,,,,,1232.7427,1233.7419,1233.7419,7,1234.2418,1235.5252,0.0013,1235.6416,0.1152,0.1175,0.1164,0.1261,0.1073,0.1259,0.1077,0.1162,0.1171,0.1166,0.1164,1235.6418,1236.9415,left,1.27,,1236.9415,1237.5749,right,0.6005,,4,0,22,1237.575,1238.5747,,,,,,1_AB,L1_T1P_T2P,1,1,1,7,8,6,4,12,Turnstile,Did you see the Turnstile,0.12,0,resources/,pics/golfball.jpg,pics/hose.jpg,pics/siamesecat.jpg,pics/binoculars01b.jpg,pics/hen.jpg,pics/candleholder01.jpg,pics/turnstile.jpg,pics/stapler03a.jpg,pics/giraffe.jpg,pics/pictureframe04.jpg,pics/sandbarshark.jpg,pics/spoon01.jpg,blankImage,blankImage,blankImage,blankImage,blankImage,turnstile,13,,,,,,,,,,,,,,,,,,,,,,,,,,,,,,,,,,,,,,,,,0,10,10,12,1,,,,,,,,,,,,,,,,,,,,,,,,,,,,,,,,,,,,,,,,,,,,,,,,,,,,,,,
,,,,,65dcb1277d4c8c0b58de2db7,6682b41eeb79ab8215dff63d,6682b9f65ff67f9577442b56,59,Male,English,2024-07-01_15h16.15.394,ABmemTask3,2023.2.3,Win32,60.97560976,,,,,,,,,,,,,,,,,,,,,,,,,,,,,,,1238.5901,1239.5913,1239.5913,7,1240.0917,1241.3743,0.0015,1241.4911,0.1156,0.1167,0.1259,0.1074,0.1166,0.1165,0.1167,0.1165,0.1168,0.117,0.1158,1241.4912,1242.5414,right,1.0207,,1242.5414,1242.9079,right,0.3374,,6,0,24,1242.9082,1243.9074,,,,,,1_AB,L5_T1P_T2P,5,1,1,4,9,3,3,12,Sheep,Did you see the Sheep,0.12,0,resources/,pics/icecube01.jpg,pics/cymbal.jpg,pics/wheel01.jpg,pics/sheep.jpg,pics/starfish01.jpg,pics/safetypin.jpg,pics/siamesecat.jpg,pics/lock03a.jpg,pics/stapler01.jpg,pics/sink.jpg,pics/fanblades.jpg,pics/bowlingpin.jpg,blankImage,blankImage,blankImage,blankImage,blankImage,sheep,52,,,,,,,,,,,,,,,,,,,,,,,,,,,,,,,,,,,,,,,,,0,11,11,51,1,,,,,,,,,,,,,,,,,,,,,,,,,,,,,,,,,,,,,,,,,,,,,,,,,,,,,,,
,,,,,65dcb1277d4c8c0b58de2db7,6682b41eeb79ab8215dff63d,6682b9f65ff67f9577442b56,59,Male,English,2024-07-01_15h16.15.394,ABmemTask3,2023.2.3,Win32,60.97560976,,,,,,,,,,,,,,,,,,,,,,,,,,,,,,,1243.908,1244.9073,1244.9074,7,1245.4076,1246.4578,0.0018,1246.5743,0.1158,0.1168,0.1164,0.1259,0.1074,0.1165,0.1167,0.117,0.1161,,,1246.5744,1247.8243,left,1.2185,,1247.8245,1248.341,right,0.484,,8,0,26,1248.3411,1249.341,,,,,,1_AB,L1_T1A_T2P,1,0,1,5,6,4,4,10,Rabbit,Did you see the Rabbit,0.12,0,resources/,pics/cannon.jpg,pics/proboscismonkey.jpg,pics/salmon.jpg,pics/nutcracker01.jpg,pics/seagull.jpg,pics/stapler02.jpg,pics/table01.jpg,pics/laptop01a.jpg,pics/necklace.jpg,pics/pencilsharpener02a.jpg,blankImage,blankImage,blankImage,blankImage,blankImage,blankImage,blankImage,jackrabbit,31,,,,,,,,,,,,,,,,,,,,,,,,,,,,,,,,,,,,,,,,,0,12,12,30,1,,,,,,,,,,,,,,,,,,,,,,,,,,,,,,,,,,,,,,,,,,,,,,,,,,,,,,,
,,,,,65dcb1277d4c8c0b58de2db7,6682b41eeb79ab8215dff63d,6682b9f65ff67f9577442b56,59,Male,English,2024-07-01_15h16.15.394,ABmemTask3,2023.2.3,Win32,60.97560976,,,,,,,,,,,,,,,,,,,,,,,,,,,,,,,1249.3416,1250.3409,1250.3409,7,1250.8409,1251.8905,0.0013,1252.0073,0.1156,0.1171,0.1166,0.1166,0.126,0.1074,0.1168,0.1166,0.116,,,1252.0074,1253.1074,right,1.0676,,1253.1075,1253.4066,right,0.2728,,6,0,28,1253.4067,1254.4068,,,,,,1_AB,L1_T1P_T2A,1,1,0,6,7,5,3,10,Duct tape,Did you see the Duct tape,0.12,0,resources/,pics/butterfly.jpg,pics/noparkingsign.jpg,pics/pictureframe04.jpg,pics/cork02.jpg,pics/fanblades.jpg,pics/ducttape.jpg,pics/icecube01.jpg,pics/siamesecat.jpg,pics/sink.jpg,pics/sandbarshark.jpg,blankImage,blankImage,blankImage,blankImage,blankImage,blankImage,blankImage,ducttape,36,,,,,,,,,,,,,,,,,,,,,,,,,,,,,,,,,,,,,,,,,0,13,13,35,1,,,,,,,,,,,,,,,,,,,,,,,,,,,,,,,,,,,,,,,,,,,,,,,,,,,,,,,
,,,,,65dcb1277d4c8c0b58de2db7,6682b41eeb79ab8215dff63d,6682b9f65ff67f9577442b56,59,Male,English,2024-07-01_15h16.15.394,ABmemTask3,2023.2.3,Win32,60.97560976,,,,,,,,,,,,,,,,,,,,,,,,,,,,,,,1254.4218,1255.4234,1255.4234,7,1255.9237,1257.2071,0.0015,1257.323,0.125,0.1074,0.1262,0.1067,0.1173,0.1258,0.1076,0.1166,0.1162,0.1165,0.1168,1257.3231,1258.5335,left,1.1841,,1258.5335,1259.39,right,0.8346,,8,0,30,1259.3901,1260.3899,,,,,,1_AB,L5_T1A_T2P,5,0,1,4,9,3,3,12,rooster,Did you see the rooster,0.12,0,resources/,pics/table01.jpg,pics/icecube01.jpg,pics/dustpan.jpg,pics/lock03a.jpg,pics/sailboat.jpg,pics/salmon.jpg,pics/banjo.jpg,pics/zebra.jpg,pics/stapler09.jpg,pics/peach01.jpg,pics/chainsaw.jpg,pics/football.jpg,blankImage,blankImage,blankImage,blankImage,blankImage,rooster,55,,,,,,,,,,,,,,,,,,,,,,,,,,,,,,,,,,,,,,,,,0,14,14,54,1,,,,,,,,,,,,,,,,,,,,,,,,,,,,,,,,,,,,,,,,,,,,,,,,,,,,,,,
,,,,,65dcb1277d4c8c0b58de2db7,6682b41eeb79ab8215dff63d,6682b9f65ff67f9577442b56,59,Male,English,2024-07-01_15h16.15.394,ABmemTask3,2023.2.3,Win32,60.97560976,,,,,,,,,,,,,,,,,,,,,,,,,,,,,,,1260.4051,1261.3954,1261.3955,7,1261.8901,1263.0561,0.0013,1263.1726,0.1251,0.1079,0.1166,0.122,0.1113,0.117,0.1162,0.1254,0.1066,0.117,,1263.1727,1264.2165,left,1.0172,,1264.2166,1264.6564,right,0.4212,,10,0,32,1264.6564,1265.6566,,,,,,1_AB,L1_T1A_T2P,1,0,1,5,6,4,5,11,Recorder,Did you see the Recorder,0.12,0,resources/,pics/bowtie.jpg,pics/nutcracker01.jpg,pics/hairdryer02a.jpg,pics/shovel01.jpg,pics/onion.jpg,pics/stapler13.jpg,pics/safetypin.jpg,pics/spiderweb.jpg,pics/seagull.jpg,pics/dustpan.jpg,pics/icecube01.jpg,blankImage,blankImage,blankImage,blankImage,blankImage,blankImage,recorder04,28,,,,,,,,,,,,,,,,,,,,,,,,,,,,,,,,,,,,,,,,,0,15,15,27,1,,,,,,,,,,,,,,,,,,,,,,,,,,,,,,,,,,,,,,,,,,,,,,,,,,,,,,,
,,,,,65dcb1277d4c8c0b58de2db7,6682b41eeb79ab8215dff63d,6682b9f65ff67f9577442b56,59,Male,English,2024-07-01_15h16.15.394,ABmemTask3,2023.2.3,Win32,60.97560976,,,,,,,,,,,,,,,,,,,,,,,,,,,,,,,1265.6572,1266.6561,1266.6561,7,1267.1562,1268.2069,0.0013,1268.323,0.1163,0.1169,0.1162,0.1169,0.1165,0.1168,0.1169,0.1166,0.1166,,,1268.3231,1269.2565,right,0.9002,,1269.2566,1269.5232,right,0.2348,,12,0,34,1269.5233,1270.5228,,,,,,1_AB,L1_T1P_T2P,1,1,1,4,5,3,5,10,chair,Did you see the chair,0.12,0,resources/,pics/zebra.jpg,pics/floortile02.jpg,pics/cork02.jpg,pics/chair.jpg,pics/stapler07.jpg,pics/sealion.jpg,pics/shovel01.jpg,pics/piggybank.jpg,pics/candleholder01.jpg,pics/laptop01a.jpg,blankImage,blankImage,blankImage,blankImage,blankImage,blankImage,blankImage,chair,3,,,,,,,,,,,,,,,,,,,,,,,,,,,,,,,,,,,,,,,,,0,16,16,2,1,,,,,,,,,,,,,,,,,,,,,,,,,,,,,,,,,,,,,,,,,,,,,,,,,,,,,,,
,,,,,65dcb1277d4c8c0b58de2db7,6682b41eeb79ab8215dff63d,6682b9f65ff67f9577442b56,59,Male,English,2024-07-01_15h16.15.394,ABmemTask3,2023.2.3,Win32,60.97560976,,,,,,,,,,,,,,,,,,,,,,,,,,,,,,,1270.5378,1271.5397,1271.5398,7,1272.0396,1272.9733,0.0013,1273.0895,0.1154,0.1173,0.1162,0.1171,0.1165,0.1163,0.117,0.1168,,,,1273.0896,1273.9993,right,0.8843,,1273.9995,1274.2492,right,0.2338,,14,0,36,1274.2493,1275.2394,,,,,,1_AB,L1_T1P_T2P,1,1,1,5,6,4,3,9,paint brush,Did you see the paint brush,0.12,0,resources/,pics/nutcracker01.jpg,pics/piggybank.jpg,pics/spiderweb.jpg,pics/table01.jpg,pics/paintbrush01.jpg,pics/stapler09.jpg,pics/hose.jpg,pics/cannon.jpg,pics/mummy.jpg,blankImage,blankImage,blankImage,blankImage,blankImage,blankImage,blankImage,blankImage,paintbrush01,20,,,,,,,,,,,,,,,,,,,,,,,,,,,,,,,,,,,,,,,,,0,17,17,19,1,,,,,,,,,,,,,,,,,,,,,,,,,,,,,,,,,,,,,,,,,,,,,,,,,,,,,,,
,,,,,65dcb1277d4c8c0b58de2db7,6682b41eeb79ab8215dff63d,6682b9f65ff67f9577442b56,59,Male,English,2024-07-01_15h16.15.394,ABmemTask3,2023.2.3,Win32,60.97560976,,,,,,,,,,,,,,,,,,,,,,,,,,,,,,,1275.24,1276.239,1276.2392,7,1276.7391,1277.6722,0.0014,1277.7893,0.1162,0.1163,0.1172,0.1166,0.1258,0.1076,0.1162,0.1162,,,,1277.7893,1278.8557,left,1.0392,,1278.8558,1279.5892,right,0.7025,,14,0,38,1279.5892,1280.594,,,,,,1_AB,L1_T1P_T2P,1,1,1,4,5,3,4,9,Chefs hat,Did you see the Chefs hat,0.12,0,resources/,pics/sewingmachine01a.jpg,pics/icecube01.jpg,pics/fanblades.jpg,pics/chefshat.jpg,pics/stapler06.jpg,pics/ashtray01.jpg,pics/blender.jpg,pics/sandbarshark.jpg,pics/lock03a.jpg,blankImage,blankImage,blankImage,blankImage,blankImage,blankImage,blankImage,blankImage,chefshat,12,,,,,,,,,,,,,,,,,,,,,,,,,,,,,,,,,,,,,,,,,0,18,18,11,1,,,,,,,,,,,,,,,,,,,,,,,,,,,,,,,,,,,,,,,,,,,,,,,,,,,,,,,
,,,,,65dcb1277d4c8c0b58de2db7,6682b41eeb79ab8215dff63d,6682b9f65ff67f9577442b56,59,Male,English,2024-07-01_15h16.15.394,ABmemTask3,2023.2.3,Win32,60.97560976,,,,,,,,,,,,,,,,,,,,,,,,,,,,,,,1280.6091,1281.6055,1281.6055,7,1282.1053,1283.2722,0.0016,1283.3886,0.1161,0.1167,0.1165,0.1167,0.1162,0.1173,0.116,0.1172,0.1166,0.1169,,1283.3887,1284.4722,right,1.0694,,1284.4723,1285.6053,left,1.1177,,16,0,40,1285.6055,1286.6051,,,,,,1_AB,L1_T1P_T2A,1,1,0,7,8,6,3,11,garlic,Did you see the garlic,0.12,0,resources/,pics/zebra.jpg,pics/banjo.jpg,pics/pencilsharpener02a.jpg,pics/football.jpg,pics/candle01.jpg,pics/footballhelmet.jpg,pics/garlic01a.jpg,pics/birdhouse.jpg,pics/peach01.jpg,pics/pictureframe04.jpg,pics/binder03b.jpg,blankImage,blankImage,blankImage,blankImage,blankImage,blankImage,garlic01a,33,,,,,,,,,,,,,,,,,,,,,,,,,,,,,,,,,,,,,,,,,0,19,19,32,1,,,,,,,,,,,,,,,,,,,,,,,,,,,,,,,,,,,,,,,,,,,,,,,,,,,,,,,
,,,,,65dcb1277d4c8c0b58de2db7,6682b41eeb79ab8215dff63d,6682b9f65ff67f9577442b56,59,Male,English,2024-07-01_15h16.15.394,ABmemTask3,2023.2.3,Win32,60.97560976,,,,,,,,,,,,,,,,,,,,,,,,,,,,,,,1286.6209,1287.6216,1287.6217,7,1288.1217,1289.0553,0.0015,1289.1712,0.1159,0.1168,0.1168,0.1165,0.1166,0.1169,0.1158,0.1174,,,,1289.1712,1290.0385,right,0.8495,,1290.0386,1290.2883,right,0.2339,,18,0,42,1290.2884,1291.2882,,,,,,1_AB,L1_T1P_T2P,1,1,1,5,6,4,3,9,cabbage,Did you see the cabbage,0.12,0,resources/,pics/match.jpg,pics/icecube01.jpg,pics/noparkingsign.jpg,pics/christmaslights.jpg,pics/cabbage.jpg,pics/stapler03a.jpg,pics/carrot01.jpg,pics/dustpan.jpg,pics/cannon.jpg,blankImage,blankImage,blankImage,blankImage,blankImage,blankImage,blankImage,blankImage,cabbage,14,,,,,,,,,,,,,,,,,,,,,,,,,,,,,,,,,,,,,,,,,0,20,20,13,1,,,,,,,,,,,,,,,,,,,,,,,,,,,,,,,,,,,,,,,,,,,,,,,,,,,,,,,
,,,,,65dcb1277d4c8c0b58de2db7,6682b41eeb79ab8215dff63d,6682b9f65ff67f9577442b56,59,Male,English,2024-07-01_15h16.15.394,ABmemTask3,2023.2.3,Win32,60.97560976,,,,,,,,,,,,,,,,,,,,,,,,,,,,,,,1291.2888,1292.2882,1292.2883,7,1292.788,1294.305,0.0018,1294.4212,0.1157,0.1166,0.1167,0.1167,0.1166,0.1165,0.1169,0.1166,0.1164,0.1159,0.1177,1294.4212,1295.3548,right,0.9169,,1295.355,1295.5547,right,0.184,,16,0,44,1295.5548,1296.5544,,,,,,1_AB,L5_T1P_T2A,5,1,0,6,11,5,3,14,Kiwi,Did you see the Kiwi,0.12,0,resources/,pics/candleholder01.jpg,pics/kangaroo.jpg,pics/banjo.jpg,pics/binoculars01b.jpg,pics/microscope.jpg,pics/kiwi03.jpg,pics/bowtie.jpg,pics/peanut01.jpg,pics/backpack01a.jpg,pics/zebra.jpg,pics/toiletpaper01a.jpg,pics/hen.jpg,pics/spoon01.jpg,pics/calendar.jpg,blankImage,blankImage,blankImage,kiwi03,59,0.1165,0.1166,,,,,,,,,,,,,,,,,,,,,,,,,,,,,,,,,,,,,,,0,21,21,58,1,,,,,,,,,,,,,,,,,,,,,,,,,,,,,,,,,,,,,,,,,,,,,,,,,,,,,,,
,,,,,65dcb1277d4c8c0b58de2db7,6682b41eeb79ab8215dff63d,6682b9f65ff67f9577442b56,59,Male,English,2024-07-01_15h16.15.394,ABmemTask3,2023.2.3,Win32,60.97560976,,,,,,,,,,,,,,,,,,,,,,,,,,,,,,,1296.5696,1297.5712,1297.5712,7,1298.0712,1299.5881,0.0015,1299.7037,0.1157,0.117,0.1166,0.1166,0.1168,0.1164,0.1167,0.1166,0.1168,0.1165,0.1167,1299.7038,1301.2536,right,1.537,,1301.2538,1301.4878,right,0.219,,18,0,46,1301.4879,1302.4875,,,,,,1_AB,L5_T1P_T2P,5,1,1,6,11,5,3,14,mail box,Did you see the mail box,0.12,0,resources/,pics/pictureframe04.jpg,pics/seaturtle.jpg,pics/blender.jpg,pics/carrot01.jpg,pics/nutcracker01.jpg,pics/mailbox02.jpg,pics/seagull.jpg,pics/sink.jpg,pics/siamesecat.jpg,pics/spiderweb.jpg,pics/stapler08.jpg,pics/safetypin.jpg,pics/candle01.jpg,pics/mummy.jpg,blankImage,blankImage,blankImage,mailbox02,43,0.1166,0.1167,,,,,,,,,,,,,,,,,,,,,,,,,,,,,,,,,,,,,,,0,22,22,42,1,,,,,,,,,,,,,,,,,,,,,,,,,,,,,,,,,,,,,,,,,,,,,,,,,,,,,,,
,,,,,65dcb1277d4c8c0b58de2db7,6682b41eeb79ab8215dff63d,6682b9f65ff67f9577442b56,59,Male,English,2024-07-01_15h16.15.394,ABmemTask3,2023.2.3,Win32,60.97560976,,,,,,,,,,,,,,,,,,,,,,,,,,,,,,,1302.5027,1303.5041,1303.5042,7,1304.0041,1304.9377,0.0015,1305.054,0.1161,0.1166,0.1167,0.1165,0.1167,0.1159,0.1177,0.1165,,,,1305.0541,1306.4708,right,1.3995,,1306.4709,1306.8707,left,0.3836,,18,0,48,1306.8708,1307.8705,,,,,,1_AB,L1_T1P_T2P,1,1,1,5,6,4,3,9,Ant,Did you see the Ant,0.12,0,resources/,pics/kangaroo.jpg,pics/giraffe.jpg,pics/footballhelmet.jpg,pics/onion.jpg,pics/ant.jpg,pics/stapler04b.jpg,pics/banjo.jpg,pics/zebra.jpg,pics/dromedary.jpg,blankImage,blankImage,blankImage,blankImage,blankImage,blankImage,blankImage,blankImage,ant,15,,,,,,,,,,,,,,,,,,,,,,,,,,,,,,,,,,,,,,,,,0,23,23,14,1,,,,,,,,,,,,,,,,,,,,,,,,,,,,,,,,,,,,,,,,,,,,,,,,,,,,,,,
,,,,,65dcb1277d4c8c0b58de2db7,6682b41eeb79ab8215dff63d,6682b9f65ff67f9577442b56,59,Male,English,2024-07-01_15h16.15.394,ABmemTask3,2023.2.3,Win32,60.97560976,,,,,,,,,,,,,,,,,,,,,,,,,,,,,,,1307.8713,1308.8704,1308.8705,7,1309.3704,1310.8874,0.0016,1311.0037,0.116,0.1166,0.1168,0.1166,0.116,0.1174,0.1168,0.1164,0.1165,0.1169,0.1165,1311.0037,1312.27,left,1.2551,,1312.2701,1312.4704,left,0.1843,,18,0,50,1312.4704,1313.4702,,,,,,1_AB,L5_T1A_T2P,5,0,1,4,9,3,5,14,lemon,Did you see the lemon,0.12,0,resources/,pics/seaturtle.jpg,pics/lightswitch01.jpg,pics/candle01.jpg,pics/cannon.jpg,pics/seagull.jpg,pics/spoon01.jpg,pics/spiderweb.jpg,pics/sewingmachine01a.jpg,pics/stapler05.jpg,pics/binoculars01b.jpg,pics/zebra.jpg,pics/sealion.jpg,pics/shovel01.jpg,pics/wheel01.jpg,blankImage,blankImage,blankImage,lemon02,56,0.1167,0.1165,,,,,,,,,,,,,,,,,,,,,,,,,,,,,,,,,,,,,,,0,24,24,55,1,,,,,,,,,,,,,,,,,,,,,,,,,,,,,,,,,,,,,,,,,,,,,,,,,,,,,,,
,,,,,65dcb1277d4c8c0b58de2db7,6682b41eeb79ab8215dff63d,6682b9f65ff67f9577442b56,59,Male,English,2024-07-01_15h16.15.394,ABmemTask3,2023.2.3,Win32,60.97560976,,,,,,,,,,,,,,,,,,,,,,,,,,,,,,,1313.4709,1314.4695,1314.4696,7,1314.9695,1315.9028,0.0015,1316.0192,0.1158,0.1168,0.1165,0.1169,0.1174,0.1162,0.1163,0.1164,,,,1316.0192,1317.4031,left,1.3673,,1317.4032,1318.1033,right,0.6844,,20,0,52,1318.1034,1319.1032,,,,,,1_AB,L1_T1A_T2P,1,0,1,5,6,4,3,9,Trailer,Did you see the Trailer,0.12,0,resources/,pics/pencil01.jpg,pics/football.jpg,pics/hairdryer02a.jpg,pics/wheel01.jpg,pics/chainsaw.jpg,pics/stapler10.jpg,pics/peanut01.jpg,pics/triangle.jpg,pics/sink.jpg,blankImage,blankImage,blankImage,blankImage,blankImage,blankImage,blankImage,blankImage,boxtrailer,29,,,,,,,,,,,,,,,,,,,,,,,,,,,,,,,,,,,,,,,,,0,25,25,28,1,,,,,,,,,,,,,,,,,,,,,,,,,,,,,,,,,,,,,,,,,,,,,,,,,,,,,,,
,,,,,65dcb1277d4c8c0b58de2db7,6682b41eeb79ab8215dff63d,6682b9f65ff67f9577442b56,59,Male,English,2024-07-01_15h16.15.394,ABmemTask3,2023.2.3,Win32,60.97560976,,,,,,,,,,,,,,,,,,,,,,,,,,,,,,,1319.1183,1320.1198,1320.1198,7,1320.6198,1322.1369,0.0016,1322.253,0.116,0.1168,0.1158,0.1173,0.1171,0.1156,0.1174,0.1166,0.1168,0.1165,0.1167,1322.2531,1323.0865,right,0.8216,,1323.0866,1323.3864,right,0.2855,,22,0,54,1323.3866,1324.3862,,,,,,1_AB,L5_T1P_T2P,5,1,1,4,9,3,5,14,pliers,Did you see the pliers,0.12,0,resources/,pics/calendar.jpg,pics/footballhelmet.jpg,pics/seaturtle.jpg,pics/pliers02b.jpg,pics/wheel01.jpg,pics/cannon.jpg,pics/proboscismonkey.jpg,pics/shovel01.jpg,pics/stapler06.jpg,pics/football.jpg,pics/hose.jpg,pics/dustpan.jpg,pics/spiderweb.jpg,pics/golfball.jpg,blankImage,blankImage,blankImage,pliers02b,48,0.1169,0.1166,,,,,,,,,,,,,,,,,,,,,,,,,,,,,,,,,,,,,,,0,26,26,47,1,,,,,,,,,,,,,,,,,,,,,,,,,,,,,,,,,,,,,,,,,,,,,,,,,,,,,,,
,,,,,65dcb1277d4c8c0b58de2db7,6682b41eeb79ab8215dff63d,6682b9f65ff67f9577442b56,59,Male,English,2024-07-01_15h16.15.394,ABmemTask3,2023.2.3,Win32,60.97560976,,,,,,,,,,,,,,,,,,,,,,,,,,,,,,,1324.3871,1325.3861,1325.3862,7,1325.8861,1327.053,0.0016,1327.1693,0.1161,0.1166,0.1164,0.1168,0.1164,0.117,0.1166,0.117,0.1164,0.1166,,1327.1694,1328.469,right,1.2831,,1328.4692,1329.2862,right,0.804,,20,0,56,1329.2863,1330.2859,,,,,,1_AB,L1_T1P_T2A,1,1,0,7,8,6,3,11,eggplant,Did you see the eggplant,0.12,0,resources/,pics/salmon.jpg,pics/fanblades.jpg,pics/hammerheadshark.jpg,pics/wheel01.jpg,pics/snowshoe.jpg,pics/birdhouse.jpg,pics/eggplant.jpg,pics/spiderweb.jpg,pics/zebra.jpg,pics/pencilsharpener02a.jpg,pics/backpack01a.jpg,blankImage,blankImage,blankImage,blankImage,blankImage,blankImage,eggplant,32,,,,,,,,,,,,,,,,,,,,,,,,,,,,,,,,,,,,,,,,,0,27,27,31,1,,,,,,,,,,,,,,,,,,,,,,,,,,,,,,,,,,,,,,,,,,,,,,,,,,,,,,,
,,,,,65dcb1277d4c8c0b58de2db7,6682b41eeb79ab8215dff63d,6682b9f65ff67f9577442b56,59,Male,English,2024-07-01_15h16.15.394,ABmemTask3,2023.2.3,Win32,60.97560976,,,,,,,,,,,,,,,,,,,,,,,,,,,,,,,1330.2867,1331.2858,1331.2858,7,1331.7857,1333.3027,0.0017,1333.419,0.116,0.1167,0.1166,0.1166,0.1167,0.1162,0.117,0.1163,0.117,0.117,0.1163,1333.4191,1335.0192,right,1.5831,,1335.0193,1335.4191,left,0.3839,,22,0,58,1335.4193,1336.4189,,,,,,1_AB,L5_T1P_T2A,5,1,0,4,9,3,5,14,Frisbee,Did you see the Frisbee,0.12,0,resources/,pics/giraffe.jpg,pics/christmaslights.jpg,pics/bowtie.jpg,pics/frisbee.jpg,pics/banjo.jpg,pics/calendar.jpg,pics/butterfly.jpg,pics/onion.jpg,pics/starfish01.jpg,pics/footballhelmet.jpg,pics/blender.jpg,pics/candleholder01.jpg,pics/hairdryer02a.jpg,pics/dromedary.jpg,blankImage,blankImage,blankImage,frisbee,58,0.1169,0.1165,,,,,,,,,,,,,,,,,,,,,,,,,,,,,,,,,,,,,,,0,28,28,57,1,,,,,,,,,,,,,,,,,,,,,,,,,,,,,,,,,,,,,,,,,,,,,,,,,,,,,,,
,,,,,65dcb1277d4c8c0b58de2db7,6682b41eeb79ab8215dff63d,6682b9f65ff67f9577442b56,59,Male,English,2024-07-01_15h16.15.394,ABmemTask3,2023.2.3,Win32,60.97560976,,,,,,,,,,,,,,,,,,,,,,,,,,,,,,,1336.4195,1337.4187,1337.4188,7,1337.9187,1339.0857,0.0014,1339.2021,0.1162,0.1167,0.1161,0.1172,0.1168,0.1166,0.1159,0.1173,0.1165,0.1168,,1339.2022,1340.852,left,1.6331,,1340.8521,1341.3688,right,0.5009,,24,0,60,1341.3688,1342.3684,,,,,,1_AB,L1_T1A_T2P,1,0,1,7,8,6,3,11,turkey,Did you see the turkey,0.12,0,resources/,pics/proboscismonkey.jpg,pics/blender.jpg,pics/sealion.jpg,pics/snowshoe.jpg,pics/carrot01.jpg,pics/microscope.jpg,pics/piggybank.jpg,pics/stapler12.jpg,pics/peanut01.jpg,pics/dustpan.jpg,pics/footballhelmet.jpg,blankImage,blankImage,blankImage,blankImage,blankImage,blankImage,turkey,26,,,,,,,,,,,,,,,,,,,,,,,,,,,,,,,,,,,,,,,,,0,29,29,25,1,,,,,,,,,,,,,,,,,,,,,,,,,,,,,,,,,,,,,,,,,,,,,,,,,,,,,,,
,,,,,65dcb1277d4c8c0b58de2db7,6682b41eeb79ab8215dff63d,6682b9f65ff67f9577442b56,59,Male,English,2024-07-01_15h16.15.394,ABmemTask3,2023.2.3,Win32,60.97560976,,,,,,,,,,,,,,,,,,,,,,,,,,,,,,,1342.3693,1343.3685,1343.3685,7,1343.8684,1344.6854,0.0017,1344.8015,0.1153,0.1173,0.1165,0.1158,0.1177,0.1167,0.1165,,,,,1344.8016,1346.0186,left,1.1989,,1346.0187,1346.5016,right,0.467,,26,0,62,1346.5018,1347.5009,,,,,,1_AB,L1_T1A_T2P,1,0,1,4,5,3,3,8,Parking meter,Did you see the Parking meter,0.12,0,resources/,pics/leaf02a.jpg,pics/carrot01.jpg,pics/sink.jpg,pics/butterfly.jpg,pics/stapler10.jpg,pics/pictureframe04.jpg,pics/spiderweb.jpg,pics/icecube01.jpg,blankImage,blankImage,blankImage,blankImage,blankImage,blankImage,blankImage,blankImage,blankImage,parkingmeter,30,,,,,,,,,,,,,,,,,,,,,,,,,,,,,,,,,,,,,,,,,0,30,30,29,1,,,,,,,,,,,,,,,,,,,,,,,,,,,,,,,,,,,,,,,,,,,,,,,,,,,,,,,
,,,,,65dcb1277d4c8c0b58de2db7,6682b41eeb79ab8215dff63d,6682b9f65ff67f9577442b56,59,Male,English,2024-07-01_15h16.15.394,ABmemTask3,2023.2.3,Win32,60.97560976,,,,,,,,,,,,,,,,,,,,,,,,,,,,,,,1347.5015,1348.5014,1348.5014,7,1349.0008,1350.1684,0.0016,1350.2848,0.1168,0.1163,0.1169,0.1168,0.1166,0.1166,0.1169,0.1166,0.1165,0.1167,,1350.285,1351.8348,left,1.5337,,1351.8349,1352.3848,right,0.534,,22,0,64,1352.3849,1353.3845,,,,,,1_AB,L1_T1P_T2A,1,1,0,6,7,5,4,11,lamp,Did you see the lamp,0.12,0,resources/,pics/chainsaw.jpg,pics/fanblades.jpg,pics/salmon.jpg,pics/proboscismonkey.jpg,pics/boot02b.jpg,pics/lamp04a.jpg,pics/blender.jpg,pics/sink.jpg,pics/pencil01.jpg,pics/floortile02.jpg,pics/shovel01.jpg,blankImage,blankImage,blankImage,blankImage,blankImage,blankImage,lamp04a,37,,,,,,,,,,,,,,,,,,,,,,,,,,,,,,,,,,,,,,,,,0,31,31,36,1,,,,,,,,,,,,,,,,,,,,,,,,,,,,,,,,,,,,,,,,,,,,,,,,,,,,,,,
,,,,,65dcb1277d4c8c0b58de2db7,6682b41eeb79ab8215dff63d,6682b9f65ff67f9577442b56,59,Male,English,2024-07-01_15h16.15.394,ABmemTask3,2023.2.3,Win32,60.97560976,,,,,,,,,,,,,,,,,,,,,,,,,,,,,,,1353.3995,1354.4011,1354.4012,7,1354.9011,1356.4182,0.0015,1356.5343,0.1162,0.1166,0.1162,0.117,0.1161,0.1173,0.1167,0.1166,0.1168,0.1165,0.1166,1356.5344,1357.4343,right,0.8835,,1357.4344,1357.9343,right,0.4841,,24,0,66,1357.9344,1358.9341,,,,,,1_AB,L5_T1P_T2P,5,1,1,5,10,4,4,14,Fox,Did you see the Fox,0.12,0,resources/,pics/hammerheadshark.jpg,pics/bowlingpin.jpg,pics/pictureframe04.jpg,pics/peanut01.jpg,pics/redfox.jpg,pics/cymbal.jpg,pics/spoon01.jpg,pics/banjo.jpg,pics/butterfly.jpg,pics/stapler11.jpg,pics/football.jpg,pics/safetypin.jpg,pics/triangle.jpg,pics/onion.jpg,blankImage,blankImage,blankImage,redfox,45,0.1167,0.1167,,,,,,,,,,,,,,,,,,,,,,,,,,,,,,,,,,,,,,,0,32,32,44,1,,,,,,,,,,,,,,,,,,,,,,,,,,,,,,,,,,,,,,,,,,,,,,,,,,,,,,,
,,,,,65dcb1277d4c8c0b58de2db7,6682b41eeb79ab8215dff63d,6682b9f65ff67f9577442b56,59,Male,English,2024-07-01_15h16.15.394,ABmemTask3,2023.2.3,Win32,60.97560976,,,,,,,,,,,,,,,,,,,,,,,,,,,,,,,1358.949,1359.9509,1359.9509,7,1360.4508,1361.6177,0.0016,1361.7338,0.1161,0.1166,0.1166,0.1168,0.1164,0.1168,0.116,0.1172,0.1163,0.117,,1361.7339,1362.9167,left,1.1701,,1362.9168,1363.3508,left,0.418,,26,0,68,1363.3509,1364.3505,,,,,,1_AB,L1_T1A_T2A,1,0,0,7,8,6,3,11,Poker chips,Did you see the Poker chips,0.12,0,resources/,pics/candle01.jpg,pics/proboscismonkey.jpg,pics/fanblades.jpg,pics/dromedary.jpg,pics/aquarium.jpg,pics/salmon.jpg,pics/hose.jpg,pics/kangaroo.jpg,pics/noparkingsign.jpg,pics/carrot01.jpg,pics/leaf02a.jpg,blankImage,blankImage,blankImage,blankImage,blankImage,blankImage,pokerchips,41,,,,,,,,,,,,,,,,,,,,,,,,,,,,,,,,,,,,,,,,,0,33,33,40,1,,,,,,,,,,,,,,,,,,,,,,,,,,,,,,,,,,,,,,,,,,,,,,,,,,,,,,,
,,,,,65dcb1277d4c8c0b58de2db7,6682b41eeb79ab8215dff63d,6682b9f65ff67f9577442b56,59,Male,English,2024-07-01_15h16.15.394,ABmemTask3,2023.2.3,Win32,60.97560976,,,,,,,,,,,,,,,,,,,,,,,,,,,,,,,1364.3512,1365.3503,1365.3503,7,1365.8504,1367.7174,0.0018,1367.8337,0.1161,0.1164,0.1165,0.117,0.1165,0.1164,0.117,0.1166,0.1166,0.1167,0.1166,1367.8338,1369.3504,left,1.5018,,1369.3505,1369.6171,left,0.2507,,28,0,70,1369.6172,1370.6168,,,,,,1_AB,L5_T1A_T2A,5,0,0,7,12,6,5,17,Bib,Did you see the Bib,0.12,0,resources/,pics/hammerheadshark.jpg,pics/wheel01.jpg,pics/binder03b.jpg,pics/hairdryer02a.jpg,pics/christmaslights.jpg,pics/sandbarshark.jpg,pics/binoculars01b.jpg,pics/piggybank.jpg,pics/aquarium.jpg,pics/candleholder01.jpg,pics/sink.jpg,pics/calendar.jpg,pics/birdhouse.jpg,pics/bowtie.jpg,pics/onion.jpg,pics/golfball.jpg,pics/sailboat.jpg,bib,62,0.1166,0.1168,0.1165,,,,,,,,,,,,,,,,,,,,,,,,,,,,,,,,,,,,,,0,34,34,61,1,0.1168,0.1164,,,,,,,,,,,,,,,,,,,,,,,,,,,,,,,,,,,,,,,,,,,,,,,,,,,,,
,,,,,65dcb1277d4c8c0b58de2db7,6682b41eeb79ab8215dff63d,6682b9f65ff67f9577442b56,59,Male,English,2024-07-01_15h16.15.394,ABmemTask3,2023.2.3,Win32,60.97560976,,,,,,,,,,,,,,,,,,,,,,,,,,,,,,,1370.6317,1371.6335,1371.6336,7,1372.1335,1373.5338,0.0016,1373.6499,0.1159,0.1169,0.1167,0.1165,0.1166,0.1164,0.1169,0.1166,0.1167,0.1166,0.1168,1373.65,1374.8169,right,1.1503,,1374.817,1375.0501,right,0.2171,,30,0,72,1375.0503,1376.0499,,,,,,1_AB,L1_T1P_T2P,1,1,1,7,8,6,5,13,strawberry,Did you see the strawberry,0.12,0,resources/,pics/sealion.jpg,pics/backpack01a.jpg,pics/binoculars01b.jpg,pics/ball02.jpg,pics/proboscismonkey.jpg,pics/pictureframe04.jpg,pics/strawberry.jpg,pics/stapler12.jpg,pics/seaturtle.jpg,pics/dustpan.jpg,pics/bowlingpin.jpg,pics/hammerheadshark.jpg,pics/hen.jpg,blankImage,blankImage,blankImage,blankImage,strawberry,10,0.1166,,,,,,,,,,,,,,,,,,,,,,,,,,,,,,,,,,,,,,,,0,35,35,9,1,,,,,,,,,,,,,,,,,,,,,,,,,,,,,,,,,,,,,,,,,,,,,,,,,,,,,,,
,,,,,65dcb1277d4c8c0b58de2db7,6682b41eeb79ab8215dff63d,6682b9f65ff67f9577442b56,59,Male,English,2024-07-01_15h16.15.394,ABmemTask3,2023.2.3,Win32,60.97560976,,,,,,,,,,,,,,,,,,,,,,,,,,,,,,,1376.0506,1377.0498,1377.0498,7,1377.5497,1378.4836,0.0018,1378.5996,0.1159,0.1159,0.1174,0.1166,0.1169,0.1163,0.1169,0.1167,,,,1378.5998,1380.0834,left,1.467,,1380.0834,1380.5165,right,0.4174,,30,0,74,1380.5166,1381.5159,,,,,,1_AB,L1_T1P_T2P,1,1,1,4,5,3,4,9,antenna,Did you see the antenna,0.12,0,resources/,pics/microscope.jpg,pics/spoon01.jpg,pics/dromedary.jpg,pics/antenna.jpg,pics/stapler03.jpg,pics/hen.jpg,pics/leaf02a.jpg,pics/candle01.jpg,pics/sealion.jpg,blankImage,blankImage,blankImage,blankImage,blankImage,blankImage,blankImage,blankImage,antenna,9,,,,,,,,,,,,,,,,,,,,,,,,,,,,,,,,,,,,,,,,,0,36,36,8,1,,,,,,,,,,,,,,,,,,,,,,,,,,,,,,,,,,,,,,,,,,,,,,,,,,,,,,,
,,,,,65dcb1277d4c8c0b58de2db7,6682b41eeb79ab8215dff63d,6682b9f65ff67f9577442b56,59,Male,English,2024-07-01_15h16.15.394,ABmemTask3,2023.2.3,Win32,60.97560976,,,,,,,,,,,,,,,,,,,,,,,,,,,,,,,1381.5309,1382.5323,1382.5324,7,1383.0324,1384.6664,0.0015,1384.7824,0.1163,0.1171,0.1167,0.1166,0.1165,0.1165,0.1168,0.1164,0.1168,0.1167,0.1166,1384.7824,1385.6661,right,0.868,,1385.6662,1385.8995,right,0.2172,,32,0,76,1385.8996,1386.8993,,,,,,1_AB,L5_T1P_T2P,5,1,1,5,10,4,5,15,ribbon,Did you see the ribbon,0.12,0,resources/,pics/giraffe.jpg,pics/boot02b.jpg,pics/cymbal.jpg,pics/leaf02a.jpg,pics/ribbon04.jpg,pics/lightswitch01.jpg,pics/necklace.jpg,pics/calendar.jpg,pics/kangaroo.jpg,pics/stapler12.jpg,pics/hose.jpg,pics/carrot01.jpg,pics/match.jpg,pics/sink.jpg,pics/candleholder01.jpg,blankImage,blankImage,ribbon04,53,0.1165,0.1166,0.1165,,,,,,,,,,,,,,,,,,,,,,,,,,,,,,,,,,,,,,0,37,37,52,1,,,,,,,,,,,,,,,,,,,,,,,,,,,,,,,,,,,,,,,,,,,,,,,,,,,,,,,
,,,,,65dcb1277d4c8c0b58de2db7,6682b41eeb79ab8215dff63d,6682b9f65ff67f9577442b56,59,Male,English,2024-07-01_15h16.15.394,ABmemTask3,2023.2.3,Win32,60.97560976,,,,,,,,,,,,,,,,,,,,,,,,,,,,,,,1386.8999,1387.899,1387.8991,7,1388.3991,1390.0327,0.0015,1390.149,0.1161,0.1168,0.1166,0.1168,0.1163,0.1168,0.1163,0.1167,0.1167,0.1167,0.1166,1390.1491,1391.1159,right,0.9506,,1391.116,1391.2986,right,0.1716,,34,0,78,1391.2986,1392.2983,,,,,,1_AB,L5_T1P_T2P,5,1,1,5,10,4,5,15,dolphin,Did you see the dolphin,0.12,0,resources/,pics/banjo.jpg,pics/shipinabottle.jpg,pics/laptop01a.jpg,pics/onion.jpg,pics/dolphin01.jpg,pics/sink.jpg,pics/seaturtle.jpg,pics/butterfly.jpg,pics/hen.jpg,pics/stapler10.jpg,pics/proboscismonkey.jpg,pics/starfish01.jpg,pics/salmon.jpg,pics/spiderweb.jpg,pics/cymbal.jpg,blankImage,blankImage,dolphin01,49,0.1161,0.1174,0.1164,,,,,,,,,,,,,,,,,,,,,,,,,,,,,,,,,,,,,,0,38,38,48,1,,,,,,,,,,,,,,,,,,,,,,,,,,,,,,,,,,,,,,,,,,,,,,,,,,,,,,,
,,,,,65dcb1277d4c8c0b58de2db7,6682b41eeb79ab8215dff63d,6682b9f65ff67f9577442b56,59,Male,English,2024-07-01_15h16.15.394,ABmemTask3,2023.2.3,Win32,60.97560976,,,,,,,,,,,,,,,,,,,,,,,,,,,,,,,1392.2992,1393.298,1393.2981,7,1393.7982,1395.0825,0.0017,1395.1987,0.1165,0.1168,0.1166,0.1169,0.1164,0.1168,0.1164,0.1168,0.1166,0.1165,0.1167,1395.1987,1396.1154,right,0.8994,,1396.1156,1396.2984,right,0.1672,,36,0,80,1396.2985,1397.2981,,,,,,1_AB,L1_T1P_T2P,1,1,1,6,7,5,5,12,jeep,Did you see the jeep,0.12,0,resources/,pics/sandbarshark.jpg,pics/laptop01a.jpg,pics/peach01.jpg,pics/binoculars01b.jpg,pics/giraffe.jpg,pics/jeep.jpg,pics/stapler03b.jpg,pics/fanblades.jpg,pics/cannon.jpg,pics/starfish01.jpg,pics/piggybank.jpg,pics/noparkingsign.jpg,blankImage,blankImage,blankImage,blankImage,blankImage,jeep,2,,,,,,,,,,,,,,,,,,,,,,,,,,,,,,,,,,,,,,,,,0,39,39,1,1,,,,,,,,,,,,,,,,,,,,,,,,,,,,,,,,,,,,,,,,,,,,,,,,,,,,,,,
,,,,,65dcb1277d4c8c0b58de2db7,6682b41eeb79ab8215dff63d,6682b9f65ff67f9577442b56,59,Male,English,2024-07-01_15h16.15.394,ABmemTask3,2023.2.3,Win32,60.97560976,,,,,,,,,,,,,,,,,,,,,,,,,,,,,,,1397.2988,1398.298,1398.298,7,1398.7981,1399.7323,0.0019,1399.8484,0.1161,0.1165,0.1166,0.1171,0.1164,0.1166,0.1169,0.1166,,,,1399.8485,1402.0153,right,2.15,,1402.0153,1402.4321,left,0.4059,,38,0,82,1402.4322,1403.4316,,,,,,1_AB,L1_T1P_T2A,1,1,0,4,5,3,4,9,blueberry,Did you see the blueberry,0.12,0,resources/,pics/sealion.jpg,pics/piggybank.jpg,pics/sink.jpg,pics/blueberry01.jpg,pics/onion.jpg,pics/sailboat.jpg,pics/seaturtle.jpg,pics/hen.jpg,pics/fanblades.jpg,blankImage,blankImage,blankImage,blankImage,blankImage,blankImage,blankImage,blankImage,blueberry01,35,,,,,,,,,,,,,,,,,,,,,,,,,,,,,,,,,,,,,,,,,0,40,40,34,1,,,,,,,,,,,,,,,,,,,,,,,,,,,,,,,,,,,,,,,,,,,,,,,,,,,,,,,
,,,,,65dcb1277d4c8c0b58de2db7,6682b41eeb79ab8215dff63d,6682b9f65ff67f9577442b56,59,Male,English,2024-07-01_15h16.15.394,ABmemTask3,2023.2.3,Win32,60.97560976,,,,,,,,,,,,,,,,,,,,,,,,,,,,,,,1403.4466,1404.4481,1404.4482,7,1404.9481,1405.9985,0.0016,1406.1147,0.1154,0.1176,0.1163,0.1168,0.1167,0.1154,0.1166,0.1182,0.1162,,,1406.1148,1407.1149,right,0.9842,,1407.1151,1407.2981,right,0.1698,,40,0,84,1407.2982,1408.2978,,,,,,1_AB,L1_T1P_T2P,1,1,1,4,5,3,5,10,flute,Did you see the flute,0.12,0,resources/,pics/peach01.jpg,pics/seaturtle.jpg,pics/dromedary.jpg,pics/recorder01.jpg,pics/stapler08.jpg,pics/giraffe.jpg,pics/blender.jpg,pics/necklace.jpg,pics/sink.jpg,pics/dustpan.jpg,blankImage,blankImage,blankImage,blankImage,blankImage,blankImage,blankImage,recorder01,7,,,,,,,,,,,,,,,,,,,,,,,,,,,,,,,,,,,,,,,,,0,41,41,6,1,,,,,,,,,,,,,,,,,,,,,,,,,,,,,,,,,,,,,,,,,,,,,,,,,,,,,,,
,,,,,65dcb1277d4c8c0b58de2db7,6682b41eeb79ab8215dff63d,6682b9f65ff67f9577442b56,59,Male,English,2024-07-01_15h16.15.394,ABmemTask3,2023.2.3,Win32,60.97560976,,,,,,,,,,,,,,,,,,,,,,,,,,,,,,,1408.2985,1409.2979,1409.2979,7,1409.7978,1411.5479,0.0015,1411.6644,0.1161,0.1168,0.1166,0.1168,0.1166,0.1166,0.1164,0.1169,0.1166,0.1169,0.1165,1411.6645,1412.6146,right,0.9331,,1412.6148,1412.7976,right,0.1678,,42,0,86,1412.7977,1413.797,,,,,,1_AB,L5_T1P_T2P,5,1,1,6,11,5,5,16,cruise ship,Did you see the cruise ship,0.12,0,resources/,pics/seaturtle.jpg,pics/ashtray01.jpg,pics/pencil01.jpg,pics/fanblades.jpg,pics/triangle.jpg,pics/cruiseship.jpg,pics/wheel01.jpg,pics/dustpan.jpg,pics/starfish01.jpg,pics/banjo.jpg,pics/stapler12.jpg,pics/match.jpg,pics/cannon.jpg,pics/sandbarshark.jpg,pics/sink.jpg,pics/zebra.jpg,blankImage,cruiseship,51,0.1165,0.116,0.1173,,,,,,,,,,,,,,,,,,,,,,,,,,,,,,,,,,,,,,0,42,42,50,1,0.1163,,,,,,,,,,,,,,,,,,,,,,,,,,,,,,,,,,,,,,,,,,,,,,,,,,,,,,
,,,,,65dcb1277d4c8c0b58de2db7,6682b41eeb79ab8215dff63d,6682b9f65ff67f9577442b56,59,Male,English,2024-07-01_15h16.15.394,ABmemTask3,2023.2.3,Win32,60.97560976,,,,,,,,,,,,,,,,,,,,,,,,,,,,,,,1413.7976,1414.7976,1414.7977,7,1415.2974,1416.4646,0.0018,1416.5801,0.1159,0.1162,0.1173,0.1169,0.1164,0.1165,0.117,0.1164,0.1167,0.1166,,1416.5802,1417.8644,right,1.2677,,1417.8644,1418.2142,left,0.334,,42,0,88,1418.2143,1419.214,,,,,,1_AB,L1_T1P_T2P,1,1,1,7,8,6,3,11,pliers,Did you see the pliers,0.12,0,resources/,pics/mummy.jpg,pics/binder03b.jpg,pics/bowtie.jpg,pics/toiletpaper01a.jpg,pics/football.jpg,pics/blender.jpg,pics/needlenosepliers01.jpg,pics/stapler13.jpg,pics/zebra.jpg,pics/hammerheadshark.jpg,pics/sealion.jpg,blankImage,blankImage,blankImage,blankImage,blankImage,blankImage,needlenosepliers01,6,,,,,,,,,,,,,,,,,,,,,,,,,,,,,,,,,,,,,,,,,0,43,43,5,1,,,,,,,,,,,,,,,,,,,,,,,,,,,,,,,,,,,,,,,,,,,,,,,,,,,,,,,
,,,,,65dcb1277d4c8c0b58de2db7,6682b41eeb79ab8215dff63d,6682b9f65ff67f9577442b56,59,Male,English,2024-07-01_15h16.15.394,ABmemTask3,2023.2.3,Win32,60.97560976,,,,,,,,,,,,,,,,,,,,,,,,,,,,,,,1419.2289,1420.2306,1420.2307,7,1420.7306,1421.5476,0.0015,1421.6638,0.116,0.1168,0.1158,0.1176,0.1163,0.1169,0.1166,,,,,1421.664,1422.8136,right,1.1365,,1422.8137,1423.1305,right,0.301,,44,0,90,1423.1307,1424.1304,,,,,,1_AB,L1_T1P_T2P,1,1,1,4,5,3,3,8,Recycling bin,Did you see the Recycling bin,0.12,0,resources/,pics/microscope.jpg,pics/dustpan.jpg,pics/seagull.jpg,pics/recyclingbin.jpg,pics/stapler06.jpg,pics/bowtie.jpg,pics/dromedary.jpg,pics/salmon.jpg,blankImage,blankImage,blankImage,blankImage,blankImage,blankImage,blankImage,blankImage,blankImage,recyclingbin,16,,,,,,,,,,,,,,,,,,,,,,,,,,,,,,,,,,,,,,,,,0,44,44,15,1,,,,,,,,,,,,,,,,,,,,,,,,,,,,,,,,,,,,,,,,,,,,,,,,,,,,,,,
,,,,,65dcb1277d4c8c0b58de2db7,6682b41eeb79ab8215dff63d,6682b9f65ff67f9577442b56,59,Male,English,2024-07-01_15h16.15.394,ABmemTask3,2023.2.3,Win32,60.97560976,,,,,,,,,,,,,,,,,,,,,,,,,,,,,,,1424.1312,1425.1303,1425.1304,7,1425.6303,1426.7973,0.0017,1426.9135,0.1158,0.1169,0.1166,0.1166,0.1168,0.1159,0.1172,0.1164,0.1168,0.1168,,1426.9136,1428.1138,right,1.1823,,1428.1139,1428.3298,right,0.2033,,46,0,92,1428.3299,1429.3296,,,,,,1_AB,L1_T1P_T2P,1,1,1,7,8,6,3,11,Eiffel tower,Did you see the Eiffel tower,0.12,0,resources/,pics/seagull.jpg,pics/cymbal.jpg,pics/match.jpg,pics/binoculars01b.jpg,pics/ball02.jpg,pics/onion.jpg,pics/eiffeltower.jpg,pics/stapler11.jpg,pics/peach01.jpg,pics/sandbarshark.jpg,pics/boot02b.jpg,blankImage,blankImage,blankImage,blankImage,blankImage,blankImage,eiffeltower,1,,,,,,,,,,,,,,,,,,,,,,,,,,,,,,,,,,,,,,,,,0,45,45,0,1,,,,,,,,,,,,,,,,,,,,,,,,,,,,,,,,,,,,,,,,,,,,,,,,,,,,,,,
,,,,,65dcb1277d4c8c0b58de2db7,6682b41eeb79ab8215dff63d,6682b9f65ff67f9577442b56,59,Male,English,2024-07-01_15h16.15.394,ABmemTask3,2023.2.3,Win32,60.97560976,,,,,,,,,,,,,,,,,,,,,,,,,,,,,,,1429.3303,1430.3296,1430.3296,7,1430.8296,1432.2303,0.0015,1432.3461,0.1163,0.1167,0.1169,0.1167,0.1165,0.1166,0.1168,0.1165,0.1165,0.1168,0.1167,1432.3463,1433.6799,left,1.318,,1433.6801,1434.096,right,0.4004,,46,0,94,1434.0961,1435.0957,,,,,,1_AB,L1_T1P_T2P,1,1,1,7,8,6,5,13,Totem Pole,Did you see the Totem Pole,0.12,0,resources/,pics/laptop01a.jpg,pics/carrot01.jpg,pics/wheel01.jpg,pics/icecube01.jpg,pics/ashtray01.jpg,pics/lock03a.jpg,pics/totempole.jpg,pics/stapler08.jpg,pics/golfball.jpg,pics/pencil01.jpg,pics/banjo.jpg,pics/sandbarshark.jpg,pics/shipinabottle.jpg,blankImage,blankImage,blankImage,blankImage,totempole,22,0.1167,,,,,,,,,,,,,,,,,,,,,,,,,,,,,,,,,,,,,,,,0,46,46,21,1,,,,,,,,,,,,,,,,,,,,,,,,,,,,,,,,,,,,,,,,,,,,,,,,,,,,,,,
,,,,,65dcb1277d4c8c0b58de2db7,6682b41eeb79ab8215dff63d,6682b9f65ff67f9577442b56,59,Male,English,2024-07-01_15h16.15.394,ABmemTask3,2023.2.3,Win32,60.97560976,,,,,,,,,,,,,,,,,,,,,,,,,,,,,,,1435.1107,1436.113,1436.1131,7,1436.613,1437.7798,0.0015,1437.8962,0.1162,0.1161,0.1171,0.1165,0.1167,0.1168,0.1164,0.1165,0.1167,0.1167,,1437.8963,1439.1797,right,1.2675,,1439.1798,1439.9797,right,0.7848,,44,0,96,1439.9797,1440.9794,,,,,,1_AB,L1_T1P_T2A,1,1,0,7,8,6,3,11,Spear,Did you see the Spear,0.12,0,resources/,pics/butterfly.jpg,pics/banjo.jpg,pics/chainsaw.jpg,pics/christmaslights.jpg,pics/dustpan.jpg,pics/shovel01.jpg,pics/spear02.jpg,pics/table01.jpg,pics/starfish01.jpg,pics/bowlingpin.jpg,pics/carrot01.jpg,blankImage,blankImage,blankImage,blankImage,blankImage,blankImage,spear02,39,,,,,,,,,,,,,,,,,,,,,,,,,,,,,,,,,,,,,,,,,0,47,47,38,1,,,,,,,,,,,,,,,,,,,,,,,,,,,,,,,,,,,,,,,,,,,,,,,,,,,,,,,
,,,,,65dcb1277d4c8c0b58de2db7,6682b41eeb79ab8215dff63d,6682b9f65ff67f9577442b56,59,Male,English,2024-07-01_15h16.15.394,ABmemTask3,2023.2.3,Win32,60.97560976,,,,,,,,,,,,,,,,,,,,,,,,,,,,,,,1440.9945,1441.996,1441.9961,7,1442.496,1443.5463,0.0015,1443.6623,0.1161,0.1165,0.1163,0.1162,0.1172,0.1169,0.117,0.1164,0.1168,,,1443.6624,1445.1789,left,1.5003,,1445.179,1445.5792,right,0.3853,,46,0,98,1445.5793,1446.5788,,,,,,1_AB,L1_T1A_T2P,1,0,1,5,6,4,4,10,button,Did you see the button,0.12,0,resources/,pics/pencil01.jpg,pics/necklace.jpg,pics/sink.jpg,pics/noparkingsign.jpg,pics/banjo.jpg,pics/stapler03b.jpg,pics/candle01.jpg,pics/icecube01.jpg,pics/shovel01.jpg,pics/pencilsharpener02a.jpg,blankImage,blankImage,blankImage,blankImage,blankImage,blankImage,blankImage,button01,25,,,,,,,,,,,,,,,,,,,,,,,,,,,,,,,,,,,,,,,,,0,48,48,24,1,,,,,,,,,,,,,,,,,,,,,,,,,,,,,,,,,,,,,,,,,,,,,,,,,,,,,,,
,,,,,65dcb1277d4c8c0b58de2db7,6682b41eeb79ab8215dff63d,6682b9f65ff67f9577442b56,59,Male,English,2024-07-01_15h16.15.394,ABmemTask3,2023.2.3,Win32,60.97560976,,,,,,,,,,,,,,,,,,,,,,,,,,,,,,,1446.5795,1447.5788,1447.5789,7,1448.0788,1449.363,0.0016,1449.4789,0.1162,0.1174,0.116,0.1166,0.1166,0.1167,0.1167,0.1165,0.1166,0.1168,0.1168,1449.4789,1450.629,right,1.1327,,1450.6293,1450.9117,left,0.2711,,48,0,100,1450.9118,1451.9121,,,,,,1_AB,L1_T1P_T2A,1,1,0,7,8,6,4,12,Tennis racket,Did you see the Tennis racket,0.12,0,resources/,pics/banjo.jpg,pics/leaf02a.jpg,pics/shovel01.jpg,pics/microscope.jpg,pics/cork02.jpg,pics/seagull.jpg,pics/tennisracket.jpg,pics/binder03b.jpg,pics/floortile02.jpg,pics/carrot01.jpg,pics/candle01.jpg,pics/siamesecat.jpg,blankImage,blankImage,blankImage,blankImage,blankImage,tennisracket,38,,,,,,,,,,,,,,,,,,,,,,,,,,,,,,,,,,,,,,,,,0,49,49,37,1,,,,,,,,,,,,,,,,,,,,,,,,,,,,,,,,,,,,,,,,,,,,,,,,,,,,,,,
,,,,,65dcb1277d4c8c0b58de2db7,6682b41eeb79ab8215dff63d,6682b9f65ff67f9577442b56,59,Male,English,2024-07-01_15h16.15.394,ABmemTask3,2023.2.3,Win32,60.97560976,,,,,,,,,,,,,,,,,,,,,,,,,,,,,,,1451.9129,1452.9122,1452.9122,7,1453.4119,1454.5792,0.0017,1454.6953,0.1159,0.1169,0.1166,0.1167,0.1164,0.1162,0.1174,0.1164,0.1167,0.1169,,1454.6953,1455.6286,right,0.9167,,1455.6288,1455.8287,right,0.1839,,50,0,102,1455.8288,1456.8285,,,,,,1_AB,L1_T1P_T2P,1,1,1,7,8,6,3,11,bird,Did you see the bird,0.12,0,resources/,pics/sealion.jpg,pics/backpack01a.jpg,pics/hose.jpg,pics/table01.jpg,pics/wheel01.jpg,pics/seaturtle.jpg,pics/americangoldfinch.jpg,pics/stapler08.jpg,pics/siamesecat.jpg,pics/hammerheadshark.jpg,pics/ashtray01.jpg,blankImage,blankImage,blankImage,blankImage,blankImage,blankImage,americangoldfinch,23,,,,,,,,,,,,,,,,,,,,,,,,,,,,,,,,,,,,,,,,,0,50,50,22,1,,,,,,,,,,,,,,,,,,,,,,,,,,,,,,,,,,,,,,,,,,,,,,,,,,,,,,,
,,,,,65dcb1277d4c8c0b58de2db7,6682b41eeb79ab8215dff63d,6682b9f65ff67f9577442b56,59,Male,English,2024-07-01_15h16.15.394,ABmemTask3,2023.2.3,Win32,60.97560976,,,,,,,,,,,,,,,,,,,,,,,,,,,,,,,1456.8442,1457.8448,1457.8449,7,1458.3447,1459.512,0.0018,1459.6283,0.1161,0.1168,0.1165,0.1167,0.1164,0.117,0.1165,0.1167,0.1167,0.1164,,1459.6284,1460.7619,right,1.1163,,1460.762,1460.9617,right,0.184,,52,0,104,1460.9618,1461.9616,,,,,,1_AB,L1_T1P_T2P,1,1,1,7,8,6,3,11,medal,Did you see the medal,0.12,0,resources/,pics/hen.jpg,pics/starfish01.jpg,pics/nutcracker01.jpg,pics/ball02.jpg,pics/fanblades.jpg,pics/christmaslights.jpg,pics/medal02b.jpg,pics/stapler09.jpg,pics/carrot01.jpg,pics/hammerheadshark.jpg,pics/sailboat.jpg,blankImage,blankImage,blankImage,blankImage,blankImage,blankImage,medal02b,19,,,,,,,,,,,,,,,,,,,,,,,,,,,,,,,,,,,,,,,,,0,51,51,18,1,,,,,,,,,,,,,,,,,,,,,,,,,,,,,,,,,,,,,,,,,,,,,,,,,,,,,,,
,,,,,65dcb1277d4c8c0b58de2db7,6682b41eeb79ab8215dff63d,6682b9f65ff67f9577442b56,59,Male,English,2024-07-01_15h16.15.394,ABmemTask3,2023.2.3,Win32,60.97560976,,,,,,,,,,,,,,,,,,,,,,,,,,,,,,,1461.9623,1462.9614,1462.9615,7,1463.4615,1464.8615,0.0016,1464.9779,0.1157,0.1166,0.117,0.1165,0.1166,0.1166,0.1168,0.1167,0.1167,0.116,0.1172,1464.978,1465.9282,right,0.9336,,1465.9283,1466.1275,right,0.1841,,50,0,106,1466.1278,1467.1273,,,,,,1_AB,L1_T1A_T2P,1,0,1,7,8,6,5,13,Basketball,Did you see the Basketball,0.12,0,resources/,pics/cork02.jpg,pics/table01.jpg,pics/christmaslights.jpg,pics/nutcracker01.jpg,pics/golfball.jpg,pics/hammerheadshark.jpg,pics/seaturtle.jpg,pics/stapler04b.jpg,pics/lock03a.jpg,pics/snowshoe.jpg,pics/sewingmachine01a.jpg,pics/peach01.jpg,pics/hose.jpg,blankImage,blankImage,blankImage,blankImage,basketball01,24,0.1166,,,,,,,,,,,,,,,,,,,,,,,,,,,,,,,,,,,,,,,,0,52,52,23,1,,,,,,,,,,,,,,,,,,,,,,,,,,,,,,,,,,,,,,,,,,,,,,,,,,,,,,,
,,,,,65dcb1277d4c8c0b58de2db7,6682b41eeb79ab8215dff63d,6682b9f65ff67f9577442b56,59,Male,English,2024-07-01_15h16.15.394,ABmemTask3,2023.2.3,Win32,60.97560976,,,,,,,,,,,,,,,,,,,,,,,,,,,,,,,1467.1279,1468.1273,1468.1273,7,1468.6272,1469.678,0.0019,1469.7943,0.1164,0.1167,0.1168,0.1164,0.1166,0.1168,0.1166,0.1166,0.1166,,,1469.7944,1471.4112,left,1.6,,1471.4112,1471.761,left,0.3342,,50,0,108,1471.7611,1472.7609,,,,,,1_AB,L1_T1P_T2A,1,1,0,6,7,5,3,10,Electric toothbrush,Did you see the Electric toothbrush,0.12,0,resources/,pics/football.jpg,pics/sailboat.jpg,pics/cymbal.jpg,pics/hen.jpg,pics/pencil01.jpg,pics/electrictoothbrush01c.jpg,pics/bowlingpin.jpg,pics/wheel01.jpg,pics/birdhouse.jpg,pics/leaf02a.jpg,blankImage,blankImage,blankImage,blankImage,blankImage,blankImage,blankImage,electrictoothbrush01c,34,,,,,,,,,,,,,,,,,,,,,,,,,,,,,,,,,,,,,,,,,0,53,53,33,1,,,,,,,,,,,,,,,,,,,,,,,,,,,,,,,,,,,,,,,,,,,,,,,,,,,,,,,
,,,,,65dcb1277d4c8c0b58de2db7,6682b41eeb79ab8215dff63d,6682b9f65ff67f9577442b56,59,Male,English,2024-07-01_15h16.15.394,ABmemTask3,2023.2.3,Win32,60.97560976,,,,,,,,,,,,,,,,,,,,,,,,,,,,,,,1472.7615,1473.7608,1473.7609,7,1474.2607,1475.6611,0.0016,1475.7774,0.1156,0.1173,0.1162,0.1169,0.1168,0.1168,0.1164,0.1164,0.1168,0.1167,0.1166,1475.7774,1476.9108,left,1.1162,,1476.9109,1477.3441,right,0.4176,,52,0,110,1477.3443,1478.3439,,,,,,1_AB,L1_T1A_T2P,1,0,1,7,8,6,5,13,statue,Did you see the statue,0.12,0,resources/,pics/giraffe.jpg,pics/seaturtle.jpg,pics/peach01.jpg,pics/boot02b.jpg,pics/backpack01a.jpg,pics/sandbarshark.jpg,pics/microscope.jpg,pics/stapler07.jpg,pics/snowshoe.jpg,pics/laptop01a.jpg,pics/necklace.jpg,pics/zebra.jpg,pics/carrot01.jpg,blankImage,blankImage,blankImage,blankImage,statue,27,0.1168,,,,,,,,,,,,,,,,,,,,,,,,,,,,,,,,,,,,,,,,0,54,54,26,1,,,,,,,,,,,,,,,,,,,,,,,,,,,,,,,,,,,,,,,,,,,,,,,,,,,,,,,
,,,,,65dcb1277d4c8c0b58de2db7,6682b41eeb79ab8215dff63d,6682b9f65ff67f9577442b56,59,Male,English,2024-07-01_15h16.15.394,ABmemTask3,2023.2.3,Win32,60.97560976,,,,,,,,,,,,,,,,,,,,,,,,,,,,,,,1478.3446,1479.3439,1479.3439,7,1479.8438,1481.3609,0.0016,1481.477,0.1156,0.117,0.1171,0.1163,0.1164,0.1167,0.1165,0.1169,0.1157,0.1173,0.1162,1481.4771,1482.4271,right,0.9336,,1482.4273,1482.877,right,0.4338,0.0003,54,0,112,1482.8772,1483.8767,,,,,,1_AB,L5_T1P_T2P,5,1,1,6,11,5,3,14,truck,Did you see the truck,0.12,0,resources/,pics/calendar.jpg,pics/mummy.jpg,pics/ashtray01.jpg,pics/pencilsharpener02a.jpg,pics/dustpan.jpg,pics/boxtruck.jpg,pics/lightswitch01.jpg,pics/pictureframe04.jpg,pics/starfish01.jpg,pics/zebra.jpg,pics/stapler12.jpg,pics/bowtie.jpg,pics/candleholder01.jpg,pics/candle01.jpg,blankImage,blankImage,blankImage,boxtruck,50,0.117,0.1168,,,,,,,,,,,,,,,,,,,,,,,,,,,,,,,,,,,,,,,0,55,55,49,1,,,,,,,,,,,,,,,,,,,,,,,,,,,,,,,,,,,,,,,,,,,,,,,,,,,,,,,
,,,,,65dcb1277d4c8c0b58de2db7,6682b41eeb79ab8215dff63d,6682b9f65ff67f9577442b56,59,Male,English,2024-07-01_15h16.15.394,ABmemTask3,2023.2.3,Win32,60.97560976,,,,,,,,,,,,,,,,,,,,,,,,,,,,,,,1483.8775,1484.8767,1484.8767,7,1485.3767,1486.6604,0.0017,1486.7767,0.1161,0.1165,0.1167,0.1167,0.1166,0.1167,0.1168,0.1167,0.1164,0.1167,0.1166,1486.7768,1487.6104,right,0.8171,,1487.6105,1487.8101,right,0.184,,56,0,114,1487.8101,1488.8099,,,,,,1_AB,L1_T1P_T2P,1,1,1,6,7,5,5,12,rope,Did you see the rope,0.12,0,resources/,pics/toiletpaper01a.jpg,pics/sewingmachine01a.jpg,pics/birdhouse.jpg,pics/sealion.jpg,pics/safetypin.jpg,pics/rope03.jpg,pics/stapler04.jpg,pics/binder03b.jpg,pics/ashtray01.jpg,pics/sandbarshark.jpg,pics/chainsaw.jpg,pics/nutcracker01.jpg,blankImage,blankImage,blankImage,blankImage,blankImage,rope03,4,,,,,,,,,,,,,,,,,,,,,,,,,,,,,,,,,,,,,,,,,0,56,56,3,1,,,,,,,,,,,,,,,,,,,,,,,,,,,,,,,,,,,,,,,,,,,,,,,,,,,,,,,
,,,,,65dcb1277d4c8c0b58de2db7,6682b41eeb79ab8215dff63d,6682b9f65ff67f9577442b56,59,Male,English,2024-07-01_15h16.15.394,ABmemTask3,2023.2.3,Win32,60.97560976,,,,,,,,,,,,,,,,,,,,,,,,,,,,,,,1488.8105,1489.8099,1489.8099,7,1490.3099,1491.3602,0.0014,1491.4766,0.1162,0.1167,0.1167,0.1165,0.116,0.1174,0.1166,0.1167,0.1168,,,1491.4767,1492.6099,left,1.1172,,1492.61,1492.9923,right,0.3711,,56,0,116,1492.9924,1493.9929,,,,,,1_AB,L1_T1P_T2P,1,1,1,4,5,3,5,10,vacuum,Did you see the vacuum,0.12,0,resources/,pics/birdhouse.jpg,pics/floortile02.jpg,pics/toiletpaper01a.jpg,pics/vacuumcleaner01.jpg,pics/stapler02.jpg,pics/spoon01.jpg,pics/banjo.jpg,pics/binder03b.jpg,pics/leaf02a.jpg,pics/aquarium.jpg,blankImage,blankImage,blankImage,blankImage,blankImage,blankImage,blankImage,vacuumcleaner01,5,,,,,,,,,,,,,,,,,,,,,,,,,,,,,,,,,,,,,,,,,0,57,57,4,1,,,,,,,,,,,,,,,,,,,,,,,,,,,,,,,,,,,,,,,,,,,,,,,,,,,,,,,
,,,,,65dcb1277d4c8c0b58de2db7,6682b41eeb79ab8215dff63d,6682b9f65ff67f9577442b56,59,Male,English,2024-07-01_15h16.15.394,ABmemTask3,2023.2.3,Win32,60.97560976,,,,,,,,,,,,,,,,,,,,,,,,,,,,,,,1493.9937,1494.9925,1494.9926,7,1495.493,1496.8927,0.0015,1497.0094,0.1155,0.1172,0.1167,0.1166,0.1165,0.1165,0.1167,0.1166,0.1167,0.1161,0.1172,1497.0095,1497.7762,right,0.7498,,1497.7763,1498.0094,right,0.2174,,58,0,118,1498.0095,1499.0093,,,,,,1_AB,L5_T1P_T2P,5,1,1,4,9,3,4,13,Forklift,Did you see the Forklift,0.12,0,resources/,pics/dustpan.jpg,pics/table01.jpg,pics/sink.jpg,pics/forklift.jpg,pics/dromedary.jpg,pics/proboscismonkey.jpg,pics/cymbal.jpg,pics/shovel01.jpg,pics/stapler10.jpg,pics/backpack01a.jpg,pics/binder03b.jpg,pics/banjo.jpg,pics/candleholder01.jpg,blankImage,blankImage,blankImage,blankImage,forklift,47,0.1161,,,,,,,,,,,,,,,,,,,,,,,,,,,,,,,,,,,,,,,,0,58,58,46,1,,,,,,,,,,,,,,,,,,,,,,,,,,,,,,,,,,,,,,,,,,,,,,,,,,,,,,,
,,,,,65dcb1277d4c8c0b58de2db7,6682b41eeb79ab8215dff63d,6682b9f65ff67f9577442b56,59,Male,English,2024-07-01_15h16.15.394,ABmemTask3,2023.2.3,Win32,60.97560976,,,,,,,,,,,,,,,,,,,,,,,,,,,,,,,1499.01,1500.0092,1500.0093,7,1500.5092,1502.0263,0.0016,1502.1422,0.1162,0.1165,0.1166,0.1168,0.1168,0.1165,0.1167,0.1166,0.1164,0.1168,0.1167,1502.1422,1502.8592,right,0.7007,,1502.8592,1503.0594,right,0.1839,,60,0,120,1503.0595,1504.059,,,,,,1_AB,L5_T1P_T2P,5,1,1,4,9,3,5,14,asparagus,Did you see the asparagus,0.12,0,resources/,pics/siamesecat.jpg,pics/starfish01.jpg,pics/aquarium.jpg,pics/asparagus.jpg,pics/salmon.jpg,pics/binoculars01b.jpg,pics/ball02.jpg,pics/calendar.jpg,pics/stapler10.jpg,pics/giraffe.jpg,pics/dromedary.jpg,pics/seaturtle.jpg,pics/sandbarshark.jpg,pics/shipinabottle.jpg,blankImage,blankImage,blankImage,asparagus,44,0.1163,0.1172,,,,,,,,,,,,,,,,,,,,,,,,,,,,,,,,,,,,,,,0,59,59,43,1,,,,,,,,,,,,,,,,,,,,,,,,,,,,,,,,,,,,,,,,,,,,,,,,,,,,,,,
,,,,,65dcb1277d4c8c0b58de2db7,6682b41eeb79ab8215dff63d,6682b9f65ff67f9577442b56,59,Male,English,2024-07-01_15h16.15.394,ABmemTask3,2023.2.3,Win32,60.97560976,,,,,,,,,,,,,,,,,,,,,,,,,,,,,,,1504.0598,1505.0589,1505.059,7,1505.5589,1507.3093,0.0016,1507.4254,0.1161,0.1167,0.1162,0.117,0.1162,0.117,0.1165,0.1169,0.1166,0.1165,0.1167,1507.4256,1508.5918,right,1.15,,1508.5919,1508.9088,left,0.3014,,62,0,122,1508.9089,1509.9086,,,,,,1_AB,L5_T1P_T2A,5,1,0,6,11,5,5,16,belt,Did you see the belt,0.12,0,resources/,pics/banjo.jpg,pics/birdhouse.jpg,pics/spoon01.jpg,pics/table01.jpg,pics/candle01.jpg,pics/belt02a.jpg,pics/peach01.jpg,pics/chainsaw.jpg,pics/toiletpaper01a.jpg,pics/proboscismonkey.jpg,pics/cymbal.jpg,pics/binoculars01b.jpg,pics/cannon.jpg,pics/noparkingsign.jpg,pics/sailboat.jpg,pics/carrot01.jpg,blankImage,belt02a,61,0.1166,0.1165,0.1167,,,,,,,,,,,,,,,,,,,,,,,,,,,,,,,,,,,,,,0,60,60,60,1,0.1167,,,,,,,,,,,,,,,,,,,,,,,,,,,,,,,,,,,,,,,,,,,,,,,,,,,,,,
,,,,,65dcb1277d4c8c0b58de2db7,6682b41eeb79ab8215dff63d,6682b9f65ff67f9577442b56,59,Male,English,2024-07-01_15h16.15.394,ABmemTask3,2023.2.3,Win32,60.97560976,,,,,,,,,,,,,,,,,,,,,,,,,,,,,,,1509.9092,1510.9083,1510.9084,7,1511.4083,1512.4589,0.0016,1512.5751,0.1164,0.1163,0.1166,0.117,0.1166,0.1164,0.117,0.1166,0.1166,,,1512.5752,1513.6915,right,1.1036,,1513.6916,1513.8919,right,0.1847,,64,0,124,1513.892,1514.8918,,,,,,1_AB,L1_T1P_T2P,1,1,1,5,6,4,4,10,thermometer,Did you see the thermometer,0.12,0,resources/,pics/triangle.jpg,pics/shovel01.jpg,pics/mummy.jpg,pics/noparkingsign.jpg,pics/thermometer02b.jpg,pics/stapler04.jpg,pics/piggybank.jpg,pics/golfball.jpg,pics/laptop01a.jpg,pics/aquarium.jpg,blankImage,blankImage,blankImage,blankImage,blankImage,blankImage,blankImage,thermometer02b,8,,,,,,,,,,,,,,,,,,,,,,,,,,,,,,,,,,,,,,,,,0,61,61,7,1,,,,,,,,,,,,,,,,,,,,,,,,,,,,,,,,,,,,,,,,,,,,,,,,,,,,,,,
,,,,,65dcb1277d4c8c0b58de2db7,6682b41eeb79ab8215dff63d,6682b9f65ff67f9577442b56,59,Male,English,2024-07-01_15h16.15.394,ABmemTask3,2023.2.3,Win32,60.97560976,,,,,,,,,,,,,,,,,,,,,,,,,,,,,,,,,,,,,,,,,,,,,,,,,,,,,,,,,,,,,,,,,,,,,,,,,,,,,,,,,,,,,,,,,,,,,,,,,,,,,,,,,,,1514.8934,1517.9925,space,3.0798,,,,,,,,,,,,,,,,,,,,,,,,,,,,,,,,,,,,,,,,,,,,,,,,,,,,,,,,,,,,,,,,,,,,,,,,,,,,,,,,,,,,,,,,,,,,,
,,,,,65dcb1277d4c8c0b58de2db7,6682b41eeb79ab8215dff63d,6682b9f65ff67f9577442b56,59,Male,English,2024-07-01_15h16.15.394,ABmemTask3,2023.2.3,Win32,60.97560976,,,space,10.0105,,,,,,,,,,,,,,,,,,,,,,,,,,,,,,,,,,,,,,,,,,,,,,,,,,,,,,,,,,,,,,,,,,,,,,,,,,,,,,,,,,,,,,,,,,,,,,,,,,,,,,,,,,,,,,,,,,,,,,,,,,,,,,,,,,,,,,,,,,,,,,,,,,,1517.9927,1528.0423,,,,,,,,,,,,,,,,,,,,,,,,,,,,,,,,,,,,,,,,,,,,,,,,,,,
,,,,,65dcb1277d4c8c0b58de2db7,6682b41eeb79ab8215dff63d,6682b9f65ff67f9577442b56,59,Male,English,2024-07-01_15h16.15.394,ABmemTask3,2023.2.3,Win32,60.97560976,,,,,,,,,,,,,,,,,,,,,,,,,,,,,,,,,,,,,,,,,,,,,,,,,,,,,,,,,,,,,,,,,,,,,,,,,,,,,,,,,,,,,,,,,,,,,,,,,,,,,,,,,,,,,,,,,,,,,,,,,,,,,,,,,,,,,,,,,,,,,,,,,,,,,,,,,1528.0426,1540.9087,space,12.8225,,,,,,,,,,,,,,,,,,,,,,,,,,,,,,,,,,,,,,,,,,,,,,,
,,,,,65dcb1277d4c8c0b58de2db7,6682b41eeb79ab8215dff63d,6682b9f65ff67f9577442b56,59,Male,English,2024-07-01_15h16.15.394,ABmemTask3,2023.2.3,Win32,60.97560976,,,,,,,,,,,,,,,,,,,,,,,,,,,,,,,1540.9252,1541.9235,1541.9236,7,1542.4236,1543.4737,0.002,1543.5891,0.1155,0.1165,0.1164,0.1172,0.1165,0.1165,0.1166,0.1162,0.117,,,1543.5894,1544.8068,right,1.1841,,,,,,,1,64,2,1544.8069,1545.8067,,,,,,2_AB,L1_T1P_T2P,1,1,1,6,7,5,3,10,apple,Did you see the apple,0.12,0,resources/,pics/christmaslights.jpg,pics/sink.jpg,pics/leaf02a.jpg,pics/necklace.jpg,pics/ball02.jpg,pics/apple07.jpg,pics/stapler03.jpg,pics/nutcracker01.jpg,pics/spoon01.jpg,pics/spiderweb.jpg,blankImage,blankImage,blankImage,blankImage,blankImage,blankImage,blankImage,apple07,10,,,,,,,,,,,,,,,,,,,,,,,,,,,,,,,,,,,,,,,,,,,,,,,,,,,,,,,0,0,0,9,1,,,,,,,,,,,,,,,,,,,,,,,,,,,,,,,,,,,,,,,,,
,,,,,65dcb1277d4c8c0b58de2db7,6682b41eeb79ab8215dff63d,6682b9f65ff67f9577442b56,59,Male,English,2024-07-01_15h16.15.394,ABmemTask3,2023.2.3,Win32,60.97560976,,,,,,,,,,,,,,,,,,,,,,,,,,,,,,,1545.8075,1546.8065,1546.8067,7,1547.3067,1548.707,0.0015,1548.8231,0.1164,0.1158,0.117,0.1165,0.1171,0.1163,0.1171,0.1161,0.117,0.1164,0.1171,1548.8234,1550.0732,left,1.2239,,,,,,,2,64,4,1550.0732,1551.0731,,,,,,2_AB,L5_T1A_T2P,5,0,1,5,10,4,3,13,suitcase,Did you see the suitcase,0.12,0,resources/,pics/christmaslights.jpg,pics/sandbarshark.jpg,pics/sink.jpg,pics/candle01.jpg,pics/seaturtle.jpg,pics/banjo.jpg,pics/dustpan.jpg,pics/binder03b.jpg,pics/backpack01a.jpg,pics/stapler03a.jpg,pics/birdhouse.jpg,pics/dromedary.jpg,pics/sewingmachine01a.jpg,blankImage,blankImage,blankImage,blankImage,suitcase,54,0.1165,,,,,,,,,,,,,,,,,,,,,,,,,,,,,,,,,,,,,,,,,,,,,,,,,,,,,,0,1,1,53,1,,,,,,,,,,,,,,,,,,,,,,,,,,,,,,,,,,,,,,,,,
,,,,,65dcb1277d4c8c0b58de2db7,6682b41eeb79ab8215dff63d,6682b9f65ff67f9577442b56,59,Male,English,2024-07-01_15h16.15.394,ABmemTask3,2023.2.3,Win32,60.97560976,,,,,,,,,,,,,,,,,,,,,,,,,,,,,,,1551.0739,1552.0732,1552.0733,7,1552.5733,1553.6288,0.0014,1553.7388,0.116,0.1163,0.1261,0.1076,0.1165,0.1164,0.1171,0.1161,0.1225,,,1553.7388,1554.8898,right,1.1177,,,,,,,3,64,6,1554.8899,1555.8895,,,,,,2_AB,L1_T1P_T2P,1,1,1,6,7,5,3,10,condom,Did you see the condom,0.12,0,resources/,pics/snowshoe.jpg,pics/lock03a.jpg,pics/sailboat.jpg,pics/football.jpg,pics/shipinabottle.jpg,pics/condom.jpg,pics/stapler13.jpg,pics/peanut01.jpg,pics/golfball.jpg,pics/cork02.jpg,blankImage,blankImage,blankImage,blankImage,blankImage,blankImage,blankImage,condom,5,,,,,,,,,,,,,,,,,,,,,,,,,,,,,,,,,,,,,,,,,,,,,,,,,,,,,,,0,2,2,4,1,,,,,,,,,,,,,,,,,,,,,,,,,,,,,,,,,,,,,,,,,
,,,,,65dcb1277d4c8c0b58de2db7,6682b41eeb79ab8215dff63d,6682b9f65ff67f9577442b56,59,Male,English,2024-07-01_15h16.15.394,ABmemTask3,2023.2.3,Win32,60.97560976,,,,,,,,,,,,,,,,,,,,,,,,,,,,,,,1555.8902,1556.8896,1556.8897,7,1557.3896,1558.6733,0.0013,1558.7893,0.1161,0.1161,0.1262,0.1076,0.1165,0.117,0.1167,0.1164,0.1169,0.1167,0.1164,1558.7895,1560.0227,right,1.205,,,,,,,4,64,8,1560.0228,1561.0227,,,,,,2_AB,L1_T1P_T2A,1,1,0,6,7,5,5,12,Bird feeder,Did you see the Bird feeder,0.12,0,resources/,pics/spiderweb.jpg,pics/carrot01.jpg,pics/ashtray01.jpg,pics/golfball.jpg,pics/piggybank.jpg,pics/birdfeeder.jpg,pics/siamesecat.jpg,pics/seaturtle.jpg,pics/blender.jpg,pics/pencil01.jpg,pics/spoon01.jpg,pics/zebra.jpg,blankImage,blankImage,blankImage,blankImage,blankImage,birdfeeder,37,,,,,,,,,,,,,,,,,,,,,,,,,,,,,,,,,,,,,,,,,,,,,,,,,,,,,,,0,3,3,36,1,,,,,,,,,,,,,,,,,,,,,,,,,,,,,,,,,,,,,,,,,
,,,,,65dcb1277d4c8c0b58de2db7,6682b41eeb79ab8215dff63d,6682b9f65ff67f9577442b56,59,Male,English,2024-07-01_15h16.15.394,ABmemTask3,2023.2.3,Win32,60.97560976,,,,,,,,,,,,,,,,,,,,,,,,,,,,,,,1561.0234,1562.0316,1562.0317,7,1562.5222,1563.923,0.0014,1564.0388,0.1164,0.116,0.1174,0.1165,0.1167,0.1219,0.1113,0.1165,0.1164,0.1173,0.1164,1564.0389,1564.8728,right,0.8054,,,,,,,5,64,10,1564.8728,1565.8724,,,,,,2_AB,L1_T1P_T2A,1,1,0,7,8,6,5,13,rice,Did you see the rice,0.12,0,resources/,pics/necklace.jpg,pics/floortile02.jpg,pics/cork02.jpg,pics/seagull.jpg,pics/hen.jpg,pics/snowshoe.jpg,pics/rice.jpg,pics/ball02.jpg,pics/peanut01.jpg,pics/boot02b.jpg,pics/spiderweb.jpg,pics/nutcracker01.jpg,pics/bowlingpin.jpg,blankImage,blankImage,blankImage,blankImage,rice,39,0.1168,,,,,,,,,,,,,,,,,,,,,,,,,,,,,,,,,,,,,,,,,,,,,,,,,,,,,,0,4,4,38,1,,,,,,,,,,,,,,,,,,,,,,,,,,,,,,,,,,,,,,,,,
,,,,,65dcb1277d4c8c0b58de2db7,6682b41eeb79ab8215dff63d,6682b9f65ff67f9577442b56,59,Male,English,2024-07-01_15h16.15.394,ABmemTask3,2023.2.3,Win32,60.97560976,,,,,,,,,,,,,,,,,,,,,,,,,,,,,,,1565.8731,1566.8723,1566.8723,7,1567.3647,1569.2225,0.0012,1569.3385,0.1071,0.1162,0.1172,0.1168,0.1165,0.1162,0.117,0.1258,0.1073,0.1162,0.1172,1569.3386,1569.9653,right,0.6009,,,,,,,6,64,12,1569.9653,1570.9552,,,,,,2_AB,L5_T1P_T2P,5,1,1,7,12,6,5,17,lips,Did you see the lips,0.12,0,resources/,pics/binder03b.jpg,pics/christmaslights.jpg,pics/shovel01.jpg,pics/wheel01.jpg,pics/calendar.jpg,pics/sealion.jpg,pics/lip.jpg,pics/table01.jpg,pics/seagull.jpg,pics/hammerheadshark.jpg,pics/bowtie.jpg,pics/stapler05.jpg,pics/mummy.jpg,pics/hen.jpg,pics/golfball.jpg,pics/fanblades.jpg,pics/laptop01a.jpg,lip,43,0.1158,0.1177,0.1166,,,,,,,,,,,,,,,,,,,,,,,,,,,,,,,,,,,,,,,,,,,0.1163,0.1169,,,,,,,,0,5,5,42,1,,,,,,,,,,,,,,,,,,,,,,,,,,,,,,,,,,,,,,,,,
,,,,,65dcb1277d4c8c0b58de2db7,6682b41eeb79ab8215dff63d,6682b9f65ff67f9577442b56,59,Male,English,2024-07-01_15h16.15.394,ABmemTask3,2023.2.3,Win32,60.97560976,,,,,,,,,,,,,,,,,,,,,,,,,,,,,,,1570.9559,1571.9552,1571.9552,7,1572.4551,1573.6221,0.0015,1573.7382,0.116,0.117,0.1162,0.1169,0.1161,0.117,0.1162,0.1172,0.1165,0.1169,,1573.7382,1574.4882,right,0.7224,,,,,,,7,64,14,1574.4883,1575.4884,,,,,,2_AB,L1_T1P_T2P,1,1,1,6,7,5,4,11,goggles,Did you see the goggles,0.12,0,resources/,pics/bowtie.jpg,pics/peach01.jpg,pics/kangaroo.jpg,pics/bowlingpin.jpg,pics/wheel01.jpg,pics/swimgoggles.jpg,pics/stapler03.jpg,pics/cymbal.jpg,pics/cork02.jpg,pics/sealion.jpg,pics/football.jpg,blankImage,blankImage,blankImage,blankImage,blankImage,blankImage,swimgoggles,9,,,,,,,,,,,,,,,,,,,,,,,,,,,,,,,,,,,,,,,,,,,,,,,,,,,,,,,0,6,6,8,1,,,,,,,,,,,,,,,,,,,,,,,,,,,,,,,,,,,,,,,,,
,,,,,65dcb1277d4c8c0b58de2db7,6682b41eeb79ab8215dff63d,6682b9f65ff67f9577442b56,59,Male,English,2024-07-01_15h16.15.394,ABmemTask3,2023.2.3,Win32,60.97560976,,,,,,,,,,,,,,,,,,,,,,,,,,,,,,,1575.4889,1576.488,1576.488,7,1576.9884,1578.0385,0.0013,1578.1548,0.1249,0.1171,0.107,0.117,0.1163,0.1171,0.1161,0.1171,0.1166,,,1578.1549,1578.7383,right,0.5507,,,,,,,8,64,16,1578.7383,1579.738,,,,,,2_AB,L1_T1P_T2A,1,1,0,6,7,5,3,10,Safe,Did you see the Safe,0.12,0,resources/,pics/match.jpg,pics/ashtray01.jpg,pics/icecube01.jpg,pics/piggybank.jpg,pics/chainsaw.jpg,pics/safe.jpg,pics/siamesecat.jpg,pics/dromedary.jpg,pics/binder03b.jpg,pics/ball02.jpg,blankImage,blankImage,blankImage,blankImage,blankImage,blankImage,blankImage,safe,34,,,,,,,,,,,,,,,,,,,,,,,,,,,,,,,,,,,,,,,,,,,,,,,,,,,,,,,0,7,7,33,1,,,,,,,,,,,,,,,,,,,,,,,,,,,,,,,,,,,,,,,,,
,,,,,65dcb1277d4c8c0b58de2db7,6682b41eeb79ab8215dff63d,6682b9f65ff67f9577442b56,59,Male,English,2024-07-01_15h16.15.394,ABmemTask3,2023.2.3,Win32,60.97560976,,,,,,,,,,,,,,,,,,,,,,,,,,,,,,,1579.7386,1580.7379,1580.738,7,1581.238,1582.9883,0.0012,1583.1136,0.1161,0.117,0.1164,0.1166,0.1168,0.1165,0.1166,0.1171,0.1258,0.1165,0.107,1583.1137,1584.1546,right,1.0184,,,,,,,9,64,18,1584.1547,1585.1469,,,,,,2_AB,L5_T1P_T2P,5,1,1,7,12,6,4,16,lawn mower,Did you see the lawn mower,0.12,0,resources/,pics/proboscismonkey.jpg,pics/hammerheadshark.jpg,pics/hairdryer02a.jpg,pics/seaturtle.jpg,pics/birdhouse.jpg,pics/zebra.jpg,pics/lawnmower.jpg,pics/peanut01.jpg,pics/laptop01a.jpg,pics/carrot01.jpg,pics/blender.jpg,pics/stapler03.jpg,pics/triangle.jpg,pics/cannon.jpg,pics/necklace.jpg,pics/shovel01.jpg,blankImage,lawnmower,53,0.1168,0.1226,0.1108,,,,,,,,,,,,,,,,,,,,,,,,,,,,,,,,,,,,,,,,,,,0.1168,,,,,,,,,0,8,8,52,1,,,,,,,,,,,,,,,,,,,,,,,,,,,,,,,,,,,,,,,,,
