consent1.started,consent1.stopped,key_resp_8.keys,key_resp_8.rt,key_resp_8.duration,PROLIFIC_PID,STUDY_ID,SESSION_ID,age,sex,native language,date,expName,psychopyVersion,OS,frameRate,consent2.started,consent2.stopped,key_resp_9.keys,key_resp_9.rt,key_resp_9.duration,consent3.started,consent3.stopped,key_resp_10.keys,key_resp_10.rt,key_resp_10.duration,consent4.started,consent4.stopped,key_resp_11.keys,key_resp_11.rt,key_resp_11.duration,consent5.started,consent5.stopped,key_resp_12.keys,key_resp_12.rt,key_resp_12.duration,bonusInstruct.started,bonusInstruct.stopped,key_resp_14.keys,key_resp_14.rt,key_resp_14.duration,practiceInstruct.started,practiceInstruct.stopped,key_resp.keys,key_resp.rt,key_resp.duration,cueWord_2.started,cueWord_2.stopped,fix.started,frameTarget,fix.stopped,trial.started,img1Add,trial.stopped,img2Add,img3Add,img4Add,img5Add,img6Add,img7Add,img8Add,img9Add,img10Add,img11Add,img12Add,prompt1.started,prompt1.stopped,key_resp_2.keys,key_resp_2.rt,key_resp_2.duration,prompt2.started,prompt2.stopped,key_resp_3.keys,key_resp_3.rt,key_resp_3.duration,runningAcc_AB,runningTotal,runningCount_AB,feedback.started,feedback.stopped,trials.thisRepN,trials.thisTrialN,trials.thisN,trials.thisIndex,trials.ran,TrialType,CondType,Lag,T1_PA,T2_PA,T1Loc,T2Loc,PreDistractor,PostDistractor,TotalImg,cueWord,T1cue,StimLength,isi,PicFolder,Img1,Img2,Img3,Img4,Img5,Img6,Img7,Img8,Img9,Img10,Img11,Img12,Img13,Img14,Img15,Img16,Img17,T1_Identity,trialID,img13Add,img14Add,img15Add,ABfeedback.started,ABfeedback.stopped,key_resp_13.keys,key_resp_13.rt,key_resp_13.duration,MemPracticeInstruction.started,MemPracticeInstruction.stopped,key_resp_5.keys,key_resp_5.rt,key_resp_5.duration,memTrial.started,memTrial.stopped,Mem_runningPoints,key_resp_4.keys,key_resp_4.rt,key_resp_4.duration,memTrialFeedback.started,memTrialFeedback.stopped,trials_2.thisRepN,trials_2.thisTrialN,trials_2.thisN,trials_2.thisIndex,trials_2.ran,ABtrialID,priorLag,image,memFeedback.started,memFeedback.frame,memFeedback.ended,memFeedback.stopped,bonus.started,bonus.stopped,memoryBlockABInstruct.started,memoryBlockABInstruct.stopped,key_resp_6.keys,key_resp_6.rt,key_resp_6.duration,AB_block_1.thisRepN,AB_block_1.thisTrialN,AB_block_1.thisN,AB_block_1.thisIndex,AB_block_1.ran,img16Add,img17Add,AB_break1.started,AB_break1.stopped,PerceiveBlockABInstruct.started,PerceiveBlockABInstruct.stopped,key_resp_7.keys,key_resp_7.rt,key_resp_7.duration,AB_block_2.thisRepN,AB_block_2.thisTrialN,AB_block_2.thisN,AB_block_2.thisIndex,AB_block_2.ran,AB_break2.started,AB_break2.stopped,AB_block_3.thisRepN,AB_block_3.thisTrialN,AB_block_3.thisN,AB_block_3.thisIndex,AB_block_3.ran,AB_break3.started,AB_break3.stopped,AB_block_4.thisRepN,AB_block_4.thisTrialN,AB_block_4.thisN,AB_block_4.thisIndex,AB_block_4.ran,AB_break4.started,AB_break4.stopped,AB_block_5.thisRepN,AB_block_5.thisTrialN,AB_block_5.thisN,AB_block_5.thisIndex,AB_block_5.ran,AB_break5.started,AB_break5.stopped,AB_block_6.thisRepN,AB_block_6.thisTrialN,AB_block_6.thisN,AB_block_6.thisIndex,AB_block_6.ran,AB_break6.started,AB_break6.stopped,MemInstructionSURPRISE.started,MemInstructionSURPRISE.stopped,MemInstruction.started,MemInstruction.stopped,memBreak.started,memBreak.stopped,Mem_block_1.thisRepN,Mem_block_1.thisTrialN,Mem_block_1.thisN,Mem_block_1.thisIndex,Mem_block_1.ran
0.0004,6.472,space,6.4445,,56caf7b564c068000c4d798a,6682b41eeb79ab8215dff63d,6682bac838bcaf2249106b0e,43,Female,English,2024-07-01_09h21.13.512,ABmemTask3,2023.2.3,MacIntel,57.14285714,,,,,,,,,,,,,,,,,,,,,,,,,,,,,,,,,,,,,,,,,,,,,,,,,,,,,,,,,,,,,,,,,,,,,,,,,,,,,,,,,,,,,,,,,,,,,,,,,,,,,,,,,,,,,,,,,,,,,,,,,,,,,,,,,,,,,,,,,,,,,,,,,,,,,,,,,,,,,,,,,,,,,,,,,,,,,,,,,,,,,,,,,,,,,,,,,,,,,,,,,,,
,,,,,56caf7b564c068000c4d798a,6682b41eeb79ab8215dff63d,6682bac838bcaf2249106b0e,43,Female,English,2024-07-01_09h21.13.512,ABmemTask3,2023.2.3,MacIntel,57.14285714,6.4723,8.1721,space,1.676,,,,,,,,,,,,,,,,,,,,,,,,,,,,,,,,,,,,,,,,,,,,,,,,,,,,,,,,,,,,,,,,,,,,,,,,,,,,,,,,,,,,,,,,,,,,,,,,,,,,,,,,,,,,,,,,,,,,,,,,,,,,,,,,,,,,,,,,,,,,,,,,,,,,,,,,,,,,,,,,,,,,,,,,,,,,,,,,,,,,,,,,,,,,,,,,,,,,,,,
,,,,,56caf7b564c068000c4d798a,6682b41eeb79ab8215dff63d,6682bac838bcaf2249106b0e,43,Female,English,2024-07-01_09h21.13.512,ABmemTask3,2023.2.3,MacIntel,57.14285714,,,,,,8.1722,9.3218,space,1.1212,,,,,,,,,,,,,,,,,,,,,,,,,,,,,,,,,,,,,,,,,,,,,,,,,,,,,,,,,,,,,,,,,,,,,,,,,,,,,,,,,,,,,,,,,,,,,,,,,,,,,,,,,,,,,,,,,,,,,,,,,,,,,,,,,,,,,,,,,,,,,,,,,,,,,,,,,,,,,,,,,,,,,,,,,,,,,,,,,,,,,,,,,,,,,,,,,,
,,,,,56caf7b564c068000c4d798a,6682b41eeb79ab8215dff63d,6682bac838bcaf2249106b0e,43,Female,English,2024-07-01_09h21.13.512,ABmemTask3,2023.2.3,MacIntel,57.14285714,,,,,,,,,,,9.3219,10.8389,space,1.4985,,,,,,,,,,,,,,,,,,,,,,,,,,,,,,,,,,,,,,,,,,,,,,,,,,,,,,,,,,,,,,,,,,,,,,,,,,,,,,,,,,,,,,,,,,,,,,,,,,,,,,,,,,,,,,,,,,,,,,,,,,,,,,,,,,,,,,,,,,,,,,,,,,,,,,,,,,,,,,,,,,,,,,,,,,,,,,,,,,,,,,,,,,,,,
,,,,,56caf7b564c068000c4d798a,6682b41eeb79ab8215dff63d,6682bac838bcaf2249106b0e,43,Female,English,2024-07-01_09h21.13.512,ABmemTask3,2023.2.3,MacIntel,57.14285714,,,,,,,,,,,,,,,,10.8391,12.3723,space,1.5118,,,,,,,,,,,,,,,,,,,,,,,,,,,,,,,,,,,,,,,,,,,,,,,,,,,,,,,,,,,,,,,,,,,,,,,,,,,,,,,,,,,,,,,,,,,,,,,,,,,,,,,,,,,,,,,,,,,,,,,,,,,,,,,,,,,,,,,,,,,,,,,,,,,,,,,,,,,,,,,,,,,,,,,,,,,,,,,,,,,,,,,,
,,,,,56caf7b564c068000c4d798a,6682b41eeb79ab8215dff63d,6682bac838bcaf2249106b0e,43,Female,English,2024-07-01_09h21.13.512,ABmemTask3,2023.2.3,MacIntel,57.14285714,,,,,,,,,,,,,,,,,,,,,12.3725,31.5071,space,19.1032,,,,,,,,,,,,,,,,,,,,,,,,,,,,,,,,,,,,,,,,,,,,,,,,,,,,,,,,,,,,,,,,,,,,,,,,,,,,,,,,,,,,,,,,,,,,,,,,,,,,,,,,,,,,,,,,,,,,,,,,,,,,,,,,,,,,,,,,,,,,,,,,,,,,,,,,,,,,,,,,,,,,,,,,,,,,,,,,,,,
,,,,,56caf7b564c068000c4d798a,6682b41eeb79ab8215dff63d,6682bac838bcaf2249106b0e,43,Female,English,2024-07-01_09h21.13.512,ABmemTask3,2023.2.3,MacIntel,57.14285714,,,,,,,,,,,,,,,,,,,,,,,,,,31.5072,52.7072,space,21.1705,,,,,,,,,,,,,,,,,,,,,,,,,,,,,,,,,,,,,,,,,,,,,,,,,,,,,,,,,,,,,,,,,,,,,,,,,,,,,,,,,,,,,,,,,,,,,,,,,,,,,,,,,,,,,,,,,,,,,,,,,,,,,,,,,,,,,,,,,,,,,,,,,,,,,,,,,,,,,,,,,,,,,,,,,,,,,,
,,,,,56caf7b564c068000c4d798a,6682b41eeb79ab8215dff63d,6682bac838bcaf2249106b0e,43,Female,English,2024-07-01_09h21.13.512,ABmemTask3,2023.2.3,MacIntel,57.14285714,,,,,,,,,,,,,,,,,,,,,,,,,,,,,,,52.7247,53.723,53.7232,14,54.2213,56.7896,0.0008,57.0221,0.2332,0.2344,0.2335,0.2328,0.2338,0.2329,0.2334,0.2328,0.2344,0.2332,0.2333,57.0228,58.1055,right,1.0545,,58.1056,61.7735,left,3.6582,,2,0,2,61.7737,62.772,0,0,0,0,1,prac_AB,L1_T1P_T2A,1,1,0,6,7,5,5,12,cat,Did you see the cat,0.25,0,resources/,pics/shipinabottle.jpg,pics/table01.jpg,pics/dustpan.jpg,pics/golfball.jpg,pics/giraffe.jpg,pics/cat.jpg,pics/peanut01.jpg,pics/pictureframe04.jpg,pics/fanblades.jpg,pics/laptop01a.jpg,pics/ball02.jpg,pics/blender.jpg,blankImage,blankImage,blankImage,blankImage,blankImage,cat,8,,,,,,,,,,,,,,,,,,,,,,,,,,,,,,,,,,,,,,,,,,,,,,,,,,,,,,,,,,,,,,,,,,,,,,,,,,,,,,,,,,,,,,,,,,,,,,,,,,,,
,,,,,56caf7b564c068000c4d798a,6682b41eeb79ab8215dff63d,6682bac838bcaf2249106b0e,43,Female,English,2024-07-01_09h21.13.512,ABmemTask3,2023.2.3,MacIntel,57.14285714,,,,,,,,,,,,,,,,,,,,,,,,,,,,,,,62.7802,63.7719,63.772,14,64.2718,66.3733,0.0011,66.6061,0.2326,0.2342,0.2327,0.2343,0.2325,0.233,0.2334,0.2344,0.2335,,,66.6062,67.6566,right,1.0272,,67.6566,68.473,left,0.8029,,2,0,4,68.4732,69.4726,0,1,1,1,1,prac_AB,L1_T1P_T2P,1,1,1,5,6,4,4,10,tree,Did you see the tree,0.24,0,resources/,pics/carrot01.jpg,pics/hammerheadshark.jpg,pics/kangaroo.jpg,pics/proboscismonkey.jpg,pics/tree.jpg,pics/stapler07.jpg,pics/siamesecat.jpg,pics/ball02.jpg,pics/pictureframe04.jpg,pics/mummy.jpg,blankImage,blankImage,blankImage,blankImage,blankImage,blankImage,blankImage,tree,1,,,,,,,,,,,,,,,,,,,,,,,,,,,,,,,,,,,,,,,,,,,,,,,,,,,,,,,,,,,,,,,,,,,,,,,,,,,,,,,,,,,,,,,,,,,,,,,,,,,,
,,,,,56caf7b564c068000c4d798a,6682b41eeb79ab8215dff63d,6682bac838bcaf2249106b0e,43,Female,English,2024-07-01_09h21.13.512,ABmemTask3,2023.2.3,MacIntel,57.14285714,,,,,,,,,,,,,,,,,,,,,,,,,,,,,,,69.4806,70.4729,70.473,13,70.973,73.3558,0.0013,73.5717,0.2151,0.2174,0.2157,0.2176,0.2168,0.2162,0.2161,0.2168,0.2177,0.2166,0.2158,73.5718,74.7561,left,1.1743,,74.7562,75.3889,right,0.6175,,4,0,6,75.389,76.3885,0,2,2,2,1,prac_AB,L1_T1A_T2P,1,0,1,7,8,6,4,12,grapes,Did you see the grapes,0.23,0,resources/,pics/sailboat.jpg,pics/butterfly.jpg,pics/giraffe.jpg,pics/spoon01.jpg,pics/hose.jpg,pics/nutcracker01.jpg,pics/table01.jpg,pics/stapler13.jpg,pics/pencil01.jpg,pics/football.jpg,pics/triangle.jpg,pics/hairdryer02a.jpg,blankImage,blankImage,blankImage,blankImage,blankImage,grape01,6,,,,,,,,,,,,,,,,,,,,,,,,,,,,,,,,,,,,,,,,,,,,,,,,,,,,,,,,,,,,,,,,,,,,,,,,,,,,,,,,,,,,,,,,,,,,,,,,,,,,
,,,,,56caf7b564c068000c4d798a,6682b41eeb79ab8215dff63d,6682bac838bcaf2249106b0e,43,Female,English,2024-07-01_09h21.13.512,ABmemTask3,2023.2.3,MacIntel,57.14285714,,,,,,,,,,,,,,,,,,,,,,,,,,,,,,,76.3888,77.3887,77.3887,13,77.8898,80.9233,0.001,81.1388,0.2151,0.2178,0.2164,0.2158,0.217,0.2171,0.2154,0.2177,0.216,0.2172,0.2176,81.1389,81.8234,right,0.6631,,81.8234,82.3894,right,0.5518,,6,0,8,82.3895,83.3892,0,3,3,3,1,prac_AB,L5_T1P_T2P,5,1,1,7,12,6,3,15,Human skull,Did you see the Human skull,0.22,0,resources/,pics/peach01.jpg,pics/proboscismonkey.jpg,pics/hose.jpg,pics/laptop01a.jpg,pics/hammerheadshark.jpg,pics/nutcracker01.jpg,pics/humanskull.jpg,pics/table01.jpg,pics/icecube01.jpg,pics/boot02b.jpg,pics/calendar.jpg,pics/stapler03a.jpg,pics/ashtray01.jpg,pics/giraffe.jpg,pics/dromedary.jpg,blankImage,blankImage,humanskull,12,0.2163,0.2158,0.2177,,,,,,,,,,,,,,,,,,,,,,,,,,,,,,,,,,,,,,,,,,,,,,,,,,,,,,,,,,,,,,,,,,,,,,,,,,,,,,,,,,,,,,,,,,,,,,,,,
,,,,,56caf7b564c068000c4d798a,6682b41eeb79ab8215dff63d,6682bac838bcaf2249106b0e,43,Female,English,2024-07-01_09h21.13.512,ABmemTask3,2023.2.3,MacIntel,57.14285714,,,,,,,,,,,,,,,,,,,,,,,,,,,,,,,83.3896,84.3898,84.3899,12,84.8896,86.8899,0.0006,87.0899,0.2002,0.1989,0.2003,0.1998,0.2006,0.1994,0.201,0.2,0.1991,0.2006,,87.09,88.7568,left,1.6551,,88.7569,89.2721,right,0.4993,,8,0,10,89.2722,90.2734,0,4,4,4,1,prac_AB,L1_T1A_T2P,1,0,1,7,8,6,3,11,dog,Did you see the dog,0.21,0,resources/,pics/ball02.jpg,pics/binder03b.jpg,pics/dromedary.jpg,pics/shipinabottle.jpg,pics/proboscismonkey.jpg,pics/laptop01a.jpg,pics/chainsaw.jpg,pics/stapler13.jpg,pics/nutcracker01.jpg,pics/carrot01.jpg,pics/calendar.jpg,blankImage,blankImage,blankImage,blankImage,blankImage,blankImage,saintbernard,7,,,,,,,,,,,,,,,,,,,,,,,,,,,,,,,,,,,,,,,,,,,,,,,,,,,,,,,,,,,,,,,,,,,,,,,,,,,,,,,,,,,,,,,,,,,,,,,,,,,,
,,,,,56caf7b564c068000c4d798a,6682b41eeb79ab8215dff63d,6682bac838bcaf2249106b0e,43,Female,English,2024-07-01_09h21.13.512,ABmemTask3,2023.2.3,MacIntel,57.14285714,,,,,,,,,,,,,,,,,,,,,,,,,,,,,,,90.274,91.2731,91.2732,11,91.7735,94.3403,0.0011,94.5224,0.1817,0.1839,0.1837,0.1833,0.1823,0.1846,0.1833,0.1823,0.1842,0.1835,0.1832,94.5226,95.7892,right,1.2502,,95.7893,96.3569,right,0.5614,,10,0,12,96.357,97.3568,0,5,5,5,1,prac_AB,L5_T1P_T2P,5,1,1,5,10,4,5,15,grater,Did you see the grater,0.2,0,resources/,pics/pencil01.jpg,pics/laptop01a.jpg,pics/hammerheadshark.jpg,pics/cork02.jpg,pics/grater01a.jpg,pics/shipinabottle.jpg,pics/binder03b.jpg,pics/dromedary.jpg,pics/pictureframe04.jpg,pics/stapler04b.jpg,pics/fanblades.jpg,pics/aquarium.jpg,pics/hairdryer02a.jpg,pics/lightswitch01.jpg,pics/piggybank.jpg,blankImage,blankImage,grater01a,11,0.183,0.1833,0.1837,,,,,,,,,,,,,,,,,,,,,,,,,,,,,,,,,,,,,,,,,,,,,,,,,,,,,,,,,,,,,,,,,,,,,,,,,,,,,,,,,,,,,,,,,,,,,,,,,
,,,,,56caf7b564c068000c4d798a,6682b41eeb79ab8215dff63d,6682bac838bcaf2249106b0e,43,Female,English,2024-07-01_09h21.13.512,ABmemTask3,2023.2.3,MacIntel,57.14285714,,,,,,,,,,,,,,,,,,,,,,,,,,,,,,,97.3647,98.3559,98.3559,11,98.8568,100.3234,0.001,100.5067,0.1824,0.1837,0.1834,0.1824,0.1841,0.1836,0.1834,0.1827,,,,100.5068,101.6895,left,1.1612,,101.6896,102.5561,left,0.855,,10,0,14,102.5561,103.5559,0,6,6,6,1,prac_AB,L1_T1P_T2A,1,1,0,4,5,3,4,9,chalk,Did you see the chalk,0.19,0,resources/,pics/necklace.jpg,pics/starfish01.jpg,pics/safetypin.jpg,pics/chalk.jpg,pics/candleholder01.jpg,pics/bowtie.jpg,pics/match.jpg,pics/candle01.jpg,pics/pencilsharpener02a.jpg,blankImage,blankImage,blankImage,blankImage,blankImage,blankImage,blankImage,blankImage,chalk,9,,,,,,,,,,,,,,,,,,,,,,,,,,,,,,,,,,,,,,,,,,,,,,,,,,,,,,,,,,,,,,,,,,,,,,,,,,,,,,,,,,,,,,,,,,,,,,,,,,,,
,,,,,56caf7b564c068000c4d798a,6682b41eeb79ab8215dff63d,6682bac838bcaf2249106b0e,43,Female,English,2024-07-01_09h21.13.512,ABmemTask3,2023.2.3,MacIntel,57.14285714,,,,,,,,,,,,,,,,,,,,,,,,,,,,,,,103.5686,104.5557,104.5557,10,105.057,106.5574,0.001,106.7237,0.1651,0.1669,0.1675,0.1655,0.1675,0.1668,0.1655,0.1676,0.1669,,,106.7237,108.7894,right,2.0436,,108.7895,109.5404,right,0.7452,,12,0,16,109.5405,110.5402,0,7,7,7,1,prac_AB,L1_T1P_T2P,1,1,1,5,6,4,4,10,pants,Did you see the pants,0.18,0,resources/,pics/kangaroo.jpg,pics/safetypin.jpg,pics/salmon.jpg,pics/sandbarshark.jpg,pics/pants.jpg,pics/stapler03a.jpg,pics/sink.jpg,pics/calendar.jpg,pics/butterfly.jpg,pics/fanblades.jpg,blankImage,blankImage,blankImage,blankImage,blankImage,blankImage,blankImage,pants,2,,,,,,,,,,,,,,,,,,,,,,,,,,,,,,,,,,,,,,,,,,,,,,,,,,,,,,,,,,,,,,,,,,,,,,,,,,,,,,,,,,,,,,,,,,,,,,,,,,,,
,,,,,56caf7b564c068000c4d798a,6682b41eeb79ab8215dff63d,6682bac838bcaf2249106b0e,43,Female,English,2024-07-01_09h21.13.512,ABmemTask3,2023.2.3,MacIntel,57.14285714,,,,,,,,,,,,,,,,,,,,,,,,,,,,,,,110.5503,111.5397,111.5399,10,112.0405,114.373,0.0012,114.5401,0.1661,0.1665,0.1667,0.1657,0.1666,0.1676,0.167,0.1664,0.1667,0.1668,0.1666,114.5402,115.7063,left,1.1451,,115.7065,116.074,right,0.3504,,14,0,18,116.0741,117.0739,0,8,8,8,1,prac_AB,L5_T1A_T2P,5,0,1,7,12,6,3,15,shirt,Did you see the shirt,0.17,0,resources/,pics/banjo.jpg,pics/chainsaw.jpg,pics/sailboat.jpg,pics/shipinabottle.jpg,pics/lightswitch01.jpg,pics/starfish01.jpg,pics/hen.jpg,pics/ball02.jpg,pics/bowlingpin.jpg,pics/hammerheadshark.jpg,pics/footballhelmet.jpg,pics/stapler10.jpg,pics/laptop01a.jpg,pics/cannon.jpg,pics/golfball.jpg,blankImage,blankImage,shirt02,13,0.1656,0.1671,0.1662,,,,,,,,,,,,,,,,,,,,,,,,,,,,,,,,,,,,,,,,,,,,,,,,,,,,,,,,,,,,,,,,,,,,,,,,,,,,,,,,,,,,,,,,,,,,,,,,,
,,,,,56caf7b564c068000c4d798a,6682b41eeb79ab8215dff63d,6682bac838bcaf2249106b0e,43,Female,English,2024-07-01_09h21.13.512,ABmemTask3,2023.2.3,MacIntel,57.14285714,,,,,,,,,,,,,,,,,,,,,,,,,,,,,,,117.0817,118.0735,118.0736,9,118.5728,120.0735,0.0008,120.2229,0.1499,0.1508,0.1495,0.1501,0.1493,0.1511,0.1499,0.1488,0.1509,0.1498,,120.2231,121.374,right,1.1384,,121.3741,121.7401,left,0.3601,,14,0,20,121.7402,122.7407,0,9,9,9,1,prac_AB,L1_T1P_T2P,1,1,1,7,8,6,3,11,tongs,Did you see the tongs,0.16,0,resources/,pics/sewingmachine01a.jpg,pics/shovel01.jpg,pics/football.jpg,pics/hen.jpg,pics/banjo.jpg,pics/zebra.jpg,pics/tongs01b.jpg,pics/stapler11.jpg,pics/shipinabottle.jpg,pics/match.jpg,pics/candle01.jpg,blankImage,blankImage,blankImage,blankImage,blankImage,blankImage,tongs01b,5,,,,,,,,,,,,,,,,,,,,,,,,,,,,,,,,,,,,,,,,,,,,,,,,,,,,,,,,,,,,,,,,,,,,,,,,,,,,,,,,,,,,,,,,,,,,,,,,,,,,
,,,,,56caf7b564c068000c4d798a,6682b41eeb79ab8215dff63d,6682bac838bcaf2249106b0e,43,Female,English,2024-07-01_09h21.13.512,ABmemTask3,2023.2.3,MacIntel,57.14285714,,,,,,,,,,,,,,,,,,,,,,,,,,,,,,,122.7413,123.7405,123.7405,9,124.2407,125.8911,0.001,126.0406,0.1494,0.1497,0.1494,0.1509,0.1502,0.1497,0.1502,0.1492,0.1509,0.1499,0.1502,126.0407,129.6232,left,3.5723,,129.6232,130.1909,left,0.5614,,16,0,22,130.1909,131.1903,0,10,10,10,1,prac_AB,L1_T1A_T2A,1,0,0,7,8,6,4,12,camera,Did you see the camera,0.15,0,resources/,pics/lightswitch01.jpg,pics/table01.jpg,pics/aquarium.jpg,pics/boot02b.jpg,pics/butterfly.jpg,pics/chainsaw.jpg,pics/binoculars01b.jpg,pics/giraffe.jpg,pics/triangle.jpg,pics/microscope.jpg,pics/mummy.jpg,pics/icecube01.jpg,blankImage,blankImage,blankImage,blankImage,blankImage,camera01a,10,,,,,,,,,,,,,,,,,,,,,,,,,,,,,,,,,,,,,,,,,,,,,,,,,,,,,,,,,,,,,,,,,,,,,,,,,,,,,,,,,,,,,,,,,,,,,,,,,,,,
,,,,,56caf7b564c068000c4d798a,6682b41eeb79ab8215dff63d,6682bac838bcaf2249106b0e,43,Female,English,2024-07-01_09h21.13.512,ABmemTask3,2023.2.3,MacIntel,57.14285714,,,,,,,,,,,,,,,,,,,,,,,,,,,,,,,131.1987,132.1909,132.1909,8,132.6908,133.8907,0.0009,134.0242,0.133,0.133,0.1335,0.1324,0.1341,0.1326,0.1345,0.1331,0.1329,,,134.0244,134.9575,right,0.9104,,134.9576,135.291,right,0.3157,,18,0,24,135.2911,136.2908,0,11,11,11,1,prac_AB,L1_T1P_T2P,1,1,1,6,7,5,3,10,shorts,Did you see the shorts,0.14,0,resources/,pics/snowshoe.jpg,pics/chainsaw.jpg,pics/sailboat.jpg,pics/ball02.jpg,pics/candleholder01.jpg,pics/shorts01.jpg,pics/stapler07.jpg,pics/peach01.jpg,pics/proboscismonkey.jpg,pics/hen.jpg,blankImage,blankImage,blankImage,blankImage,blankImage,blankImage,blankImage,shorts01,4,,,,,,,,,,,,,,,,,,,,,,,,,,,,,,,,,,,,,,,,,,,,,,,,,,,,,,,,,,,,,,,,,,,,,,,,,,,,,,,,,,,,,,,,,,,,,,,,,,,,
,,,,,56caf7b564c068000c4d798a,6682b41eeb79ab8215dff63d,6682bac838bcaf2249106b0e,43,Female,English,2024-07-01_09h21.13.512,ABmemTask3,2023.2.3,MacIntel,57.14285714,,,,,,,,,,,,,,,,,,,,,,,,,,,,,,,136.2915,137.29,137.29,7,137.791,139.191,0.0007,139.3074,0.1154,0.1176,0.1167,0.1164,0.1161,0.1165,0.1166,0.1172,0.1171,0.1163,0.1167,139.3075,143.4745,right,4.1588,,143.4746,144.0573,right,0.5664,,16,0,26,144.0574,145.0576,0,12,12,12,1,prac_AB,L5_T1P_T2A,5,1,0,5,10,4,3,13,fish,Did you see the fish,0.13,0,resources/,pics/football.jpg,pics/safetypin.jpg,pics/shovel01.jpg,pics/sink.jpg,pics/holdfast.jpg,pics/nutcracker01.jpg,pics/starfish01.jpg,pics/onion.jpg,pics/footballhelmet.jpg,pics/boot02b.jpg,pics/sewingmachine01a.jpg,pics/kangaroo.jpg,pics/banjo.jpg,blankImage,blankImage,blankImage,blankImage,holdfast,14,0.1168,,,,,,,,,,,,,,,,,,,,,,,,,,,,,,,,,,,,,,,,,,,,,,,,,,,,,,,,,,,,,,,,,,,,,,,,,,,,,,,,,,,,,,,,,,,,,,,,,,,
,,,,,56caf7b564c068000c4d798a,6682b41eeb79ab8215dff63d,6682bac838bcaf2249106b0e,43,Female,English,2024-07-01_09h21.13.512,ABmemTask3,2023.2.3,MacIntel,57.14285714,,,,,,,,,,,,,,,,,,,,,,,,,,,,,,,145.0698,146.0578,146.0578,7,146.5568,147.6081,0.0008,147.7244,0.1167,0.1164,0.1178,0.1165,0.1158,0.118,0.116,0.1167,0.1166,,,147.7245,149.5579,left,1.8281,,149.558,150.0572,left,0.4865,,14,0,28,150.0572,151.0569,0,13,13,13,1,prac_AB,L1_T1P_T2P,1,1,1,5,6,4,4,10,fish,Did you see the fish,0.12,0,resources/,pics/butterfly.jpg,pics/banjo.jpg,pics/leaf02a.jpg,pics/dustpan.jpg,pics/sturgeon.jpg,pics/stapler02.jpg,pics/necklace.jpg,pics/shovel01.jpg,pics/starfish01.jpg,pics/chainsaw.jpg,blankImage,blankImage,blankImage,blankImage,blankImage,blankImage,blankImage,sturgeon,3,,,,,,,,,,,,,,,,,,,,,,,,,,,,,,,,,,,,,,,,,,,,,,,,,,,,,,,,,,,,,,,,,,,,,,,,,,,,,,,,,,,,,,,,,,,,,,,,,,,,
,,,,,56caf7b564c068000c4d798a,6682b41eeb79ab8215dff63d,6682bac838bcaf2249106b0e,43,Female,English,2024-07-01_09h21.13.512,ABmemTask3,2023.2.3,MacIntel,57.14285714,,,,,,,,,,,,,,,,,,,,,,,,,,,,,,,,,,,,,,,,,,,,,,,,,,,,,,,,,,,,,,,,,,,,,,,,,,,,,,,,,,,,,,,,,,,,,,,,,,,,,,,,,,,151.058,156.6921,space,5.596,,,,,,,,,,,,,,,,,,,,,,,,,,,,,,,,,,,,,,,,,,,,,,,,,,,,,,,,,,,,,,,,,,,,,,,,,,,,,,,,,,,,,,,,,,,,,
,,,,,56caf7b564c068000c4d798a,6682b41eeb79ab8215dff63d,6682bac838bcaf2249106b0e,43,Female,English,2024-07-01_09h21.13.512,ABmemTask3,2023.2.3,MacIntel,57.14285714,,,,,,,,,,,,,,,,,,,,,,,,,,,,,,,156.707,157.7081,157.7082,14,158.2081,160.775,0.001,161.0074,0.2318,0.2341,0.233,0.2326,0.2345,0.2327,0.2335,0.2341,0.233,0.2333,0.2335,161.0074,162.1916,right,1.1616,,162.1918,162.5749,left,0.3776,,2,0,2,162.575,163.5748,0,0,0,0,1,prac_AB,L1_T1P_T2A,1,1,0,6,7,5,5,12,cat,Did you see the cat,0.25,0,resources/,pics/shipinabottle.jpg,pics/table01.jpg,pics/dustpan.jpg,pics/golfball.jpg,pics/giraffe.jpg,pics/cat.jpg,pics/peanut01.jpg,pics/pictureframe04.jpg,pics/fanblades.jpg,pics/laptop01a.jpg,pics/ball02.jpg,pics/blender.jpg,blankImage,blankImage,blankImage,blankImage,blankImage,cat,8,,,,,,,,,,,,,,,,,,,,,,,,,,,,,,,,,,,,,,,,,,,,,,,,,,,,,,,,,,,,,,,,,,,,,,,,,,,,,,,,,,,,,,,,,,,,,,,,,,,,
,,,,,56caf7b564c068000c4d798a,6682b41eeb79ab8215dff63d,6682bac838bcaf2249106b0e,43,Female,English,2024-07-01_09h21.13.512,ABmemTask3,2023.2.3,MacIntel,57.14285714,,,,,,,,,,,,,,,,,,,,,,,,,,,,,,,163.5752,164.5746,164.5746,14,165.0749,167.1748,0.0011,167.4082,0.2326,0.2334,0.2336,0.2332,0.233,0.2324,0.2335,0.2342,0.2331,,,167.4082,168.1573,right,0.7276,,168.1574,168.725,right,0.5513,,4,0,4,168.7251,169.7239,0,1,1,1,1,prac_AB,L1_T1P_T2P,1,1,1,5,6,4,4,10,tree,Did you see the tree,0.24,0,resources/,pics/carrot01.jpg,pics/hammerheadshark.jpg,pics/kangaroo.jpg,pics/proboscismonkey.jpg,pics/tree.jpg,pics/stapler07.jpg,pics/siamesecat.jpg,pics/ball02.jpg,pics/pictureframe04.jpg,pics/mummy.jpg,blankImage,blankImage,blankImage,blankImage,blankImage,blankImage,blankImage,tree,1,,,,,,,,,,,,,,,,,,,,,,,,,,,,,,,,,,,,,,,,,,,,,,,,,,,,,,,,,,,,,,,,,,,,,,,,,,,,,,,,,,,,,,,,,,,,,,,,,,,,
,,,,,56caf7b564c068000c4d798a,6682b41eeb79ab8215dff63d,6682bac838bcaf2249106b0e,43,Female,English,2024-07-01_09h21.13.512,ABmemTask3,2023.2.3,MacIntel,57.14285714,,,,,,,,,,,,,,,,,,,,,,,,,,,,,,,169.7243,170.7249,170.725,13,171.225,173.6086,0.0009,173.8251,0.2161,0.2166,0.2168,0.2167,0.2157,0.2166,0.2177,0.2156,0.2175,0.217,0.2166,173.8251,174.7577,left,0.9108,,174.7578,175.1751,right,0.4017,,6,0,6,175.1752,176.1747,0,2,2,2,1,prac_AB,L1_T1A_T2P,1,0,1,7,8,6,4,12,grapes,Did you see the grapes,0.23,0,resources/,pics/sailboat.jpg,pics/butterfly.jpg,pics/giraffe.jpg,pics/spoon01.jpg,pics/hose.jpg,pics/nutcracker01.jpg,pics/table01.jpg,pics/stapler13.jpg,pics/pencil01.jpg,pics/football.jpg,pics/triangle.jpg,pics/hairdryer02a.jpg,blankImage,blankImage,blankImage,blankImage,blankImage,grape01,6,,,,,,,,,,,,,,,,,,,,,,,,,,,,,,,,,,,,,,,,,,,,,,,,,,,,,,,,,,,,,,,,,,,,,,,,,,,,,,,,,,,,,,,,,,,,,,,,,,,,
,,,,,56caf7b564c068000c4d798a,6682b41eeb79ab8215dff63d,6682bac838bcaf2249106b0e,43,Female,English,2024-07-01_09h21.13.512,ABmemTask3,2023.2.3,MacIntel,57.14285714,,,,,,,,,,,,,,,,,,,,,,,,,,,,,,,176.1752,177.175,177.175,13,177.6745,180.7086,0.0009,180.925,0.2159,0.2165,0.2168,0.2165,0.2175,0.2159,0.2177,0.2163,0.2158,0.2176,0.2169,180.9251,181.4585,right,0.5233,,181.4586,181.7745,right,0.2998,,8,0,8,181.7746,182.7743,0,3,3,3,1,prac_AB,L5_T1P_T2P,5,1,1,7,12,6,3,15,Human skull,Did you see the Human skull,0.22,0,resources/,pics/peach01.jpg,pics/proboscismonkey.jpg,pics/hose.jpg,pics/laptop01a.jpg,pics/hammerheadshark.jpg,pics/nutcracker01.jpg,pics/humanskull.jpg,pics/table01.jpg,pics/icecube01.jpg,pics/boot02b.jpg,pics/calendar.jpg,pics/stapler03a.jpg,pics/ashtray01.jpg,pics/giraffe.jpg,pics/dromedary.jpg,blankImage,blankImage,humanskull,12,0.216,0.2171,0.2168,,,,,,,,,,,,,,,,,,,,,,,,,,,,,,,,,,,,,,,,,,,,,,,,,,,,,,,,,,,,,,,,,,,,,,,,,,,,,,,,,,,,,,,,,,,,,,,,,
,,,,,56caf7b564c068000c4d798a,6682b41eeb79ab8215dff63d,6682bac838bcaf2249106b0e,43,Female,English,2024-07-01_09h21.13.512,ABmemTask3,2023.2.3,MacIntel,57.14285714,,,,,,,,,,,,,,,,,,,,,,,,,,,,,,,182.7747,183.7742,183.7743,12,184.2747,186.2743,0.0006,186.474,0.199,0.2011,0.2002,0.2001,0.1999,0.1991,0.2008,0.1999,0.2003,0.1989,,186.4741,187.542,left,1.0581,,187.5421,187.9083,right,0.3525,,10,0,10,187.9083,188.9073,0,4,4,4,1,prac_AB,L1_T1A_T2P,1,0,1,7,8,6,3,11,dog,Did you see the dog,0.21,0,resources/,pics/ball02.jpg,pics/binder03b.jpg,pics/dromedary.jpg,pics/shipinabottle.jpg,pics/proboscismonkey.jpg,pics/laptop01a.jpg,pics/chainsaw.jpg,pics/stapler13.jpg,pics/nutcracker01.jpg,pics/carrot01.jpg,pics/calendar.jpg,blankImage,blankImage,blankImage,blankImage,blankImage,blankImage,saintbernard,7,,,,,,,,,,,,,,,,,,,,,,,,,,,,,,,,,,,,,,,,,,,,,,,,,,,,,,,,,,,,,,,,,,,,,,,,,,,,,,,,,,,,,,,,,,,,,,,,,,,,
,,,,,56caf7b564c068000c4d798a,6682b41eeb79ab8215dff63d,6682bac838bcaf2249106b0e,43,Female,English,2024-07-01_09h21.13.512,ABmemTask3,2023.2.3,MacIntel,57.14285714,,,,,,,,,,,,,,,,,,,,,,,,,,,,,,,188.9148,189.9084,189.9085,11,190.408,192.9754,0.0009,193.1575,0.1823,0.1846,0.1833,0.1834,0.1831,0.1834,0.1829,0.1837,0.1827,0.184,0.1835,193.1575,193.6586,right,0.4895,,193.6587,193.9419,right,0.2776,,12,0,12,193.942,194.9411,0,5,5,5,1,prac_AB,L5_T1P_T2P,5,1,1,5,10,4,5,15,grater,Did you see the grater,0.2,0,resources/,pics/pencil01.jpg,pics/laptop01a.jpg,pics/hammerheadshark.jpg,pics/cork02.jpg,pics/grater01a.jpg,pics/shipinabottle.jpg,pics/binder03b.jpg,pics/dromedary.jpg,pics/pictureframe04.jpg,pics/stapler04b.jpg,pics/fanblades.jpg,pics/aquarium.jpg,pics/hairdryer02a.jpg,pics/lightswitch01.jpg,pics/piggybank.jpg,blankImage,blankImage,grater01a,11,0.1833,0.1819,0.1846,,,,,,,,,,,,,,,,,,,,,,,,,,,,,,,,,,,,,,,,,,,,,,,,,,,,,,,,,,,,,,,,,,,,,,,,,,,,,,,,,,,,,,,,,,,,,,,,,
,,,,,56caf7b564c068000c4d798a,6682b41eeb79ab8215dff63d,6682bac838bcaf2249106b0e,43,Female,English,2024-07-01_09h21.13.512,ABmemTask3,2023.2.3,MacIntel,57.14285714,,,,,,,,,,,,,,,,,,,,,,,,,,,,,,,194.9415,195.9419,195.942,11,196.4419,197.9078,0.0012,198.091,0.1819,0.1839,0.1824,0.1846,0.1822,0.1846,0.182,0.1834,,,,198.0911,199.1748,right,1.0626,,199.1749,199.492,left,0.3116,,14,0,14,199.4921,200.492,0,6,6,6,1,prac_AB,L1_T1P_T2A,1,1,0,4,5,3,4,9,chalk,Did you see the chalk,0.19,0,resources/,pics/necklace.jpg,pics/starfish01.jpg,pics/safetypin.jpg,pics/chalk.jpg,pics/candleholder01.jpg,pics/bowtie.jpg,pics/match.jpg,pics/candle01.jpg,pics/pencilsharpener02a.jpg,blankImage,blankImage,blankImage,blankImage,blankImage,blankImage,blankImage,blankImage,chalk,9,,,,,,,,,,,,,,,,,,,,,,,,,,,,,,,,,,,,,,,,,,,,,,,,,,,,,,,,,,,,,,,,,,,,,,,,,,,,,,,,,,,,,,,,,,,,,,,,,,,,
,,,,,56caf7b564c068000c4d798a,6682b41eeb79ab8215dff63d,6682bac838bcaf2249106b0e,43,Female,English,2024-07-01_09h21.13.512,ABmemTask3,2023.2.3,MacIntel,57.14285714,,,,,,,,,,,,,,,,,,,,,,,,,,,,,,,200.4924,201.492,201.4921,10,201.991,203.4921,0.0008,203.6581,0.1675,0.1665,0.1656,0.1676,0.1663,0.1664,0.1665,0.1675,0.1665,,,203.6581,204.2087,right,0.5313,,204.2087,204.4423,right,0.2169,,16,0,16,204.4423,205.4412,0,7,7,7,1,prac_AB,L1_T1P_T2P,1,1,1,5,6,4,4,10,pants,Did you see the pants,0.18,0,resources/,pics/kangaroo.jpg,pics/safetypin.jpg,pics/salmon.jpg,pics/sandbarshark.jpg,pics/pants.jpg,pics/stapler03a.jpg,pics/sink.jpg,pics/calendar.jpg,pics/butterfly.jpg,pics/fanblades.jpg,blankImage,blankImage,blankImage,blankImage,blankImage,blankImage,blankImage,pants,2,,,,,,,,,,,,,,,,,,,,,,,,,,,,,,,,,,,,,,,,,,,,,,,,,,,,,,,,,,,,,,,,,,,,,,,,,,,,,,,,,,,,,,,,,,,,,,,,,,,,
,,,,,56caf7b564c068000c4d798a,6682b41eeb79ab8215dff63d,6682bac838bcaf2249106b0e,43,Female,English,2024-07-01_09h21.13.512,ABmemTask3,2023.2.3,MacIntel,57.14285714,,,,,,,,,,,,,,,,,,,,,,,,,,,,,,,205.4415,206.4422,206.4422,10,206.9423,209.2744,0.001,209.4411,0.1659,0.1659,0.1665,0.1669,0.1675,0.167,0.1662,0.1666,0.1664,0.1662,0.1674,209.4411,210.7921,left,1.3353,,210.7921,211.0912,right,0.2946,,18,0,18,211.0913,212.0922,0,8,8,8,1,prac_AB,L5_T1A_T2P,5,0,1,7,12,6,3,15,shirt,Did you see the shirt,0.17,0,resources/,pics/banjo.jpg,pics/chainsaw.jpg,pics/sailboat.jpg,pics/shipinabottle.jpg,pics/lightswitch01.jpg,pics/starfish01.jpg,pics/hen.jpg,pics/ball02.jpg,pics/bowlingpin.jpg,pics/hammerheadshark.jpg,pics/footballhelmet.jpg,pics/stapler10.jpg,pics/laptop01a.jpg,pics/cannon.jpg,pics/golfball.jpg,blankImage,blankImage,shirt02,13,0.1657,0.1677,0.1651,,,,,,,,,,,,,,,,,,,,,,,,,,,,,,,,,,,,,,,,,,,,,,,,,,,,,,,,,,,,,,,,,,,,,,,,,,,,,,,,,,,,,,,,,,,,,,,,,
,,,,,56caf7b564c068000c4d798a,6682b41eeb79ab8215dff63d,6682bac838bcaf2249106b0e,43,Female,English,2024-07-01_09h21.13.512,ABmemTask3,2023.2.3,MacIntel,57.14285714,,,,,,,,,,,,,,,,,,,,,,,,,,,,,,,212.0927,213.0913,213.0913,9,213.592,215.0913,0.0007,215.2422,0.1501,0.1494,0.1491,0.1506,0.1507,0.15,0.1489,0.1508,0.1493,0.1498,,215.2424,216.259,right,1.005,,216.259,216.5751,left,0.3105,,18,0,20,216.5752,217.5757,0,9,9,9,1,prac_AB,L1_T1P_T2P,1,1,1,7,8,6,3,11,tongs,Did you see the tongs,0.16,0,resources/,pics/sewingmachine01a.jpg,pics/shovel01.jpg,pics/football.jpg,pics/hen.jpg,pics/banjo.jpg,pics/zebra.jpg,pics/tongs01b.jpg,pics/stapler11.jpg,pics/shipinabottle.jpg,pics/match.jpg,pics/candle01.jpg,blankImage,blankImage,blankImage,blankImage,blankImage,blankImage,tongs01b,5,,,,,,,,,,,,,,,,,,,,,,,,,,,,,,,,,,,,,,,,,,,,,,,,,,,,,,,,,,,,,,,,,,,,,,,,,,,,,,,,,,,,,,,,,,,,,,,,,,,,
,,,,,56caf7b564c068000c4d798a,6682b41eeb79ab8215dff63d,6682bac838bcaf2249106b0e,43,Female,English,2024-07-01_09h21.13.512,ABmemTask3,2023.2.3,MacIntel,57.14285714,,,,,,,,,,,,,,,,,,,,,,,,,,,,,,,217.576,218.5757,218.5757,9,219.0744,220.7259,0.0005,220.8757,0.1509,0.1493,0.15,0.1499,0.15,0.1501,0.1511,0.15,0.15,0.1491,0.1508,220.8758,222.5091,left,1.6138,,222.5092,222.9426,right,0.425,,16,0,22,222.9427,223.9424,0,10,10,10,1,prac_AB,L1_T1A_T2A,1,0,0,7,8,6,4,12,camera,Did you see the camera,0.15,0,resources/,pics/lightswitch01.jpg,pics/table01.jpg,pics/aquarium.jpg,pics/boot02b.jpg,pics/butterfly.jpg,pics/chainsaw.jpg,pics/binoculars01b.jpg,pics/giraffe.jpg,pics/triangle.jpg,pics/microscope.jpg,pics/mummy.jpg,pics/icecube01.jpg,blankImage,blankImage,blankImage,blankImage,blankImage,camera01a,10,,,,,,,,,,,,,,,,,,,,,,,,,,,,,,,,,,,,,,,,,,,,,,,,,,,,,,,,,,,,,,,,,,,,,,,,,,,,,,,,,,,,,,,,,,,,,,,,,,,,
,,,,,56caf7b564c068000c4d798a,6682b41eeb79ab8215dff63d,6682bac838bcaf2249106b0e,43,Female,English,2024-07-01_09h21.13.512,ABmemTask3,2023.2.3,MacIntel,57.14285714,,,,,,,,,,,,,,,,,,,,,,,,,,,,,,,223.954,224.9424,224.9424,8,225.4424,226.6417,0.0009,226.7759,0.1331,0.1323,0.1334,0.1333,0.1332,0.1343,0.1331,0.1334,0.1324,,,226.776,227.6592,right,0.8685,,227.6593,227.8593,right,0.1957,,18,0,24,227.8594,228.8591,0,11,11,11,1,prac_AB,L1_T1P_T2P,1,1,1,6,7,5,3,10,shorts,Did you see the shorts,0.14,0,resources/,pics/snowshoe.jpg,pics/chainsaw.jpg,pics/sailboat.jpg,pics/ball02.jpg,pics/candleholder01.jpg,pics/shorts01.jpg,pics/stapler07.jpg,pics/peach01.jpg,pics/proboscismonkey.jpg,pics/hen.jpg,blankImage,blankImage,blankImage,blankImage,blankImage,blankImage,blankImage,shorts01,4,,,,,,,,,,,,,,,,,,,,,,,,,,,,,,,,,,,,,,,,,,,,,,,,,,,,,,,,,,,,,,,,,,,,,,,,,,,,,,,,,,,,,,,,,,,,,,,,,,,,
,,,,,56caf7b564c068000c4d798a,6682b41eeb79ab8215dff63d,6682bac838bcaf2249106b0e,43,Female,English,2024-07-01_09h21.13.512,ABmemTask3,2023.2.3,MacIntel,57.14285714,,,,,,,,,,,,,,,,,,,,,,,,,,,,,,,228.8671,229.8588,229.8588,7,230.3589,231.7585,0.0009,231.8759,0.116,0.1173,0.1167,0.116,0.1173,0.1155,0.1179,0.1166,0.116,0.1164,0.1175,231.8759,232.8417,right,0.9432,,232.8417,233.3086,left,0.4547,,20,0,26,233.3086,234.3083,0,12,12,12,1,prac_AB,L5_T1P_T2A,5,1,0,5,10,4,3,13,fish,Did you see the fish,0.13,0,resources/,pics/football.jpg,pics/safetypin.jpg,pics/shovel01.jpg,pics/sink.jpg,pics/holdfast.jpg,pics/nutcracker01.jpg,pics/starfish01.jpg,pics/onion.jpg,pics/footballhelmet.jpg,pics/boot02b.jpg,pics/sewingmachine01a.jpg,pics/kangaroo.jpg,pics/banjo.jpg,blankImage,blankImage,blankImage,blankImage,holdfast,14,0.1156,,,,,,,,,,,,,,,,,,,,,,,,,,,,,,,,,,,,,,,,,,,,,,,,,,,,,,,,,,,,,,,,,,,,,,,,,,,,,,,,,,,,,,,,,,,,,,,,,,,
,,,,,56caf7b564c068000c4d798a,6682b41eeb79ab8215dff63d,6682bac838bcaf2249106b0e,43,Female,English,2024-07-01_09h21.13.512,ABmemTask3,2023.2.3,MacIntel,57.14285714,,,,,,,,,,,,,,,,,,,,,,,,,,,,,,,234.3088,235.3089,235.3089,7,235.808,236.859,0.0005,236.9749,0.1169,0.1166,0.1178,0.1161,0.1163,0.1166,0.1177,0.1162,0.1165,,,236.9751,238.6751,right,1.689,,238.6752,239.0593,left,0.3685,,20,0,28,239.0593,240.0594,0,13,13,13,1,prac_AB,L1_T1P_T2P,1,1,1,5,6,4,4,10,fish,Did you see the fish,0.12,0,resources/,pics/butterfly.jpg,pics/banjo.jpg,pics/leaf02a.jpg,pics/dustpan.jpg,pics/sturgeon.jpg,pics/stapler02.jpg,pics/necklace.jpg,pics/shovel01.jpg,pics/starfish01.jpg,pics/chainsaw.jpg,blankImage,blankImage,blankImage,blankImage,blankImage,blankImage,blankImage,sturgeon,3,,,,,,,,,,,,,,,,,,,,,,,,,,,,,,,,,,,,,,,,,,,,,,,,,,,,,,,,,,,,,,,,,,,,,,,,,,,,,,,,,,,,,,,,,,,,,,,,,,,,
,,,,,56caf7b564c068000c4d798a,6682b41eeb79ab8215dff63d,6682bac838bcaf2249106b0e,43,Female,English,2024-07-01_09h21.13.512,ABmemTask3,2023.2.3,MacIntel,57.14285714,,,,,,,,,,,,,,,,,,,,,,,,,,,,,,,,,,,,,,,,,,,,,,,,,,,,,,,,,,,,,,,,,,,,,,,,,,,,,,,,,,,,,,,,,,,,,,,,,,,,,,,,,,,240.0596,242.1428,space,2.0608,,,,,,,,,,,,,,,,,,,,,,,,,,,,,,,,,,,,,,,,,,,,,,,,,,,,,,,,,,,,,,,,,,,,,,,,,,,,,,,,,,,,,,,,,,,,,
,,,,,56caf7b564c068000c4d798a,6682b41eeb79ab8215dff63d,6682bac838bcaf2249106b0e,43,Female,English,2024-07-01_09h21.13.512,ABmemTask3,2023.2.3,MacIntel,57.14285714,,,,,,,,,,,,,,,,,,,,,,,,,,,,,,,,,,,,,,,,,,,,,,,,,,,,,,,,,,,,,,,,,,,,,,,,,,,,,,,,,,,,,,,,,,,,,,,,,,,,,,,,,,,242.1555,242.158,,,,,,,,,,,,,,,,,,,,,,,,,,,,,,,,,,,,,,,,,,,,,,,,,,,,,,,,,,,,,,,,,,,,,,,,,,,,,,,,,,,,,,,,,,,,,,,
,,,,,56caf7b564c068000c4d798a,6682b41eeb79ab8215dff63d,6682bac838bcaf2249106b0e,43,Female,English,2024-07-01_09h21.13.512,ABmemTask3,2023.2.3,MacIntel,57.14285714,,,,,,,,,,,,,,,,,,,,,,,,,,,,,,,,,,,,,,,,,,,,,,,,,,,,,,,,,,,,,,,,,,,,,,,,,,,,,,,,,,,,,,,,,,,,,,,,,,,,,,,,,,,242.1601,242.1601,,,,,,,,,,,,,,,,,,,,,,,,,,,,,,,,,,,,,,,,,,,,,,,,,,,,,,,,,,,,,,,,,,,,,,,,,,,,,,,,,,,,,,,,,,,,,,,
,,,,,56caf7b564c068000c4d798a,6682b41eeb79ab8215dff63d,6682bac838bcaf2249106b0e,43,Female,English,2024-07-01_09h21.13.512,ABmemTask3,2023.2.3,MacIntel,57.14285714,,,,,,,,,,,,,,,,,,,,,,,,,,,,,,,,,,,,,,,,,,,,,,,,,,,,,,,,,,,,,,,,,,,,,,,,,,,,,,,,,,,,,,,,,,,,,,,,,,,,,,,,,,,242.1624,242.1624,,,,,,,,,,,,,,,,,,,,,,,,,,,,,,,,,,,,,,,,,,,,,,,,,,,,,,,,,,,,,,,,,,,,,,,,,,,,,,,,,,,,,,,,,,,,,,,
,,,,,56caf7b564c068000c4d798a,6682b41eeb79ab8215dff63d,6682bac838bcaf2249106b0e,43,Female,English,2024-07-01_09h21.13.512,ABmemTask3,2023.2.3,MacIntel,57.14285714,,,,,,,,,,,,,,,,,,,,,,,,,,,,,,,,,,,,,,,,,,,,,,,,,,,,,,,,,,,,,,,,,,,,,,,,,,,,,,,,,,,,,,,,,,,,,,,,,,,,,,,,,,,242.1638,242.1639,,,,,,,,,,,,,,,,,,,,,,,,,,,,,,,,,,,,,,,,,,,,,,,,,,,,,,,,,,,,,,,,,,,,,,,,,,,,,,,,,,,,,,,,,,,,,,,
,,,,,56caf7b564c068000c4d798a,6682b41eeb79ab8215dff63d,6682bac838bcaf2249106b0e,43,Female,English,2024-07-01_09h21.13.512,ABmemTask3,2023.2.3,MacIntel,57.14285714,,,,,,,,,,,,,,,,,,,,,,,,,,,,,,,,,,,,,,,,,,,,,,,,,,,,,,,,,,,,,,,,,,,,,,,,,,,,,,,,,,,,,,,,,,,,,,,,,,,,,,,,,,,242.1649,242.165,,,,,,,,,,,,,,,,,,,,,,,,,,,,,,,,,,,,,,,,,,,,,,,,,,,,,,,,,,,,,,,,,,,,,,,,,,,,,,,,,,,,,,,,,,,,,,,
,,,,,56caf7b564c068000c4d798a,6682b41eeb79ab8215dff63d,6682bac838bcaf2249106b0e,43,Female,English,2024-07-01_09h21.13.512,ABmemTask3,2023.2.3,MacIntel,57.14285714,,,,,,,,,,,,,,,,,,,,,,,,,,,,,,,,,,,,,,,,,,,,,,,,,,,,,,,,,,,,,,,,,,,,,,,,,,,,,,,,,,,,,,,,,,,,,,,,,,,,,,,,,,,242.166,242.1661,,,,,,,,,,,,,,,,,,,,,,,,,,,,,,,,,,,,,,,,,,,,,,,,,,,,,,,,,,,,,,,,,,,,,,,,,,,,,,,,,,,,,,,,,,,,,,,
,,,,,56caf7b564c068000c4d798a,6682b41eeb79ab8215dff63d,6682bac838bcaf2249106b0e,43,Female,English,2024-07-01_09h21.13.512,ABmemTask3,2023.2.3,MacIntel,57.14285714,,,,,,,,,,,,,,,,,,,,,,,,,,,,,,,,,,,,,,,,,,,,,,,,,,,,,,,,,,,,,,,,,,,,,,,,,,,,,,,,,,,,,,,,,,,,,,,,,,,,,,,,,,,242.1677,242.1677,,,,,,,,,,,,,,,,,,,,,,,,,,,,,,,,,,,,,,,,,,,,,,,,,,,,,,,,,,,,,,,,,,,,,,,,,,,,,,,,,,,,,,,,,,,,,,,
,,,,,56caf7b564c068000c4d798a,6682b41eeb79ab8215dff63d,6682bac838bcaf2249106b0e,43,Female,English,2024-07-01_09h21.13.512,ABmemTask3,2023.2.3,MacIntel,57.14285714,,,,,,,,,,,,,,,,,,,,,,,,,,,,,,,,,,,,,,,,,,,,,,,,,,,,,,,,,,,,,,,,,,,,,,,,,,,,,,,,,,,,,,,,,,,,,,,,,,,,,,,,,,,242.1687,242.1687,,,,,,,,,,,,,,,,,,,,,,,,,,,,,,,,,,,,,,,,,,,,,,,,,,,,,,,,,,,,,,,,,,,,,,,,,,,,,,,,,,,,,,,,,,,,,,,
,,,,,56caf7b564c068000c4d798a,6682b41eeb79ab8215dff63d,6682bac838bcaf2249106b0e,43,Female,English,2024-07-01_09h21.13.512,ABmemTask3,2023.2.3,MacIntel,57.14285714,,,,,,,,,,,,,,,,,,,,,,,,,,,,,,,,,,,,,,,,,,,,,,,,,,,,,,,,,,,,,,,,,,,,,,,,,,,,,,,,,,,,,,,,,,,,,,,,,,,,,,,,,,,242.1697,242.1698,,,,,,,,,,,,,,,,,,,,,,,,,,,,,,,,,,,,,,,,,,,,,,,,,,,,,,,,,,,,,,,,,,,,,,,,,,,,,,,,,,,,,,,,,,,,,,,
,,,,,56caf7b564c068000c4d798a,6682b41eeb79ab8215dff63d,6682bac838bcaf2249106b0e,43,Female,English,2024-07-01_09h21.13.512,ABmemTask3,2023.2.3,MacIntel,57.14285714,,,,,,,,,,,,,,,,,,,,,,,,,,,,,,,,,,,,,,,,,,,,,,,,,,,,,,,,,,,,,,,,,,,,,,,,,,,,,,,,,,,,,,,,,,,,,,,,,,,,,,,,,,,242.1713,242.1713,,,,,,,,,,,,,,,,,,,,,,,,,,,,,,,,,,,,,,,,,,,,,,,,,,,,,,,,,,,,,,,,,,,,,,,,,,,,,,,,,,,,,,,,,,,,,,,
,,,,,56caf7b564c068000c4d798a,6682b41eeb79ab8215dff63d,6682bac838bcaf2249106b0e,43,Female,English,2024-07-01_09h21.13.512,ABmemTask3,2023.2.3,MacIntel,57.14285714,,,,,,,,,,,,,,,,,,,,,,,,,,,,,,,,,,,,,,,,,,,,,,,,,,,,,,,,,,,,,,,,,,,,,,,,,,,,,,,,,,,,,,,,,,,,,,,,,,,,,,,,,,,242.1724,242.1724,,,,,,,,,,,,,,,,,,,,,,,,,,,,,,,,,,,,,,,,,,,,,,,,,,,,,,,,,,,,,,,,,,,,,,,,,,,,,,,,,,,,,,,,,,,,,,,
,,,,,56caf7b564c068000c4d798a,6682b41eeb79ab8215dff63d,6682bac838bcaf2249106b0e,43,Female,English,2024-07-01_09h21.13.512,ABmemTask3,2023.2.3,MacIntel,57.14285714,,,,,,,,,,,,,,,,,,,,,,,,,,,,,,,,,,,,,,,,,,,,,,,,,,,,,,,,,,,,,,,,,,,,,,,,,,,,,,,,,,,,,,,,,,,,,,,,,,,,,,,,,,,242.1735,242.1735,,,,,,,,,,,,,,,,,,,,,,,,,,,,,,,,,,,,,,,,,,,,,,,,,,,,,,,,,,,,,,,,,,,,,,,,,,,,,,,,,,,,,,,,,,,,,,,
,,,,,56caf7b564c068000c4d798a,6682b41eeb79ab8215dff63d,6682bac838bcaf2249106b0e,43,Female,English,2024-07-01_09h21.13.512,ABmemTask3,2023.2.3,MacIntel,57.14285714,,,,,,,,,,,,,,,,,,,,,,,,,,,,,,,,,,,,,,,,,,,,,,,,,,,,,,,,,,,,,,,,,,,,,,,,,,,,,,,,,,,,,,,,,,,,,,,,,,,,,,,,,,,242.1745,242.1745,,,,,,,,,,,,,,,,,,,,,,,,,,,,,,,,,,,,,,,,,,,,,,,,,,,,,,,,,,,,,,,,,,,,,,,,,,,,,,,,,,,,,,,,,,,,,,,
,,,,,56caf7b564c068000c4d798a,6682b41eeb79ab8215dff63d,6682bac838bcaf2249106b0e,43,Female,English,2024-07-01_09h21.13.512,ABmemTask3,2023.2.3,MacIntel,57.14285714,,,,,,,,,,,,,,,,,,,,,,,,,,,,,,,,,,,,,,,,,,,,,,,,,,,,,,,,,,,,,,,,,,,,,,,,,,,,,,,,,,,,,,,,,,,,,,,,,,,,,,,,,,,242.176,242.1761,,,,,,,,,,,,,,,,,,,,,,,,,,,,,,,,,,,,,,,,,,,,,,,,,,,,,,,,,,,,,,,,,,,,,,,,,,,,,,,,,,,,,,,,,,,,,,,
,,,,,56caf7b564c068000c4d798a,6682b41eeb79ab8215dff63d,6682bac838bcaf2249106b0e,43,Female,English,2024-07-01_09h21.13.512,ABmemTask3,2023.2.3,MacIntel,57.14285714,,,,,,,,,,,,,,,,,,,,,,,,,,,,,,,,,,,,,,,,,,,,,,,,,,,,,,,,,,,,,,,,,,,,,,,,,,,,,,,,,,,,,,,,,,,,,,,,,,,,,,,,,,,242.1769,242.177,,,,,,,,,,,,,,,,,,,,,,,,,,,,,,,,,,,,,,,,,,,,,,,,,,,,,,,,,,,,,,,,,,,,,,,,,,,,,,,,,,,,,,,,,,,,,,,
,,,,,56caf7b564c068000c4d798a,6682b41eeb79ab8215dff63d,6682bac838bcaf2249106b0e,43,Female,English,2024-07-01_09h21.13.512,ABmemTask3,2023.2.3,MacIntel,57.14285714,,,,,,,,,,,,,,,,,,,,,,,,,,,,,,,,,,,,,,,,,,,,,,,,,,,,,,,,,,,,,,,,,,,,,,,,,,,,,,,,,,,,,,,,,,,,,,,,,,,,,,,,,,,242.1779,242.178,,,,,,,,,,,,,,,,,,,,,,,,,,,,,,,,,,,,,,,,,,,,,,,,,,,,,,,,,,,,,,,,,,,,,,,,,,,,,,,,,,,,,,,,,,,,,,,
,,,,,56caf7b564c068000c4d798a,6682b41eeb79ab8215dff63d,6682bac838bcaf2249106b0e,43,Female,English,2024-07-01_09h21.13.512,ABmemTask3,2023.2.3,MacIntel,57.14285714,,,,,,,,,,,,,,,,,,,,,,,,,,,,,,,,,,,,,,,,,,,,,,,,,,,,,,,,,,,,,,,,,,,,,,,,,,,,,,,,,,,,,,,,,,,,,,,,,,,,,,,,,,,242.1788,242.1788,,,,,,,,,,,,,,,,,,,,,,,,,,,,,,,,,,,,,,,,,,,,,,,,,,,,,,,,,,,,,,,,,,,,,,,,,,,,,,,,,,,,,,,,,,,,,,,
,,,,,56caf7b564c068000c4d798a,6682b41eeb79ab8215dff63d,6682bac838bcaf2249106b0e,43,Female,English,2024-07-01_09h21.13.512,ABmemTask3,2023.2.3,MacIntel,57.14285714,,,,,,,,,,,,,,,,,,,,,,,,,,,,,,,,,,,,,,,,,,,,,,,,,,,,,,,,,,,,,,,,,,,,,,,,,,,,,,,,,,,,,,,,,,,,,,,,,,,,,,,,,,,242.18,242.18,,,,,,,,,,,,,,,,,,,,,,,,,,,,,,,,,,,,,,,,,,,,,,,,,,,,,,,,,,,,,,,,,,,,,,,,,,,,,,,,,,,,,,,,,,,,,,,
,,,,,56caf7b564c068000c4d798a,6682b41eeb79ab8215dff63d,6682bac838bcaf2249106b0e,43,Female,English,2024-07-01_09h21.13.512,ABmemTask3,2023.2.3,MacIntel,57.14285714,,,,,,,,,,,,,,,,,,,,,,,,,,,,,,,,,,,,,,,,,,,,,,,,,,,,,,,,,,,,,,,,,,,,,,,,,,,,,,,,,,,,,,,,,,,,,,,,,,,,,,,,,,,242.181,242.181,,,,,,,,,,,,,,,,,,,,,,,,,,,,,,,,,,,,,,,,,,,,,,,,,,,,,,,,,,,,,,,,,,,,,,,,,,,,,,,,,,,,,,,,,,,,,,,
,,,,,56caf7b564c068000c4d798a,6682b41eeb79ab8215dff63d,6682bac838bcaf2249106b0e,43,Female,English,2024-07-01_09h21.13.512,ABmemTask3,2023.2.3,MacIntel,57.14285714,,,,,,,,,,,,,,,,,,,,,,,,,,,,,,,,,,,,,,,,,,,,,,,,,,,,,,,,,,,,,,,,,,,,,,,,,,,,,,,,,,,,,,,,,,,,,,,,,,,,,,,,,,,242.1818,242.1818,,,,,,,,,,,,,,,,,,,,,,,,,,,,,,,,,,,,,,,,,,,,,,,,,,,,,,,,,,,,,,,,,,,,,,,,,,,,,,,,,,,,,,,,,,,,,,,
,,,,,56caf7b564c068000c4d798a,6682b41eeb79ab8215dff63d,6682bac838bcaf2249106b0e,43,Female,English,2024-07-01_09h21.13.512,ABmemTask3,2023.2.3,MacIntel,57.14285714,,,,,,,,,,,,,,,,,,,,,,,,,,,,,,,,,,,,,,,,,,,,,,,,,,,,,,,,,,,,,,,,,,,,,,,,,,,,,,,,,,,,,,,,,,,,,,,,,,,,,,,,,,,,,,,,242.1825,259.0936,space,16.8852,,,,,,,,,,,,,,,,,,,,,,,,,,,,,,,,,,,,,,,,,,,,,,,,,,,,,,,,,,,,,,,,,,,,,,,,,,,,,,,,,,,,,,,,
,,,,,56caf7b564c068000c4d798a,6682b41eeb79ab8215dff63d,6682bac838bcaf2249106b0e,43,Female,English,2024-07-01_09h21.13.512,ABmemTask3,2023.2.3,MacIntel,57.14285714,,,,,,,,,,,,,,,,,,,,,,,,,,,,,,,,,259.1075,571,259.6097,,,,,,,,,,,,,,,,,,,,,,,,,,0,,,,,,,,,prac_MEM,old,,,,,,,,,,,10,,,,,,,,,,,,,,,,,,,,,,,,,,,,,,,,,,,259.61,266.1271,1,4,6.4996,,266.128,267.1267,0,0,0,2,1,3,1,pics/sturgeon.jpg,,,,,,,,,,,,,,,,,,,,,,,,,,,,,,,,,,,,,,,,,,,,,,,,,,,,,,,,,,,,,,,,,,,,,,,
,,,,,56caf7b564c068000c4d798a,6682b41eeb79ab8215dff63d,6682bac838bcaf2249106b0e,43,Female,English,2024-07-01_09h21.13.512,ABmemTask3,2023.2.3,MacIntel,57.14285714,,,,,,,,,,,,,,,,,,,,,,,,,,,,,,,,,267.1348,571,267.6266,,,,,,,,,,,,,,,,,,,,,,,,,,0,,,,,,,,,prac_MEM,old,,,,,,,,,,,10,,,,,,,,,,,,,,,,,,,,,,,,,,,,,,,,,,,267.6266,269.8767,4,6,2.2319,,269.8769,270.8767,0,1,1,3,1,4,1,pics/shorts01.jpg,,,,,,,,,,,,,,,,,,,,,,,,,,,,,,,,,,,,,,,,,,,,,,,,,,,,,,,,,,,,,,,,,,,,,,,
,,,,,56caf7b564c068000c4d798a,6682b41eeb79ab8215dff63d,6682bac838bcaf2249106b0e,43,Female,English,2024-07-01_09h21.13.512,ABmemTask3,2023.2.3,MacIntel,57.14285714,,,,,,,,,,,,,,,,,,,,,,,,,,,,,,,,,270.877,571,271.3767,,,,,,,,,,,,,,,,,,,,,,,,,,0,,,,,,,,,prac_MEM,old,,,,,,,,,,,10,,,,,,,,,,,,,,,,,,,,,,,,,,,,,,,,,,,271.3767,272.4767,7,6,1.0819,,272.4769,273.4767,0,2,2,4,1,5,1,pics/tongs01b.jpg,,,,,,,,,,,,,,,,,,,,,,,,,,,,,,,,,,,,,,,,,,,,,,,,,,,,,,,,,,,,,,,,,,,,,,,
,,,,,56caf7b564c068000c4d798a,6682b41eeb79ab8215dff63d,6682bac838bcaf2249106b0e,43,Female,English,2024-07-01_09h21.13.512,ABmemTask3,2023.2.3,MacIntel,57.14285714,,,,,,,,,,,,,,,,,,,,,,,,,,,,,,,,,273.4772,571,273.9767,,,,,,,,,,,,,,,,,,,,,,,,,,0,,,,,,,,,prac_MEM,new,,,,,,,,,,,10,,,,,,,,,,,,,,,,,,,,,,,,,,,,,,,,,,,273.9767,276.1934,9,2,2.1954,,276.1939,277.1933,0,3,3,7,1,999,999,pics/cherry01.jpg,,,,,,,,,,,,,,,,,,,,,,,,,,,,,,,,,,,,,,,,,,,,,,,,,,,,,,,,,,,,,,,,,,,,,,,
,,,,,56caf7b564c068000c4d798a,6682b41eeb79ab8215dff63d,6682bac838bcaf2249106b0e,43,Female,English,2024-07-01_09h21.13.512,ABmemTask3,2023.2.3,MacIntel,57.14285714,,,,,,,,,,,,,,,,,,,,,,,,,,,,,,,,,277.2017,571,277.6927,,,,,,,,,,,,,,,,,,,,,,,,,,0,,,,,,,,,prac_MEM,old,,,,,,,,,,,10,,,,,,,,,,,,,,,,,,,,,,,,,,,,,,,,,,,277.6927,279.4934,12,6,1.7844,,279.4939,280.4934,0,4,4,5,1,11,5,pics/grater01a.jpg,,,,,,,,,,,,,,,,,,,,,,,,,,,,,,,,,,,,,,,,,,,,,,,,,,,,,,,,,,,,,,,,,,,,,,,
,,,,,56caf7b564c068000c4d798a,6682b41eeb79ab8215dff63d,6682bac838bcaf2249106b0e,43,Female,English,2024-07-01_09h21.13.512,ABmemTask3,2023.2.3,MacIntel,57.14285714,,,,,,,,,,,,,,,,,,,,,,,,,,,,,,,,,280.4937,571,280.9924,,,,,,,,,,,,,,,,,,,,,,,,,,0,,,,,,,,,prac_MEM,old,,,,,,,,,,,10,,,,,,,,,,,,,,,,,,,,,,,,,,,,,,,,,,,280.9924,281.8935,15,6,0.8853,,281.8937,282.8935,0,5,5,0,1,1,1,pics/tree.jpg,,,,,,,,,,,,,,,,,,,,,,,,,,,,,,,,,,,,,,,,,,,,,,,,,,,,,,,,,,,,,,,,,,,,,,,
,,,,,56caf7b564c068000c4d798a,6682b41eeb79ab8215dff63d,6682bac838bcaf2249106b0e,43,Female,English,2024-07-01_09h21.13.512,ABmemTask3,2023.2.3,MacIntel,57.14285714,,,,,,,,,,,,,,,,,,,,,,,,,,,,,,,,,282.8939,571,283.3935,,,,,,,,,,,,,,,,,,,,,,,,,,0,,,,,,,,,prac_MEM,new,,,,,,,,,,,10,,,,,,,,,,,,,,,,,,,,,,,,,,,,,,,,,,,283.3936,286.2269,14,4,2.8217,,286.2274,287.2269,0,6,6,10,1,999,999,pics/tomato01.jpg,,,,,,,,,,,,,,,,,,,,,,,,,,,,,,,,,,,,,,,,,,,,,,,,,,,,,,,,,,,,,,,,,,,,,,,
,,,,,56caf7b564c068000c4d798a,6682b41eeb79ab8215dff63d,6682bac838bcaf2249106b0e,43,Female,English,2024-07-01_09h21.13.512,ABmemTask3,2023.2.3,MacIntel,57.14285714,,,,,,,,,,,,,,,,,,,,,,,,,,,,,,,,,287.2351,571,287.7267,,,,,,,,,,,,,,,,,,,,,,,,,,0,,,,,,,,,prac_MEM,old,,,,,,,,,,,10,,,,,,,,,,,,,,,,,,,,,,,,,,,,,,,,,,,287.7267,290.3604,17,6,2.6159,,290.3608,291.3593,0,7,7,6,1,12,5,pics/humanskull.jpg,,,,,,,,,,,,,,,,,,,,,,,,,,,,,,,,,,,,,,,,,,,,,,,,,,,,,,,,,,,,,,,,,,,,,,,
,,,,,56caf7b564c068000c4d798a,6682b41eeb79ab8215dff63d,6682bac838bcaf2249106b0e,43,Female,English,2024-07-01_09h21.13.512,ABmemTask3,2023.2.3,MacIntel,57.14285714,,,,,,,,,,,,,,,,,,,,,,,,,,,,,,,,,291.3671,571,291.8603,,,,,,,,,,,,,,,,,,,,,,,,,,0,,,,,,,,,prac_MEM,new,,,,,,,,,,,10,,,,,,,,,,,,,,,,,,,,,,,,,,,,,,,,,,,291.8604,294.7268,19,2,2.849,,294.7273,295.726,0,8,8,8,1,999,999,pics/thread02.jpg,,,,,,,,,,,,,,,,,,,,,,,,,,,,,,,,,,,,,,,,,,,,,,,,,,,,,,,,,,,,,,,,,,,,,,,
,,,,,56caf7b564c068000c4d798a,6682b41eeb79ab8215dff63d,6682bac838bcaf2249106b0e,43,Female,English,2024-07-01_09h21.13.512,ABmemTask3,2023.2.3,MacIntel,57.14285714,,,,,,,,,,,,,,,,,,,,,,,,,,,,,,,,,295.7342,571,296.2264,,,,,,,,,,,,,,,,,,,,,,,,,,0,,,,,,,,,prac_MEM,old,,,,,,,,,,,10,,,,,,,,,,,,,,,,,,,,,,,,,,,,,,,,,,,296.2264,297.1771,22,6,0.9358,,297.1776,298.177,0,9,9,1,1,2,1,pics/pants.jpg,,,,,,,,,,,,,,,,,,,,,,,,,,,,,,,,,,,,,,,,,,,,,,,,,,,,,,,,,,,,,,,,,,,,,,,
,,,,,56caf7b564c068000c4d798a,6682b41eeb79ab8215dff63d,6682bac838bcaf2249106b0e,43,Female,English,2024-07-01_09h21.13.512,ABmemTask3,2023.2.3,MacIntel,57.14285714,,,,,,,,,,,,,,,,,,,,,,,,,,,,,,,,,298.1774,571,298.6772,,,,,,,,,,,,,,,,,,,,,,,,,,0,,,,,,,,,prac_MEM,new,,,,,,,,,,,10,,,,,,,,,,,,,,,,,,,,,,,,,,,,,,,,,,,298.6772,300.8428,21,4,2.1475,,300.8429,301.8438,0,10,10,9,1,999,999,pics/moth.jpg,,,,,,,,,,,,,,,,,,,,,,,,,,,,,,,,,,,,,,,,,,,,,,,,,,,,,,,,,,,,,,,,,,,,,,,
,,,,,56caf7b564c068000c4d798a,6682b41eeb79ab8215dff63d,6682bac838bcaf2249106b0e,43,Female,English,2024-07-01_09h21.13.512,ABmemTask3,2023.2.3,MacIntel,57.14285714,,,,,,,,,,,,,,,,,,,,,,,,,,,,,,,,,,,,,,,,,,,,,,,,,,,,,,,,,,,,,,,,,,,,,,,,,,,,,,,,,,,,,,,,,,,,,,,,,,,,,,,,,,,,,,,,,,,,,,,,,,,,,,,,,,,,,301.8441,303.9104,303.9105,303.9108,,,,,,,,,,,,,,,,,,,,,,,,,,,,,,,,,,,,,,,,,,,,,,,,,,,,,,,,,,,,,,,,,,,
,,,,,56caf7b564c068000c4d798a,6682b41eeb79ab8215dff63d,6682bac838bcaf2249106b0e,43,Female,English,2024-07-01_09h21.13.512,ABmemTask3,2023.2.3,MacIntel,57.14285714,,,,,,,,,,,,,,,,,,space,26.0478,,,,,,,,,,,,,,,,,,,,,,,,,,,,,,,,,,,,,,,,,,,,,,,,,,,,,,,,,,,,,,,,,,,,,,,,,,,,,,,,,,,,,,,,,,,,,,,,,,,,,,,,,,,,,,,,,,,,,,303.9109,329.9774,,,,,,,,,,,,,,,,,,,,,,,,,,,,,,,,,,,,,,,,,,,,,,,,,,,,,,,,,,,,,,,,,
,,,,,56caf7b564c068000c4d798a,6682b41eeb79ab8215dff63d,6682bac838bcaf2249106b0e,43,Female,English,2024-07-01_09h21.13.512,ABmemTask3,2023.2.3,MacIntel,57.14285714,,,,,,,,,,,,,,,,,,,,,,,,,,,,,,,,,,,,,,,,,,,,,,,,,,,,,,,,,,,,,,,,,,,,,,,,,,,,,,,,,,,,,,,,,,,,,,,,,,,,,,,,,,,,,,,,,,,,,,,,,,,,,,,,,,,,,,,,,,,329.9775,343.3446,space,13.3322,,,,,,,,,,,,,,,,,,,,,,,,,,,,,,,,,,,,,,,,,,,,,,,,,,,,,,,,,,,,,
,,,,,56caf7b564c068000c4d798a,6682b41eeb79ab8215dff63d,6682bac838bcaf2249106b0e,43,Female,English,2024-07-01_09h21.13.512,ABmemTask3,2023.2.3,MacIntel,57.14285714,,,,,,,,,,,,,,,,,,,,,,,,,,,,,,,343.3556,344.3443,344.3443,7,344.8433,346.0105,0.0009,346.1276,0.1166,0.1169,0.1174,0.1166,0.1156,0.1167,0.1175,0.1168,0.1159,0.1164,,346.1278,347.2772,right,1.1275,,347.2772,348.828,right,1.5441,,2,0,2,348.8281,349.8278,,,,,,1_AB,L1_T1P_T2P,1,1,1,7,8,6,3,11,medal,Did you see the medal,0.12,0,resources/,pics/hen.jpg,pics/starfish01.jpg,pics/nutcracker01.jpg,pics/ball02.jpg,pics/fanblades.jpg,pics/christmaslights.jpg,pics/medal02b.jpg,pics/stapler09.jpg,pics/carrot01.jpg,pics/hammerheadshark.jpg,pics/sailboat.jpg,blankImage,blankImage,blankImage,blankImage,blankImage,blankImage,medal02b,19,,,,,,,,,,,,,,,,,,,,,,,,,,,,,,,,,,,,,,,,,0,0,0,18,1,,,,,,,,,,,,,,,,,,,,,,,,,,,,,,,,,,,,,,,,,,,,,,,,,,,,,,,
,,,,,56caf7b564c068000c4d798a,6682b41eeb79ab8215dff63d,6682bac838bcaf2249106b0e,43,Female,English,2024-07-01_09h21.13.512,ABmemTask3,2023.2.3,MacIntel,57.14285714,,,,,,,,,,,,,,,,,,,,,,,,,,,,,,,349.8284,350.8273,350.8274,7,351.3281,353.1946,0.001,353.3113,0.1156,0.1171,0.1167,0.1166,0.1166,0.1164,0.1169,0.1169,0.1161,0.117,0.1168,353.3114,354.595,left,1.2593,,354.595,354.9448,left,0.3346,,4,0,4,354.9449,355.9438,,,,,,1_AB,L5_T1A_T2A,5,0,0,7,12,6,5,17,Bib,Did you see the Bib,0.12,0,resources/,pics/hammerheadshark.jpg,pics/wheel01.jpg,pics/binder03b.jpg,pics/hairdryer02a.jpg,pics/christmaslights.jpg,pics/sandbarshark.jpg,pics/binoculars01b.jpg,pics/piggybank.jpg,pics/aquarium.jpg,pics/candleholder01.jpg,pics/sink.jpg,pics/calendar.jpg,pics/birdhouse.jpg,pics/bowtie.jpg,pics/onion.jpg,pics/golfball.jpg,pics/sailboat.jpg,bib,62,0.1166,0.1166,0.1171,,,,,,,,,,,,,,,,,,,,,,,,,,,,,,,,,,,,,,0,1,1,61,1,0.1166,0.1159,,,,,,,,,,,,,,,,,,,,,,,,,,,,,,,,,,,,,,,,,,,,,,,,,,,,,
,,,,,56caf7b564c068000c4d798a,6682b41eeb79ab8215dff63d,6682bac838bcaf2249106b0e,43,Female,English,2024-07-01_09h21.13.512,ABmemTask3,2023.2.3,MacIntel,57.14285714,,,,,,,,,,,,,,,,,,,,,,,,,,,,,,,355.9443,356.9447,356.9448,7,357.4438,358.4953,0.001,358.6115,0.117,0.116,0.1176,0.1166,0.1165,0.1169,0.1157,0.1176,0.1167,,,358.6116,359.5771,right,0.956,,359.5772,360.3947,left,0.8039,,6,0,6,360.3947,361.3948,,,,,,1_AB,L1_T1P_T2A,1,1,0,6,7,5,3,10,Duct tape,Did you see the Duct tape,0.12,0,resources/,pics/butterfly.jpg,pics/noparkingsign.jpg,pics/pictureframe04.jpg,pics/cork02.jpg,pics/fanblades.jpg,pics/ducttape.jpg,pics/icecube01.jpg,pics/siamesecat.jpg,pics/sink.jpg,pics/sandbarshark.jpg,blankImage,blankImage,blankImage,blankImage,blankImage,blankImage,blankImage,ducttape,36,,,,,,,,,,,,,,,,,,,,,,,,,,,,,,,,,,,,,,,,,0,2,2,35,1,,,,,,,,,,,,,,,,,,,,,,,,,,,,,,,,,,,,,,,,,,,,,,,,,,,,,,,
,,,,,56caf7b564c068000c4d798a,6682b41eeb79ab8215dff63d,6682bac838bcaf2249106b0e,43,Female,English,2024-07-01_09h21.13.512,ABmemTask3,2023.2.3,MacIntel,57.14285714,,,,,,,,,,,,,,,,,,,,,,,,,,,,,,,361.3955,362.3944,362.3945,7,362.8939,363.8284,0.0008,363.9445,0.1172,0.1157,0.1177,0.1168,0.1163,0.117,0.1166,0.1166,,,,363.9446,364.7948,right,0.8277,,364.7948,365.2284,left,0.4183,,8,0,8,365.2285,366.2272,,,,,,1_AB,L1_T1P_T2A,1,1,0,4,5,3,4,9,blueberry,Did you see the blueberry,0.12,0,resources/,pics/sealion.jpg,pics/piggybank.jpg,pics/sink.jpg,pics/blueberry01.jpg,pics/onion.jpg,pics/sailboat.jpg,pics/seaturtle.jpg,pics/hen.jpg,pics/fanblades.jpg,blankImage,blankImage,blankImage,blankImage,blankImage,blankImage,blankImage,blankImage,blueberry01,35,,,,,,,,,,,,,,,,,,,,,,,,,,,,,,,,,,,,,,,,,0,3,3,34,1,,,,,,,,,,,,,,,,,,,,,,,,,,,,,,,,,,,,,,,,,,,,,,,,,,,,,,,
,,,,,56caf7b564c068000c4d798a,6682b41eeb79ab8215dff63d,6682bac838bcaf2249106b0e,43,Female,English,2024-07-01_09h21.13.512,ABmemTask3,2023.2.3,MacIntel,57.14285714,,,,,,,,,,,,,,,,,,,,,,,,,,,,,,,366.2364,367.2283,367.2283,7,367.7274,369.2452,0.0007,369.3616,0.1166,0.1169,0.1165,0.1167,0.1173,0.1159,0.1176,0.116,0.1174,0.1155,0.1172,369.3618,370.0618,right,0.6809,,370.0618,370.362,right,0.2957,,10,0,10,370.362,371.3612,,,,,,1_AB,L5_T1P_T2P,5,1,1,6,11,5,3,14,truck,Did you see the truck,0.12,0,resources/,pics/calendar.jpg,pics/mummy.jpg,pics/ashtray01.jpg,pics/pencilsharpener02a.jpg,pics/dustpan.jpg,pics/boxtruck.jpg,pics/lightswitch01.jpg,pics/pictureframe04.jpg,pics/starfish01.jpg,pics/zebra.jpg,pics/stapler12.jpg,pics/bowtie.jpg,pics/candleholder01.jpg,pics/candle01.jpg,blankImage,blankImage,blankImage,boxtruck,50,0.1165,0.1172,,,,,,,,,,,,,,,,,,,,,,,,,,,,,,,,,,,,,,,0,4,4,49,1,,,,,,,,,,,,,,,,,,,,,,,,,,,,,,,,,,,,,,,,,,,,,,,,,,,,,,,
,,,,,56caf7b564c068000c4d798a,6682b41eeb79ab8215dff63d,6682bac838bcaf2249106b0e,43,Female,English,2024-07-01_09h21.13.512,ABmemTask3,2023.2.3,MacIntel,57.14285714,,,,,,,,,,,,,,,,,,,,,,,,,,,,,,,371.3616,372.3617,372.3617,7,372.8607,374.144,0.0007,374.2615,0.1174,0.1158,0.1171,0.1171,0.1168,0.1164,0.1167,0.1169,0.1164,0.1151,0.117,374.2615,375.1285,right,0.8591,,375.1285,375.4616,left,0.3218,,12,0,12,375.4616,376.4609,,,,,,1_AB,L1_T1P_T2A,1,1,0,7,8,6,4,12,Tennis racket,Did you see the Tennis racket,0.12,0,resources/,pics/banjo.jpg,pics/leaf02a.jpg,pics/shovel01.jpg,pics/microscope.jpg,pics/cork02.jpg,pics/seagull.jpg,pics/tennisracket.jpg,pics/binder03b.jpg,pics/floortile02.jpg,pics/carrot01.jpg,pics/candle01.jpg,pics/siamesecat.jpg,blankImage,blankImage,blankImage,blankImage,blankImage,tennisracket,38,,,,,,,,,,,,,,,,,,,,,,,,,,,,,,,,,,,,,,,,,0,5,5,37,1,,,,,,,,,,,,,,,,,,,,,,,,,,,,,,,,,,,,,,,,,,,,,,,,,,,,,,,
,,,,,56caf7b564c068000c4d798a,6682b41eeb79ab8215dff63d,6682bac838bcaf2249106b0e,43,Female,English,2024-07-01_09h21.13.512,ABmemTask3,2023.2.3,MacIntel,57.14285714,,,,,,,,,,,,,,,,,,,,,,,,,,,,,,,376.4613,377.4617,377.4617,7,377.9608,379.1278,0.0008,379.2442,0.1174,0.1167,0.1165,0.1167,0.1156,0.117,0.1176,0.1155,0.1177,0.1156,,379.2442,380.311,left,1.0485,,380.311,380.8776,right,0.5565,,12,0,14,380.8777,381.8775,,,,,,1_AB,L1_T1P_T2P,1,1,1,7,8,6,3,11,sock,Did you see the sock,0.12,0,resources/,pics/hen.jpg,pics/christmaslights.jpg,pics/salmon.jpg,pics/sealion.jpg,pics/seaturtle.jpg,pics/giraffe.jpg,pics/athleticsock.jpg,pics/stapler01.jpg,pics/shovel01.jpg,pics/leaf02a.jpg,pics/backpack01a.jpg,blankImage,blankImage,blankImage,blankImage,blankImage,blankImage,athleticsock,11,,,,,,,,,,,,,,,,,,,,,,,,,,,,,,,,,,,,,,,,,0,6,6,10,1,,,,,,,,,,,,,,,,,,,,,,,,,,,,,,,,,,,,,,,,,,,,,,,,,,,,,,,
,,,,,56caf7b564c068000c4d798a,6682b41eeb79ab8215dff63d,6682bac838bcaf2249106b0e,43,Female,English,2024-07-01_09h21.13.512,ABmemTask3,2023.2.3,MacIntel,57.14285714,,,,,,,,,,,,,,,,,,,,,,,,,,,,,,,381.8779,382.8782,382.8783,7,383.3785,384.4285,0.0009,384.545,0.1162,0.1166,0.1172,0.1162,0.1156,0.1178,0.1161,0.116,0.1175,,,384.5451,385.5776,left,1.0254,,385.5778,386.1955,right,0.6035,,14,0,16,386.1956,387.1942,,,,,,1_AB,L1_T1A_T2P,1,0,1,5,6,4,4,10,button,Did you see the button,0.12,0,resources/,pics/pencil01.jpg,pics/necklace.jpg,pics/sink.jpg,pics/noparkingsign.jpg,pics/banjo.jpg,pics/stapler03b.jpg,pics/candle01.jpg,pics/icecube01.jpg,pics/shovel01.jpg,pics/pencilsharpener02a.jpg,blankImage,blankImage,blankImage,blankImage,blankImage,blankImage,blankImage,button01,25,,,,,,,,,,,,,,,,,,,,,,,,,,,,,,,,,,,,,,,,,0,7,7,24,1,,,,,,,,,,,,,,,,,,,,,,,,,,,,,,,,,,,,,,,,,,,,,,,,,,,,,,,
,,,,,56caf7b564c068000c4d798a,6682b41eeb79ab8215dff63d,6682bac838bcaf2249106b0e,43,Female,English,2024-07-01_09h21.13.512,ABmemTask3,2023.2.3,MacIntel,57.14285714,,,,,,,,,,,,,,,,,,,,,,,,,,,,,,,387.1947,388.1952,388.1953,7,388.6952,389.8623,0.0008,389.9787,0.116,0.1171,0.1162,0.1166,0.117,0.1158,0.1179,0.1159,0.1173,0.1166,,389.9787,391.1623,right,1.165,,391.1624,391.5111,left,0.3351,,16,0,18,391.5111,392.512,,,,,,1_AB,L1_T1P_T2A,1,1,0,6,7,5,4,11,lamp,Did you see the lamp,0.12,0,resources/,pics/chainsaw.jpg,pics/fanblades.jpg,pics/salmon.jpg,pics/proboscismonkey.jpg,pics/boot02b.jpg,pics/lamp04a.jpg,pics/blender.jpg,pics/sink.jpg,pics/pencil01.jpg,pics/floortile02.jpg,pics/shovel01.jpg,blankImage,blankImage,blankImage,blankImage,blankImage,blankImage,lamp04a,37,,,,,,,,,,,,,,,,,,,,,,,,,,,,,,,,,,,,,,,,,0,8,8,36,1,,,,,,,,,,,,,,,,,,,,,,,,,,,,,,,,,,,,,,,,,,,,,,,,,,,,,,,
,,,,,56caf7b564c068000c4d798a,6682b41eeb79ab8215dff63d,6682bac838bcaf2249106b0e,43,Female,English,2024-07-01_09h21.13.512,ABmemTask3,2023.2.3,MacIntel,57.14285714,,,,,,,,,,,,,,,,,,,,,,,,,,,,,,,392.5198,393.5119,393.512,7,394.0118,395.5282,0.0003,395.6455,0.1156,0.1176,0.1166,0.1167,0.1171,0.1164,0.1165,0.1171,0.1169,0.1164,0.1158,395.6456,396.4455,right,0.7895,,396.4456,396.6456,right,0.1829,,14,0,20,396.6457,397.6451,,,,,,1_AB,L5_T1P_T2A,5,1,0,6,11,5,3,14,Kiwi,Did you see the Kiwi,0.12,0,resources/,pics/candleholder01.jpg,pics/kangaroo.jpg,pics/banjo.jpg,pics/binoculars01b.jpg,pics/microscope.jpg,pics/kiwi03.jpg,pics/bowtie.jpg,pics/peanut01.jpg,pics/backpack01a.jpg,pics/zebra.jpg,pics/toiletpaper01a.jpg,pics/hen.jpg,pics/spoon01.jpg,pics/calendar.jpg,blankImage,blankImage,blankImage,kiwi03,59,0.1176,0.1159,,,,,,,,,,,,,,,,,,,,,,,,,,,,,,,,,,,,,,,0,9,9,58,1,,,,,,,,,,,,,,,,,,,,,,,,,,,,,,,,,,,,,,,,,,,,,,,,,,,,,,,
,,,,,56caf7b564c068000c4d798a,6682b41eeb79ab8215dff63d,6682bac838bcaf2249106b0e,43,Female,English,2024-07-01_09h21.13.512,ABmemTask3,2023.2.3,MacIntel,57.14285714,,,,,,,,,,,,,,,,,,,,,,,,,,,,,,,397.6457,398.6455,398.6455,7,399.1452,400.4291,0.0006,400.5456,0.1158,0.1166,0.1179,0.1155,0.1172,0.1169,0.1168,0.1168,0.1167,0.1163,0.1169,400.5457,401.478,right,0.9152,,401.4781,401.8613,right,0.3781,,16,0,22,401.8613,402.8624,,,,,,1_AB,L1_T1P_T2P,1,1,1,7,8,6,4,12,hammer,Did you see the hammer,0.12,0,resources/,pics/microscope.jpg,pics/blender.jpg,pics/dustpan.jpg,pics/snowshoe.jpg,pics/mummy.jpg,pics/bowtie.jpg,pics/hammer01.jpg,pics/stapler04b.jpg,pics/seaturtle.jpg,pics/candle01.jpg,pics/necklace.jpg,pics/cannon.jpg,blankImage,blankImage,blankImage,blankImage,blankImage,hammer01,21,,,,,,,,,,,,,,,,,,,,,,,,,,,,,,,,,,,,,,,,,0,10,10,20,1,,,,,,,,,,,,,,,,,,,,,,,,,,,,,,,,,,,,,,,,,,,,,,,,,,,,,,,
,,,,,56caf7b564c068000c4d798a,6682b41eeb79ab8215dff63d,6682bac838bcaf2249106b0e,43,Female,English,2024-07-01_09h21.13.512,ABmemTask3,2023.2.3,MacIntel,57.14285714,,,,,,,,,,,,,,,,,,,,,,,,,,,,,,,402.863,403.8623,403.8623,7,404.3622,405.2949,0.0008,405.4123,0.1163,0.1158,0.1178,0.1167,0.1164,0.1157,0.1179,0.1154,,,,405.4124,406.8121,left,1.3897,,406.8122,407.2454,right,0.4164,,16,0,24,407.2455,408.2456,,,,,,1_AB,L1_T1P_T2P,1,1,1,4,5,3,4,9,antenna,Did you see the antenna,0.12,0,resources/,pics/microscope.jpg,pics/spoon01.jpg,pics/dromedary.jpg,pics/antenna.jpg,pics/stapler03.jpg,pics/hen.jpg,pics/leaf02a.jpg,pics/candle01.jpg,pics/sealion.jpg,blankImage,blankImage,blankImage,blankImage,blankImage,blankImage,blankImage,blankImage,antenna,9,,,,,,,,,,,,,,,,,,,,,,,,,,,,,,,,,,,,,,,,,0,11,11,8,1,,,,,,,,,,,,,,,,,,,,,,,,,,,,,,,,,,,,,,,,,,,,,,,,,,,,,,,
,,,,,56caf7b564c068000c4d798a,6682b41eeb79ab8215dff63d,6682bac838bcaf2249106b0e,43,Female,English,2024-07-01_09h21.13.512,ABmemTask3,2023.2.3,MacIntel,57.14285714,,,,,,,,,,,,,,,,,,,,,,,,,,,,,,,408.2538,409.2451,409.2451,7,409.7458,411.4961,0.0011,411.6125,0.1147,0.1178,0.1157,0.117,0.1175,0.1163,0.116,0.1171,0.1162,0.1175,0.1169,411.6125,412.2782,right,0.6493,,412.2783,412.695,right,0.4111,,14,0,26,412.695,413.6957,,,,,,1_AB,L5_T1P_T2A,5,1,0,6,11,5,5,16,belt,Did you see the belt,0.12,0,resources/,pics/banjo.jpg,pics/birdhouse.jpg,pics/spoon01.jpg,pics/table01.jpg,pics/candle01.jpg,pics/belt02a.jpg,pics/peach01.jpg,pics/chainsaw.jpg,pics/toiletpaper01a.jpg,pics/proboscismonkey.jpg,pics/cymbal.jpg,pics/binoculars01b.jpg,pics/cannon.jpg,pics/noparkingsign.jpg,pics/sailboat.jpg,pics/carrot01.jpg,blankImage,belt02a,61,0.1168,0.1163,0.1168,,,,,,,,,,,,,,,,,,,,,,,,,,,,,,,,,,,,,,0,12,12,60,1,0.1167,,,,,,,,,,,,,,,,,,,,,,,,,,,,,,,,,,,,,,,,,,,,,,,,,,,,,,
,,,,,56caf7b564c068000c4d798a,6682b41eeb79ab8215dff63d,6682bac838bcaf2249106b0e,43,Female,English,2024-07-01_09h21.13.512,ABmemTask3,2023.2.3,MacIntel,57.14285714,,,,,,,,,,,,,,,,,,,,,,,,,,,,,,,413.6962,414.6957,414.6957,7,415.1948,416.246,0.0009,416.3626,0.1162,0.1175,0.1159,0.1177,0.1167,0.1165,0.1168,0.1166,0.1166,,,416.3627,418.0627,right,1.6881,,418.0627,418.4126,right,0.3437,,16,0,28,418.4126,419.4125,,,,,,1_AB,L1_T1P_T2P,1,1,1,4,5,3,5,10,chair,Did you see the chair,0.12,0,resources/,pics/zebra.jpg,pics/floortile02.jpg,pics/cork02.jpg,pics/chair.jpg,pics/stapler07.jpg,pics/sealion.jpg,pics/shovel01.jpg,pics/piggybank.jpg,pics/candleholder01.jpg,pics/laptop01a.jpg,blankImage,blankImage,blankImage,blankImage,blankImage,blankImage,blankImage,chair,3,,,,,,,,,,,,,,,,,,,,,,,,,,,,,,,,,,,,,,,,,0,13,13,2,1,,,,,,,,,,,,,,,,,,,,,,,,,,,,,,,,,,,,,,,,,,,,,,,,,,,,,,,
,,,,,56caf7b564c068000c4d798a,6682b41eeb79ab8215dff63d,6682bac838bcaf2249106b0e,43,Female,English,2024-07-01_09h21.13.512,ABmemTask3,2023.2.3,MacIntel,57.14285714,,,,,,,,,,,,,,,,,,,,,,,,,,,,,,,419.4129,420.4126,420.4127,7,420.9125,422.0785,0.0012,422.1949,0.1156,0.1161,0.1175,0.1166,0.1167,0.1161,0.1163,0.1179,0.1164,0.1157,,422.195,422.9783,right,0.7721,,422.9784,423.2617,right,0.2695,,18,0,30,423.2618,424.2626,,,,,,1_AB,L1_T1P_T2P,1,1,1,7,8,6,3,11,bird,Did you see the bird,0.12,0,resources/,pics/sealion.jpg,pics/backpack01a.jpg,pics/hose.jpg,pics/table01.jpg,pics/wheel01.jpg,pics/seaturtle.jpg,pics/americangoldfinch.jpg,pics/stapler08.jpg,pics/siamesecat.jpg,pics/hammerheadshark.jpg,pics/ashtray01.jpg,blankImage,blankImage,blankImage,blankImage,blankImage,blankImage,americangoldfinch,23,,,,,,,,,,,,,,,,,,,,,,,,,,,,,,,,,,,,,,,,,0,14,14,22,1,,,,,,,,,,,,,,,,,,,,,,,,,,,,,,,,,,,,,,,,,,,,,,,,,,,,,,,
,,,,,56caf7b564c068000c4d798a,6682b41eeb79ab8215dff63d,6682bac838bcaf2249106b0e,43,Female,English,2024-07-01_09h21.13.512,ABmemTask3,2023.2.3,MacIntel,57.14285714,,,,,,,,,,,,,,,,,,,,,,,,,,,,,,,424.2629,425.2627,425.2627,7,425.7617,426.9296,0.001,427.0458,0.116,0.117,0.1173,0.1157,0.1177,0.1166,0.1166,0.1161,0.1176,0.1164,,427.0459,428.0784,right,1.0149,,428.0785,428.4628,left,0.3711,,20,0,32,428.4628,429.4624,,,,,,1_AB,L1_T1P_T2A,1,1,0,7,8,6,3,11,Spear,Did you see the Spear,0.12,0,resources/,pics/butterfly.jpg,pics/banjo.jpg,pics/chainsaw.jpg,pics/christmaslights.jpg,pics/dustpan.jpg,pics/shovel01.jpg,pics/spear02.jpg,pics/table01.jpg,pics/starfish01.jpg,pics/bowlingpin.jpg,pics/carrot01.jpg,blankImage,blankImage,blankImage,blankImage,blankImage,blankImage,spear02,39,,,,,,,,,,,,,,,,,,,,,,,,,,,,,,,,,,,,,,,,,0,15,15,38,1,,,,,,,,,,,,,,,,,,,,,,,,,,,,,,,,,,,,,,,,,,,,,,,,,,,,,,,
,,,,,56caf7b564c068000c4d798a,6682b41eeb79ab8215dff63d,6682bac838bcaf2249106b0e,43,Female,English,2024-07-01_09h21.13.512,ABmemTask3,2023.2.3,MacIntel,57.14285714,,,,,,,,,,,,,,,,,,,,,,,,,,,,,,,429.4629,430.4684,430.4685,7,430.9627,432.1286,0.0009,432.245,0.1164,0.1167,0.1165,0.1167,0.1158,0.1176,0.1165,0.1166,0.1167,0.1156,,432.2452,433.1619,right,0.8989,,433.162,433.5959,left,0.4176,,22,0,34,433.596,434.596,,,,,,1_AB,L1_T1P_T2A,1,1,0,7,8,6,3,11,eggplant,Did you see the eggplant,0.12,0,resources/,pics/salmon.jpg,pics/fanblades.jpg,pics/hammerheadshark.jpg,pics/wheel01.jpg,pics/snowshoe.jpg,pics/birdhouse.jpg,pics/eggplant.jpg,pics/spiderweb.jpg,pics/zebra.jpg,pics/pencilsharpener02a.jpg,pics/backpack01a.jpg,blankImage,blankImage,blankImage,blankImage,blankImage,blankImage,eggplant,32,,,,,,,,,,,,,,,,,,,,,,,,,,,,,,,,,,,,,,,,,0,16,16,31,1,,,,,,,,,,,,,,,,,,,,,,,,,,,,,,,,,,,,,,,,,,,,,,,,,,,,,,,
,,,,,56caf7b564c068000c4d798a,6682b41eeb79ab8215dff63d,6682bac838bcaf2249106b0e,43,Female,English,2024-07-01_09h21.13.512,ABmemTask3,2023.2.3,MacIntel,57.14285714,,,,,,,,,,,,,,,,,,,,,,,,,,,,,,,434.5966,435.5961,435.5962,7,436.0953,437.6134,0.0007,437.7284,0.1163,0.1173,0.1172,0.1163,0.1167,0.1157,0.1177,0.1169,0.1164,0.1166,0.117,437.7286,438.4462,right,0.7071,,438.4463,439.0783,left,0.6174,,24,0,36,439.0784,440.0796,,,,,,1_AB,L5_T1P_T2A,5,1,0,4,9,3,5,14,Frisbee,Did you see the Frisbee,0.12,0,resources/,pics/giraffe.jpg,pics/christmaslights.jpg,pics/bowtie.jpg,pics/frisbee.jpg,pics/banjo.jpg,pics/calendar.jpg,pics/butterfly.jpg,pics/onion.jpg,pics/starfish01.jpg,pics/footballhelmet.jpg,pics/blender.jpg,pics/candleholder01.jpg,pics/hairdryer02a.jpg,pics/dromedary.jpg,blankImage,blankImage,blankImage,frisbee,58,0.1165,0.1168,,,,,,,,,,,,,,,,,,,,,,,,,,,,,,,,,,,,,,,0,17,17,57,1,,,,,,,,,,,,,,,,,,,,,,,,,,,,,,,,,,,,,,,,,,,,,,,,,,,,,,,
,,,,,56caf7b564c068000c4d798a,6682b41eeb79ab8215dff63d,6682bac838bcaf2249106b0e,43,Female,English,2024-07-01_09h21.13.512,ABmemTask3,2023.2.3,MacIntel,57.14285714,,,,,,,,,,,,,,,,,,,,,,,,,,,,,,,440.0882,441.0795,441.0796,7,441.5786,442.979,0.0008,443.0962,0.1173,0.1169,0.1164,0.1165,0.117,0.1164,0.1166,0.1169,0.1166,0.1166,0.1167,443.0962,443.5629,right,0.4469,,443.5629,443.7962,right,0.2215,,26,0,38,443.7962,444.7954,,,,,,1_AB,L1_T1P_T2P,1,1,1,7,8,6,5,13,strawberry,Did you see the strawberry,0.12,0,resources/,pics/sealion.jpg,pics/backpack01a.jpg,pics/binoculars01b.jpg,pics/ball02.jpg,pics/proboscismonkey.jpg,pics/pictureframe04.jpg,pics/strawberry.jpg,pics/stapler12.jpg,pics/seaturtle.jpg,pics/dustpan.jpg,pics/bowlingpin.jpg,pics/hammerheadshark.jpg,pics/hen.jpg,blankImage,blankImage,blankImage,blankImage,strawberry,10,0.1158,,,,,,,,,,,,,,,,,,,,,,,,,,,,,,,,,,,,,,,,0,18,18,9,1,,,,,,,,,,,,,,,,,,,,,,,,,,,,,,,,,,,,,,,,,,,,,,,,,,,,,,,
,,,,,56caf7b564c068000c4d798a,6682b41eeb79ab8215dff63d,6682bac838bcaf2249106b0e,43,Female,English,2024-07-01_09h21.13.512,ABmemTask3,2023.2.3,MacIntel,57.14285714,,,,,,,,,,,,,,,,,,,,,,,,,,,,,,,444.7957,445.7956,445.7957,7,446.2964,447.4624,0.0009,447.5796,0.1156,0.1162,0.1179,0.1154,0.1177,0.1157,0.1177,0.1168,0.1154,0.1168,,447.5797,448.3621,right,0.762,,448.3622,448.7465,left,0.3726,,26,0,40,448.7466,449.7453,,,,,,1_AB,L1_T1P_T2P,1,1,1,7,8,6,3,11,toothpick,Did you see the toothpick,0.12,0,resources/,pics/candleholder01.jpg,pics/blender.jpg,pics/siamesecat.jpg,pics/peanut01.jpg,pics/spiderweb.jpg,pics/football.jpg,pics/toothpick02.jpg,pics/stapler04b.jpg,pics/seagull.jpg,pics/pictureframe04.jpg,pics/shipinabottle.jpg,blankImage,blankImage,blankImage,blankImage,blankImage,blankImage,toothpick02,17,,,,,,,,,,,,,,,,,,,,,,,,,,,,,,,,,,,,,,,,,0,19,19,16,1,,,,,,,,,,,,,,,,,,,,,,,,,,,,,,,,,,,,,,,,,,,,,,,,,,,,,,,
,,,,,56caf7b564c068000c4d798a,6682b41eeb79ab8215dff63d,6682bac838bcaf2249106b0e,43,Female,English,2024-07-01_09h21.13.512,ABmemTask3,2023.2.3,MacIntel,57.14285714,,,,,,,,,,,,,,,,,,,,,,,,,,,,,,,449.7458,450.7463,450.7463,7,451.2456,452.1791,0.0009,452.2964,0.117,0.1169,0.1166,0.1165,0.1169,0.1166,0.1158,0.1165,,,,452.2964,452.9298,right,0.6159,,452.93,453.1465,right,0.2111,,28,0,42,453.1466,454.1464,,,,,,1_AB,L1_T1P_T2P,1,1,1,5,6,4,3,9,Ant,Did you see the Ant,0.12,0,resources/,pics/kangaroo.jpg,pics/giraffe.jpg,pics/footballhelmet.jpg,pics/onion.jpg,pics/ant.jpg,pics/stapler04b.jpg,pics/banjo.jpg,pics/zebra.jpg,pics/dromedary.jpg,blankImage,blankImage,blankImage,blankImage,blankImage,blankImage,blankImage,blankImage,ant,15,,,,,,,,,,,,,,,,,,,,,,,,,,,,,,,,,,,,,,,,,0,20,20,14,1,,,,,,,,,,,,,,,,,,,,,,,,,,,,,,,,,,,,,,,,,,,,,,,,,,,,,,,
,,,,,56caf7b564c068000c4d798a,6682b41eeb79ab8215dff63d,6682bac838bcaf2249106b0e,43,Female,English,2024-07-01_09h21.13.512,ABmemTask3,2023.2.3,MacIntel,57.14285714,,,,,,,,,,,,,,,,,,,,,,,,,,,,,,,454.1469,455.1456,455.1456,7,455.6465,456.8133,0.0012,456.9299,0.116,0.1165,0.1158,0.1175,0.1158,0.1177,0.1165,0.1159,0.1175,0.1167,,456.9299,458.1458,left,1.2037,,458.1459,458.5137,left,0.3495,,30,0,44,458.5137,459.5133,,,,,,1_AB,L1_T1A_T2A,1,0,0,7,8,6,3,11,Poker chips,Did you see the Poker chips,0.12,0,resources/,pics/candle01.jpg,pics/proboscismonkey.jpg,pics/fanblades.jpg,pics/dromedary.jpg,pics/aquarium.jpg,pics/salmon.jpg,pics/hose.jpg,pics/kangaroo.jpg,pics/noparkingsign.jpg,pics/carrot01.jpg,pics/leaf02a.jpg,blankImage,blankImage,blankImage,blankImage,blankImage,blankImage,pokerchips,41,,,,,,,,,,,,,,,,,,,,,,,,,,,,,,,,,,,,,,,,,0,21,21,40,1,,,,,,,,,,,,,,,,,,,,,,,,,,,,,,,,,,,,,,,,,,,,,,,,,,,,,,,
,,,,,56caf7b564c068000c4d798a,6682b41eeb79ab8215dff63d,6682bac838bcaf2249106b0e,43,Female,English,2024-07-01_09h21.13.512,ABmemTask3,2023.2.3,MacIntel,57.14285714,,,,,,,,,,,,,,,,,,,,,,,,,,,,,,,459.5137,460.5127,460.5127,7,461.0133,462.1802,0.001,462.2956,0.115,0.1177,0.1167,0.1156,0.117,0.1165,0.1168,0.1164,0.1172,0.1171,,462.2957,463.43,left,1.1226,,463.4301,463.796,right,0.3497,,32,0,46,463.7961,464.7965,,,,,,1_AB,L1_T1A_T2P,1,0,1,7,8,6,3,11,turkey,Did you see the turkey,0.12,0,resources/,pics/proboscismonkey.jpg,pics/blender.jpg,pics/sealion.jpg,pics/snowshoe.jpg,pics/carrot01.jpg,pics/microscope.jpg,pics/piggybank.jpg,pics/stapler12.jpg,pics/peanut01.jpg,pics/dustpan.jpg,pics/footballhelmet.jpg,blankImage,blankImage,blankImage,blankImage,blankImage,blankImage,turkey,26,,,,,,,,,,,,,,,,,,,,,,,,,,,,,,,,,,,,,,,,,0,22,22,25,1,,,,,,,,,,,,,,,,,,,,,,,,,,,,,,,,,,,,,,,,,,,,,,,,,,,,,,,
,,,,,56caf7b564c068000c4d798a,6682b41eeb79ab8215dff63d,6682bac838bcaf2249106b0e,43,Female,English,2024-07-01_09h21.13.512,ABmemTask3,2023.2.3,MacIntel,57.14285714,,,,,,,,,,,,,,,,,,,,,,,,,,,,,,,464.7968,465.796,465.7961,7,466.2969,467.5802,0.0011,467.6966,0.1147,0.1172,0.1166,0.1174,0.1165,0.1166,0.1159,0.1175,0.116,0.1168,0.1172,467.6968,468.1625,right,0.4477,,468.1625,468.3791,right,0.2112,,34,0,48,468.3792,469.379,,,,,,1_AB,L1_T1P_T2P,1,1,1,6,7,5,5,12,Bear,Did you see the Bear,0.12,0,resources/,pics/necklace.jpg,pics/hen.jpg,pics/dromedary.jpg,pics/piggybank.jpg,pics/sandbarshark.jpg,pics/grizzly.jpg,pics/stapler12.jpg,pics/bowlingpin.jpg,pics/christmaslights.jpg,pics/icecube01.jpg,pics/match.jpg,pics/lock03a.jpg,blankImage,blankImage,blankImage,blankImage,blankImage,grizzly,18,,,,,,,,,,,,,,,,,,,,,,,,,,,,,,,,,,,,,,,,,0,23,23,17,1,,,,,,,,,,,,,,,,,,,,,,,,,,,,,,,,,,,,,,,,,,,,,,,,,,,,,,,
,,,,,56caf7b564c068000c4d798a,6682b41eeb79ab8215dff63d,6682bac838bcaf2249106b0e,43,Female,English,2024-07-01_09h21.13.512,ABmemTask3,2023.2.3,MacIntel,57.14285714,,,,,,,,,,,,,,,,,,,,,,,,,,,,,,,469.3794,470.3797,470.3798,7,470.8801,472.0462,0.0009,472.1631,0.1162,0.1168,0.1165,0.1169,0.1163,0.1167,0.1158,0.1168,0.1164,0.1168,,472.1632,473.0969,right,0.9107,,473.0969,473.4459,left,0.3438,,34,0,50,473.446,474.4458,,,,,,1_AB,L1_T1P_T2P,1,1,1,7,8,6,3,11,Eiffel tower,Did you see the Eiffel tower,0.12,0,resources/,pics/seagull.jpg,pics/cymbal.jpg,pics/match.jpg,pics/binoculars01b.jpg,pics/ball02.jpg,pics/onion.jpg,pics/eiffeltower.jpg,pics/stapler11.jpg,pics/peach01.jpg,pics/sandbarshark.jpg,pics/boot02b.jpg,blankImage,blankImage,blankImage,blankImage,blankImage,blankImage,eiffeltower,1,,,,,,,,,,,,,,,,,,,,,,,,,,,,,,,,,,,,,,,,,0,24,24,0,1,,,,,,,,,,,,,,,,,,,,,,,,,,,,,,,,,,,,,,,,,,,,,,,,,,,,,,,
,,,,,56caf7b564c068000c4d798a,6682b41eeb79ab8215dff63d,6682bac838bcaf2249106b0e,43,Female,English,2024-07-01_09h21.13.512,ABmemTask3,2023.2.3,MacIntel,57.14285714,,,,,,,,,,,,,,,,,,,,,,,,,,,,,,,474.4541,475.4456,475.4456,7,475.9468,476.8808,0.0011,476.9968,0.116,0.1163,0.1161,0.1177,0.116,0.1168,0.1162,0.1181,,,,476.9969,478.2635,right,1.2477,,478.2636,478.6303,left,0.3527,,34,0,52,478.6304,479.6293,,,,,,1_AB,L1_T1P_T2P,1,1,1,5,6,4,3,9,paint brush,Did you see the paint brush,0.12,0,resources/,pics/nutcracker01.jpg,pics/piggybank.jpg,pics/spiderweb.jpg,pics/table01.jpg,pics/paintbrush01.jpg,pics/stapler09.jpg,pics/hose.jpg,pics/cannon.jpg,pics/mummy.jpg,blankImage,blankImage,blankImage,blankImage,blankImage,blankImage,blankImage,blankImage,paintbrush01,20,,,,,,,,,,,,,,,,,,,,,,,,,,,,,,,,,,,,,,,,,0,25,25,19,1,,,,,,,,,,,,,,,,,,,,,,,,,,,,,,,,,,,,,,,,,,,,,,,,,,,,,,,
,,,,,56caf7b564c068000c4d798a,6682b41eeb79ab8215dff63d,6682bac838bcaf2249106b0e,43,Female,English,2024-07-01_09h21.13.512,ABmemTask3,2023.2.3,MacIntel,57.14285714,,,,,,,,,,,,,,,,,,,,,,,,,,,,,,,479.6297,480.6303,480.6303,7,481.1302,481.9468,0.0011,482.0636,0.1162,0.1158,0.1174,0.1157,0.1168,0.1175,0.1162,,,,,482.0637,483.1968,left,1.113,,483.1969,483.547,right,0.3441,,36,0,54,483.547,484.547,,,,,,1_AB,L1_T1A_T2P,1,0,1,4,5,3,3,8,Parking meter,Did you see the Parking meter,0.12,0,resources/,pics/leaf02a.jpg,pics/carrot01.jpg,pics/sink.jpg,pics/butterfly.jpg,pics/stapler10.jpg,pics/pictureframe04.jpg,pics/spiderweb.jpg,pics/icecube01.jpg,blankImage,blankImage,blankImage,blankImage,blankImage,blankImage,blankImage,blankImage,blankImage,parkingmeter,30,,,,,,,,,,,,,,,,,,,,,,,,,,,,,,,,,,,,,,,,,0,26,26,29,1,,,,,,,,,,,,,,,,,,,,,,,,,,,,,,,,,,,,,,,,,,,,,,,,,,,,,,,
,,,,,56caf7b564c068000c4d798a,6682b41eeb79ab8215dff63d,6682bac838bcaf2249106b0e,43,Female,English,2024-07-01_09h21.13.512,ABmemTask3,2023.2.3,MacIntel,57.14285714,,,,,,,,,,,,,,,,,,,,,,,,,,,,,,,484.5567,485.547,485.5471,7,486.047,487.0975,0.001,487.2127,0.1165,0.1159,0.1163,0.1174,0.1159,0.1174,0.1158,0.1168,0.1177,,,487.2128,488.2638,right,1.0409,,488.2638,488.6629,left,0.3925,,36,0,56,488.663,489.6637,,,,,,1_AB,L1_T1P_T2P,1,1,1,4,5,3,5,10,flute,Did you see the flute,0.12,0,resources/,pics/peach01.jpg,pics/seaturtle.jpg,pics/dromedary.jpg,pics/recorder01.jpg,pics/stapler08.jpg,pics/giraffe.jpg,pics/blender.jpg,pics/necklace.jpg,pics/sink.jpg,pics/dustpan.jpg,blankImage,blankImage,blankImage,blankImage,blankImage,blankImage,blankImage,recorder01,7,,,,,,,,,,,,,,,,,,,,,,,,,,,,,,,,,,,,,,,,,0,27,27,6,1,,,,,,,,,,,,,,,,,,,,,,,,,,,,,,,,,,,,,,,,,,,,,,,,,,,,,,,
,,,,,56caf7b564c068000c4d798a,6682b41eeb79ab8215dff63d,6682bac838bcaf2249106b0e,43,Female,English,2024-07-01_09h21.13.512,ABmemTask3,2023.2.3,MacIntel,57.14285714,,,,,,,,,,,,,,,,,,,,,,,,,,,,,,,489.6642,490.6638,490.6638,7,491.1638,492.214,0.0008,492.3305,0.1164,0.1155,0.1177,0.1169,0.1155,0.1176,0.1165,0.117,0.1164,,,492.3305,493.1472,right,0.7947,,493.1474,493.497,left,0.3344,,36,0,58,493.497,494.4961,,,,,,1_AB,L1_T1P_T2P,1,1,1,4,5,3,5,10,vacuum,Did you see the vacuum,0.12,0,resources/,pics/birdhouse.jpg,pics/floortile02.jpg,pics/toiletpaper01a.jpg,pics/vacuumcleaner01.jpg,pics/stapler02.jpg,pics/spoon01.jpg,pics/banjo.jpg,pics/binder03b.jpg,pics/leaf02a.jpg,pics/aquarium.jpg,blankImage,blankImage,blankImage,blankImage,blankImage,blankImage,blankImage,vacuumcleaner01,5,,,,,,,,,,,,,,,,,,,,,,,,,,,,,,,,,,,,,,,,,0,28,28,4,1,,,,,,,,,,,,,,,,,,,,,,,,,,,,,,,,,,,,,,,,,,,,,,,,,,,,,,,
,,,,,56caf7b564c068000c4d798a,6682b41eeb79ab8215dff63d,6682bac838bcaf2249106b0e,43,Female,English,2024-07-01_09h21.13.512,ABmemTask3,2023.2.3,MacIntel,57.14285714,,,,,,,,,,,,,,,,,,,,,,,,,,,,,,,494.4965,495.4963,495.4964,7,495.9972,496.9309,0.001,497.0462,0.1151,0.1166,0.1169,0.1175,0.1156,0.1178,0.1166,0.1168,,,,497.0462,497.8806,left,0.8224,,497.8806,498.2971,left,0.4114,,38,0,60,498.2971,499.2969,,,,,,1_AB,L1_T1A_T2A,1,0,0,4,5,3,4,9,License Plate,Did you see the License Plate,0.12,0,resources/,pics/snowshoe.jpg,pics/kangaroo.jpg,pics/noparkingsign.jpg,pics/match.jpg,pics/hose.jpg,pics/blender.jpg,pics/ashtray01.jpg,pics/ball02.jpg,pics/sink.jpg,blankImage,blankImage,blankImage,blankImage,blankImage,blankImage,blankImage,blankImage,licenseplate,40,,,,,,,,,,,,,,,,,,,,,,,,,,,,,,,,,,,,,,,,,0,29,29,39,1,,,,,,,,,,,,,,,,,,,,,,,,,,,,,,,,,,,,,,,,,,,,,,,,,,,,,,,
,,,,,56caf7b564c068000c4d798a,6682b41eeb79ab8215dff63d,6682bac838bcaf2249106b0e,43,Female,English,2024-07-01_09h21.13.512,ABmemTask3,2023.2.3,MacIntel,57.14285714,,,,,,,,,,,,,,,,,,,,,,,,,,,,,,,499.2974,500.2966,500.2966,7,500.7966,502.431,0.0009,502.5473,0.117,0.1161,0.1162,0.1176,0.1167,0.1166,0.1165,0.1158,0.1177,0.1157,0.1177,502.5474,503.0807,right,0.5222,,503.0807,503.3141,right,0.2255,,40,0,62,503.3142,504.313,,,,,,1_AB,L5_T1P_T2P,5,1,1,6,11,5,4,15,toast,Did you see the toast,0.12,0,resources/,pics/piggybank.jpg,pics/leaf02a.jpg,pics/carrot01.jpg,pics/birdhouse.jpg,pics/bowlingpin.jpg,pics/toast.jpg,pics/spiderweb.jpg,pics/cork02.jpg,pics/sink.jpg,pics/nutcracker01.jpg,pics/stapler02.jpg,pics/ashtray01.jpg,pics/fanblades.jpg,pics/pencil01.jpg,pics/lightswitch01.jpg,blankImage,blankImage,toast,46,0.1169,0.1154,0.1177,,,,,,,,,,,,,,,,,,,,,,,,,,,,,,,,,,,,,,0,30,30,45,1,,,,,,,,,,,,,,,,,,,,,,,,,,,,,,,,,,,,,,,,,,,,,,,,,,,,,,,
,,,,,56caf7b564c068000c4d798a,6682b41eeb79ab8215dff63d,6682bac838bcaf2249106b0e,43,Female,English,2024-07-01_09h21.13.512,ABmemTask3,2023.2.3,MacIntel,57.14285714,,,,,,,,,,,,,,,,,,,,,,,,,,,,,,,504.3135,505.3128,505.3128,7,505.814,507.33,0.0009,507.4474,0.1162,0.1167,0.1157,0.1175,0.1168,0.1157,0.1179,0.1164,0.1167,0.116,0.1174,507.4474,507.864,right,0.4067,,507.864,508.0974,right,0.221,,42,0,64,508.0975,509.0972,,,,,,1_AB,L5_T1P_T2P,5,1,1,5,10,4,4,14,Fox,Did you see the Fox,0.12,0,resources/,pics/hammerheadshark.jpg,pics/bowlingpin.jpg,pics/pictureframe04.jpg,pics/peanut01.jpg,pics/redfox.jpg,pics/cymbal.jpg,pics/spoon01.jpg,pics/banjo.jpg,pics/butterfly.jpg,pics/stapler11.jpg,pics/football.jpg,pics/safetypin.jpg,pics/triangle.jpg,pics/onion.jpg,blankImage,blankImage,blankImage,redfox,45,0.1165,0.1157,,,,,,,,,,,,,,,,,,,,,,,,,,,,,,,,,,,,,,,0,31,31,44,1,,,,,,,,,,,,,,,,,,,,,,,,,,,,,,,,,,,,,,,,,,,,,,,,,,,,,,,
,,,,,56caf7b564c068000c4d798a,6682b41eeb79ab8215dff63d,6682bac838bcaf2249106b0e,43,Female,English,2024-07-01_09h21.13.512,ABmemTask3,2023.2.3,MacIntel,57.14285714,,,,,,,,,,,,,,,,,,,,,,,,,,,,,,,509.0976,510.0969,510.097,7,510.5974,512.2309,0.0008,512.3476,0.1163,0.1161,0.1173,0.1162,0.117,0.1161,0.1169,0.1168,0.117,0.1166,0.116,512.3477,512.8476,right,0.4782,,512.8477,513.1137,right,0.2502,,44,0,66,513.1138,514.1132,,,,,,1_AB,L5_T1P_T2P,5,1,1,5,10,4,5,15,ribbon,Did you see the ribbon,0.12,0,resources/,pics/giraffe.jpg,pics/boot02b.jpg,pics/cymbal.jpg,pics/leaf02a.jpg,pics/ribbon04.jpg,pics/lightswitch01.jpg,pics/necklace.jpg,pics/calendar.jpg,pics/kangaroo.jpg,pics/stapler12.jpg,pics/hose.jpg,pics/carrot01.jpg,pics/match.jpg,pics/sink.jpg,pics/candleholder01.jpg,blankImage,blankImage,ribbon04,53,0.1164,0.1177,0.1165,,,,,,,,,,,,,,,,,,,,,,,,,,,,,,,,,,,,,,0,32,32,52,1,,,,,,,,,,,,,,,,,,,,,,,,,,,,,,,,,,,,,,,,,,,,,,,,,,,,,,,
,,,,,56caf7b564c068000c4d798a,6682b41eeb79ab8215dff63d,6682bac838bcaf2249106b0e,43,Female,English,2024-07-01_09h21.13.512,ABmemTask3,2023.2.3,MacIntel,57.14285714,,,,,,,,,,,,,,,,,,,,,,,,,,,,,,,514.1139,515.1132,515.1133,7,515.6143,516.5479,0.0008,516.6642,0.1161,0.1158,0.1179,0.1163,0.1168,0.1169,0.1155,0.1176,,,,516.6643,517.3301,right,0.6469,,517.3301,517.5301,right,0.1853,,46,0,68,517.5301,518.5309,,,,,,1_AB,L1_T1P_T2P,1,1,1,5,6,4,3,9,cabbage,Did you see the cabbage,0.12,0,resources/,pics/match.jpg,pics/icecube01.jpg,pics/noparkingsign.jpg,pics/christmaslights.jpg,pics/cabbage.jpg,pics/stapler03a.jpg,pics/carrot01.jpg,pics/dustpan.jpg,pics/cannon.jpg,blankImage,blankImage,blankImage,blankImage,blankImage,blankImage,blankImage,blankImage,cabbage,14,,,,,,,,,,,,,,,,,,,,,,,,,,,,,,,,,,,,,,,,,0,33,33,13,1,,,,,,,,,,,,,,,,,,,,,,,,,,,,,,,,,,,,,,,,,,,,,,,,,,,,,,,
,,,,,56caf7b564c068000c4d798a,6682b41eeb79ab8215dff63d,6682bac838bcaf2249106b0e,43,Female,English,2024-07-01_09h21.13.512,ABmemTask3,2023.2.3,MacIntel,57.14285714,,,,,,,,,,,,,,,,,,,,,,,,,,,,,,,518.5313,519.5301,519.5301,7,520.0304,521.6643,0.0008,521.7801,0.1158,0.1167,0.1177,0.1157,0.1166,0.1177,0.1166,0.1158,0.1176,0.1164,0.1166,521.7801,523.6133,left,1.8231,,523.6134,524.0132,right,0.3926,,48,0,70,524.0132,525.0135,,,,,,1_AB,L5_T1A_T2P,5,0,1,5,10,4,5,15,scorpion,Did you see the scorpion,0.12,0,resources/,pics/pictureframe04.jpg,pics/binder03b.jpg,pics/pencil01.jpg,pics/leaf02a.jpg,pics/icecube01.jpg,pics/dromedary.jpg,pics/toiletpaper01a.jpg,pics/peanut01.jpg,pics/golfball.jpg,pics/stapler03.jpg,pics/carrot01.jpg,pics/peach01.jpg,pics/sealion.jpg,pics/football.jpg,pics/zebra.jpg,blankImage,blankImage,scorpion,54,0.1168,0.1168,0.1165,,,,,,,,,,,,,,,,,,,,,,,,,,,,,,,,,,,,,,0,34,34,53,1,,,,,,,,,,,,,,,,,,,,,,,,,,,,,,,,,,,,,,,,,,,,,,,,,,,,,,,
,,,,,56caf7b564c068000c4d798a,6682b41eeb79ab8215dff63d,6682bac838bcaf2249106b0e,43,Female,English,2024-07-01_09h21.13.512,ABmemTask3,2023.2.3,MacIntel,57.14285714,,,,,,,,,,,,,,,,,,,,,,,,,,,,,,,525.0231,526.0143,526.0145,7,526.5134,527.7982,0.0016,527.9142,0.1166,0.1161,0.1167,0.1168,0.1169,0.1167,0.1166,0.1157,0.1178,0.1158,0.1178,527.9142,528.8305,right,0.8954,,528.8306,529.348,right,0.5134,,50,0,72,529.3481,530.3478,,,,,,1_AB,L1_T1P_T2P,1,1,1,7,8,6,4,12,Turnstile,Did you see the Turnstile,0.12,0,resources/,pics/golfball.jpg,pics/hose.jpg,pics/siamesecat.jpg,pics/binoculars01b.jpg,pics/hen.jpg,pics/candleholder01.jpg,pics/turnstile.jpg,pics/stapler03a.jpg,pics/giraffe.jpg,pics/pictureframe04.jpg,pics/sandbarshark.jpg,pics/spoon01.jpg,blankImage,blankImage,blankImage,blankImage,blankImage,turnstile,13,,,,,,,,,,,,,,,,,,,,,,,,,,,,,,,,,,,,,,,,,0,35,35,12,1,,,,,,,,,,,,,,,,,,,,,,,,,,,,,,,,,,,,,,,,,,,,,,,,,,,,,,,
,,,,,56caf7b564c068000c4d798a,6682b41eeb79ab8215dff63d,6682bac838bcaf2249106b0e,43,Female,English,2024-07-01_09h21.13.512,ABmemTask3,2023.2.3,MacIntel,57.14285714,,,,,,,,,,,,,,,,,,,,,,,,,,,,,,,530.3561,531.3478,531.3479,7,531.8477,532.7804,0.001,532.897,0.1152,0.1177,0.1157,0.1178,0.1154,0.118,0.1155,0.1165,,,,532.8971,533.931,left,1.0197,,533.9311,534.3979,right,0.4624,,52,0,74,534.3979,535.3977,,,,,,1_AB,L1_T1A_T2P,1,0,1,5,6,4,3,9,Trailer,Did you see the Trailer,0.12,0,resources/,pics/pencil01.jpg,pics/football.jpg,pics/hairdryer02a.jpg,pics/wheel01.jpg,pics/chainsaw.jpg,pics/stapler10.jpg,pics/peanut01.jpg,pics/triangle.jpg,pics/sink.jpg,blankImage,blankImage,blankImage,blankImage,blankImage,blankImage,blankImage,blankImage,boxtrailer,29,,,,,,,,,,,,,,,,,,,,,,,,,,,,,,,,,,,,,,,,,0,36,36,28,1,,,,,,,,,,,,,,,,,,,,,,,,,,,,,,,,,,,,,,,,,,,,,,,,,,,,,,,
,,,,,56caf7b564c068000c4d798a,6682b41eeb79ab8215dff63d,6682bac838bcaf2249106b0e,43,Female,English,2024-07-01_09h21.13.512,ABmemTask3,2023.2.3,MacIntel,57.14285714,,,,,,,,,,,,,,,,,,,,,,,,,,,,,,,535.398,536.3969,536.397,7,536.8979,537.7139,0.0013,537.8304,0.115,0.1174,0.1169,0.1165,0.1159,0.1176,0.1157,,,,,537.8304,538.6648,right,0.8225,,538.6648,538.8977,right,0.218,,54,0,76,538.8978,539.8976,,,,,,1_AB,L1_T1P_T2P,1,1,1,4,5,3,3,8,Recycling bin,Did you see the Recycling bin,0.12,0,resources/,pics/microscope.jpg,pics/dustpan.jpg,pics/seagull.jpg,pics/recyclingbin.jpg,pics/stapler06.jpg,pics/bowtie.jpg,pics/dromedary.jpg,pics/salmon.jpg,blankImage,blankImage,blankImage,blankImage,blankImage,blankImage,blankImage,blankImage,blankImage,recyclingbin,16,,,,,,,,,,,,,,,,,,,,,,,,,,,,,,,,,,,,,,,,,0,37,37,15,1,,,,,,,,,,,,,,,,,,,,,,,,,,,,,,,,,,,,,,,,,,,,,,,,,,,,,,,
,,,,,56caf7b564c068000c4d798a,6682b41eeb79ab8215dff63d,6682bac838bcaf2249106b0e,43,Female,English,2024-07-01_09h21.13.512,ABmemTask3,2023.2.3,MacIntel,57.14285714,,,,,,,,,,,,,,,,,,,,,,,,,,,,,,,539.898,540.8979,540.898,7,541.398,542.4479,0.001,542.5636,0.1151,0.1172,0.1172,0.1163,0.116,0.1166,0.1177,0.1163,0.1167,,,542.5638,543.4308,right,0.849,,543.4308,544.0312,left,0.5854,,56,0,78,544.0312,545.0304,,,,,,1_AB,L1_T1P_T2A,1,1,0,6,7,5,3,10,Electric toothbrush,Did you see the Electric toothbrush,0.12,0,resources/,pics/football.jpg,pics/sailboat.jpg,pics/cymbal.jpg,pics/hen.jpg,pics/pencil01.jpg,pics/electrictoothbrush01c.jpg,pics/bowlingpin.jpg,pics/wheel01.jpg,pics/birdhouse.jpg,pics/leaf02a.jpg,blankImage,blankImage,blankImage,blankImage,blankImage,blankImage,blankImage,electrictoothbrush01c,34,,,,,,,,,,,,,,,,,,,,,,,,,,,,,,,,,,,,,,,,,0,38,38,33,1,,,,,,,,,,,,,,,,,,,,,,,,,,,,,,,,,,,,,,,,,,,,,,,,,,,,,,,
,,,,,56caf7b564c068000c4d798a,6682b41eeb79ab8215dff63d,6682bac838bcaf2249106b0e,43,Female,English,2024-07-01_09h21.13.512,ABmemTask3,2023.2.3,MacIntel,57.14285714,,,,,,,,,,,,,,,,,,,,,,,,,,,,,,,545.0309,546.0304,546.0305,7,546.5313,547.9307,0.0007,548.0478,0.1155,0.1171,0.1173,0.1167,0.117,0.1152,0.1178,0.1166,0.1167,0.1164,0.1158,548.0479,549.0316,left,0.9707,,549.0316,549.5481,left,0.5002,,58,0,80,549.5482,550.5481,,,,,,1_AB,L1_T1A_T2A,1,0,0,7,8,6,5,13,fan,Did you see the fan,0.12,0,resources/,pics/leaf02a.jpg,pics/dustpan.jpg,pics/pencil01.jpg,pics/kangaroo.jpg,pics/golfball.jpg,pics/lightswitch01.jpg,pics/nutcracker01.jpg,pics/calendar.jpg,pics/hose.jpg,pics/starfish01.jpg,pics/siamesecat.jpg,pics/bowlingpin.jpg,pics/necklace.jpg,blankImage,blankImage,blankImage,blankImage,fan,42,0.1167,,,,,,,,,,,,,,,,,,,,,,,,,,,,,,,,,,,,,,,,0,39,39,41,1,,,,,,,,,,,,,,,,,,,,,,,,,,,,,,,,,,,,,,,,,,,,,,,,,,,,,,,
,,,,,56caf7b564c068000c4d798a,6682b41eeb79ab8215dff63d,6682bac838bcaf2249106b0e,43,Female,English,2024-07-01_09h21.13.512,ABmemTask3,2023.2.3,MacIntel,57.14285714,,,,,,,,,,,,,,,,,,,,,,,,,,,,,,,550.5561,551.5482,551.5482,7,552.0482,553.4485,0.0007,553.5637,0.1153,0.1179,0.1165,0.1167,0.1156,0.1168,0.117,0.1173,0.1156,0.1177,0.1166,553.5637,553.9805,right,0.4092,,553.9806,554.1983,right,0.2061,,60,0,82,554.1984,555.1972,,,,,,1_AB,L5_T1P_T2P,5,1,1,4,9,3,4,13,Forklift,Did you see the Forklift,0.12,0,resources/,pics/dustpan.jpg,pics/table01.jpg,pics/sink.jpg,pics/forklift.jpg,pics/dromedary.jpg,pics/proboscismonkey.jpg,pics/cymbal.jpg,pics/shovel01.jpg,pics/stapler10.jpg,pics/backpack01a.jpg,pics/binder03b.jpg,pics/banjo.jpg,pics/candleholder01.jpg,blankImage,blankImage,blankImage,blankImage,forklift,47,0.1167,,,,,,,,,,,,,,,,,,,,,,,,,,,,,,,,,,,,,,,,0,40,40,46,1,,,,,,,,,,,,,,,,,,,,,,,,,,,,,,,,,,,,,,,,,,,,,,,,,,,,,,,
,,,,,56caf7b564c068000c4d798a,6682b41eeb79ab8215dff63d,6682bac838bcaf2249106b0e,43,Female,English,2024-07-01_09h21.13.512,ABmemTask3,2023.2.3,MacIntel,57.14285714,,,,,,,,,,,,,,,,,,,,,,,,,,,,,,,555.1977,556.198,556.198,7,556.6973,558.4477,0.0011,558.5643,0.1169,0.1167,0.1168,0.1164,0.1165,0.1162,0.1174,0.1157,0.1176,0.1159,0.1165,558.5643,558.9804,right,0.4002,,558.9804,559.1979,right,0.2136,,62,0,84,559.198,560.1983,,,,,,1_AB,L5_T1P_T2P,5,1,1,6,11,5,5,16,cruise ship,Did you see the cruise ship,0.12,0,resources/,pics/seaturtle.jpg,pics/ashtray01.jpg,pics/pencil01.jpg,pics/fanblades.jpg,pics/triangle.jpg,pics/cruiseship.jpg,pics/wheel01.jpg,pics/dustpan.jpg,pics/starfish01.jpg,pics/banjo.jpg,pics/stapler12.jpg,pics/match.jpg,pics/cannon.jpg,pics/sandbarshark.jpg,pics/sink.jpg,pics/zebra.jpg,blankImage,cruiseship,51,0.1179,0.1155,0.1178,,,,,,,,,,,,,,,,,,,,,,,,,,,,,,,,,,,,,,0,41,41,50,1,0.1156,,,,,,,,,,,,,,,,,,,,,,,,,,,,,,,,,,,,,,,,,,,,,,,,,,,,,,
,,,,,56caf7b564c068000c4d798a,6682b41eeb79ab8215dff63d,6682bac838bcaf2249106b0e,43,Female,English,2024-07-01_09h21.13.512,ABmemTask3,2023.2.3,MacIntel,57.14285714,,,,,,,,,,,,,,,,,,,,,,,,,,,,,,,560.1987,561.1983,561.1983,7,561.6984,563.0978,0.001,563.215,0.115,0.1174,0.116,0.1175,0.1168,0.1168,0.116,0.1162,0.1177,0.1165,0.1169,563.2151,564.4477,left,1.222,,564.4478,564.6811,left,0.2278,,62,0,86,564.6811,565.6817,,,,,,1_AB,L1_T1A_T2P,1,0,1,7,8,6,5,13,statue,Did you see the statue,0.12,0,resources/,pics/giraffe.jpg,pics/seaturtle.jpg,pics/peach01.jpg,pics/boot02b.jpg,pics/backpack01a.jpg,pics/sandbarshark.jpg,pics/microscope.jpg,pics/stapler07.jpg,pics/snowshoe.jpg,pics/laptop01a.jpg,pics/necklace.jpg,pics/zebra.jpg,pics/carrot01.jpg,blankImage,blankImage,blankImage,blankImage,statue,27,0.1158,,,,,,,,,,,,,,,,,,,,,,,,,,,,,,,,,,,,,,,,0,42,42,26,1,,,,,,,,,,,,,,,,,,,,,,,,,,,,,,,,,,,,,,,,,,,,,,,,,,,,,,,
,,,,,56caf7b564c068000c4d798a,6682b41eeb79ab8215dff63d,6682bac838bcaf2249106b0e,43,Female,English,2024-07-01_09h21.13.512,ABmemTask3,2023.2.3,MacIntel,57.14285714,,,,,,,,,,,,,,,,,,,,,,,,,,,,,,,565.6822,566.6808,566.6808,7,567.1814,568.4654,0.0009,568.5817,0.1159,0.1163,0.1177,0.1161,0.1168,0.116,0.118,0.1165,0.1167,0.1166,0.1171,568.5819,569.0806,right,0.482,,569.0806,569.2986,right,0.2027,,64,0,88,569.2987,570.2982,,,,,,1_AB,L1_T1P_T2P,1,1,1,6,7,5,5,12,jeep,Did you see the jeep,0.12,0,resources/,pics/sandbarshark.jpg,pics/laptop01a.jpg,pics/peach01.jpg,pics/binoculars01b.jpg,pics/giraffe.jpg,pics/jeep.jpg,pics/stapler03b.jpg,pics/fanblades.jpg,pics/cannon.jpg,pics/starfish01.jpg,pics/piggybank.jpg,pics/noparkingsign.jpg,blankImage,blankImage,blankImage,blankImage,blankImage,jeep,2,,,,,,,,,,,,,,,,,,,,,,,,,,,,,,,,,,,,,,,,,0,43,43,1,1,,,,,,,,,,,,,,,,,,,,,,,,,,,,,,,,,,,,,,,,,,,,,,,,,,,,,,,
,,,,,56caf7b564c068000c4d798a,6682b41eeb79ab8215dff63d,6682bac838bcaf2249106b0e,43,Female,English,2024-07-01_09h21.13.512,ABmemTask3,2023.2.3,MacIntel,57.14285714,,,,,,,,,,,,,,,,,,,,,,,,,,,,,,,570.2986,571.2979,571.298,7,571.7984,572.9656,0.0008,573.082,0.1167,0.1164,0.1169,0.1164,0.1166,0.1162,0.1175,0.1164,0.1167,0.1167,,573.082,573.9985,right,0.8991,,573.9986,574.1984,right,0.194,,62,0,90,574.1984,575.1987,,,,,,1_AB,L1_T1P_T2A,1,1,0,7,8,6,3,11,garlic,Did you see the garlic,0.12,0,resources/,pics/zebra.jpg,pics/banjo.jpg,pics/pencilsharpener02a.jpg,pics/football.jpg,pics/candle01.jpg,pics/footballhelmet.jpg,pics/garlic01a.jpg,pics/birdhouse.jpg,pics/peach01.jpg,pics/pictureframe04.jpg,pics/binder03b.jpg,blankImage,blankImage,blankImage,blankImage,blankImage,blankImage,garlic01a,33,,,,,,,,,,,,,,,,,,,,,,,,,,,,,,,,,,,,,,,,,0,44,44,32,1,,,,,,,,,,,,,,,,,,,,,,,,,,,,,,,,,,,,,,,,,,,,,,,,,,,,,,,
,,,,,56caf7b564c068000c4d798a,6682b41eeb79ab8215dff63d,6682bac838bcaf2249106b0e,43,Female,English,2024-07-01_09h21.13.512,ABmemTask3,2023.2.3,MacIntel,57.14285714,,,,,,,,,,,,,,,,,,,,,,,,,,,,,,,575.1992,576.1984,576.1984,7,576.6986,578.215,0.0009,578.332,0.1159,0.1159,0.1179,0.1167,0.1158,0.1166,0.1175,0.1156,0.1168,0.1175,0.1167,578.3321,579.5322,right,1.1782,,579.5323,579.982,right,0.4435,,64,0,92,579.9821,580.982,,,,,,1_AB,L5_T1P_T2P,5,1,1,4,9,3,5,14,pliers,Did you see the pliers,0.12,0,resources/,pics/calendar.jpg,pics/footballhelmet.jpg,pics/seaturtle.jpg,pics/pliers02b.jpg,pics/wheel01.jpg,pics/cannon.jpg,pics/proboscismonkey.jpg,pics/shovel01.jpg,pics/stapler06.jpg,pics/football.jpg,pics/hose.jpg,pics/dustpan.jpg,pics/spiderweb.jpg,pics/golfball.jpg,blankImage,blankImage,blankImage,pliers02b,48,0.1167,0.1159,,,,,,,,,,,,,,,,,,,,,,,,,,,,,,,,,,,,,,,0,45,45,47,1,,,,,,,,,,,,,,,,,,,,,,,,,,,,,,,,,,,,,,,,,,,,,,,,,,,,,,,
,,,,,56caf7b564c068000c4d798a,6682b41eeb79ab8215dff63d,6682bac838bcaf2249106b0e,43,Female,English,2024-07-01_09h21.13.512,ABmemTask3,2023.2.3,MacIntel,57.14285714,,,,,,,,,,,,,,,,,,,,,,,,,,,,,,,580.9825,581.9821,581.9822,7,582.4821,583.8815,0.0011,583.9986,0.1151,0.1175,0.1158,0.1166,0.1178,0.1165,0.1167,0.1164,0.1168,0.1167,0.1168,583.9986,584.9822,right,0.9752,,584.9822,585.2816,left,0.2857,,64,0,94,585.2817,586.282,,,,,,1_AB,L1_T1P_T2P,1,1,1,7,8,6,5,13,Totem Pole,Did you see the Totem Pole,0.12,0,resources/,pics/laptop01a.jpg,pics/carrot01.jpg,pics/wheel01.jpg,pics/icecube01.jpg,pics/ashtray01.jpg,pics/lock03a.jpg,pics/totempole.jpg,pics/stapler08.jpg,pics/golfball.jpg,pics/pencil01.jpg,pics/banjo.jpg,pics/sandbarshark.jpg,pics/shipinabottle.jpg,blankImage,blankImage,blankImage,blankImage,totempole,22,0.1157,,,,,,,,,,,,,,,,,,,,,,,,,,,,,,,,,,,,,,,,0,46,46,21,1,,,,,,,,,,,,,,,,,,,,,,,,,,,,,,,,,,,,,,,,,,,,,,,,,,,,,,,
,,,,,56caf7b564c068000c4d798a,6682b41eeb79ab8215dff63d,6682bac838bcaf2249106b0e,43,Female,English,2024-07-01_09h21.13.512,ABmemTask3,2023.2.3,MacIntel,57.14285714,,,,,,,,,,,,,,,,,,,,,,,,,,,,,,,586.2902,587.2822,587.2822,7,587.7823,589.0657,0.0013,589.1818,0.1145,0.1169,0.1176,0.1166,0.1167,0.116,0.116,0.117,0.1167,0.1179,0.1163,589.1819,589.6823,right,0.4937,,589.6823,589.8991,right,0.2011,,66,0,96,589.8991,590.8989,,,,,,1_AB,L5_T1P_T2P,5,1,1,4,9,3,3,12,Sheep,Did you see the Sheep,0.12,0,resources/,pics/icecube01.jpg,pics/cymbal.jpg,pics/wheel01.jpg,pics/sheep.jpg,pics/starfish01.jpg,pics/safetypin.jpg,pics/siamesecat.jpg,pics/lock03a.jpg,pics/stapler01.jpg,pics/sink.jpg,pics/fanblades.jpg,pics/bowlingpin.jpg,blankImage,blankImage,blankImage,blankImage,blankImage,sheep,52,,,,,,,,,,,,,,,,,,,,,,,,,,,,,,,,,,,,,,,,,0,47,47,51,1,,,,,,,,,,,,,,,,,,,,,,,,,,,,,,,,,,,,,,,,,,,,,,,,,,,,,,,
,,,,,56caf7b564c068000c4d798a,6682b41eeb79ab8215dff63d,6682bac838bcaf2249106b0e,43,Female,English,2024-07-01_09h21.13.512,ABmemTask3,2023.2.3,MacIntel,57.14285714,,,,,,,,,,,,,,,,,,,,,,,,,,,,,,,590.8994,591.8989,591.899,7,592.3979,593.5647,0.001,593.6812,0.1159,0.1179,0.1155,0.1177,0.1155,0.1168,0.1178,0.1159,0.1172,0.1155,,593.6812,595.5157,left,1.8212,,595.5158,595.8323,right,0.3114,,68,0,98,595.8324,596.8322,,,,,,1_AB,L1_T1A_T2P,1,0,1,5,6,4,5,11,Recorder,Did you see the Recorder,0.12,0,resources/,pics/bowtie.jpg,pics/nutcracker01.jpg,pics/hairdryer02a.jpg,pics/shovel01.jpg,pics/onion.jpg,pics/stapler13.jpg,pics/safetypin.jpg,pics/spiderweb.jpg,pics/seagull.jpg,pics/dustpan.jpg,pics/icecube01.jpg,blankImage,blankImage,blankImage,blankImage,blankImage,blankImage,recorder04,28,,,,,,,,,,,,,,,,,,,,,,,,,,,,,,,,,,,,,,,,,0,48,48,27,1,,,,,,,,,,,,,,,,,,,,,,,,,,,,,,,,,,,,,,,,,,,,,,,,,,,,,,,
,,,,,56caf7b564c068000c4d798a,6682b41eeb79ab8215dff63d,6682bac838bcaf2249106b0e,43,Female,English,2024-07-01_09h21.13.512,ABmemTask3,2023.2.3,MacIntel,57.14285714,,,,,,,,,,,,,,,,,,,,,,,,,,,,,,,596.8402,597.8314,597.8314,7,598.3323,599.2649,0.0009,599.3821,0.1162,0.1167,0.1156,0.1177,0.1152,0.1177,0.1167,0.1161,,,,599.3821,600.616,right,1.2181,,600.6161,600.8982,left,0.2656,,68,0,100,600.8982,601.8981,,,,,,1_AB,L1_T1P_T2P,1,1,1,4,5,3,4,9,Chefs hat,Did you see the Chefs hat,0.12,0,resources/,pics/sewingmachine01a.jpg,pics/icecube01.jpg,pics/fanblades.jpg,pics/chefshat.jpg,pics/stapler06.jpg,pics/ashtray01.jpg,pics/blender.jpg,pics/sandbarshark.jpg,pics/lock03a.jpg,blankImage,blankImage,blankImage,blankImage,blankImage,blankImage,blankImage,blankImage,chefshat,12,,,,,,,,,,,,,,,,,,,,,,,,,,,,,,,,,,,,,,,,,0,49,49,11,1,,,,,,,,,,,,,,,,,,,,,,,,,,,,,,,,,,,,,,,,,,,,,,,,,,,,,,,
,,,,,56caf7b564c068000c4d798a,6682b41eeb79ab8215dff63d,6682bac838bcaf2249106b0e,43,Female,English,2024-07-01_09h21.13.512,ABmemTask3,2023.2.3,MacIntel,57.14285714,,,,,,,,,,,,,,,,,,,,,,,,,,,,,,,601.8986,602.8992,602.8992,7,603.3983,604.7991,0.0007,604.9147,0.1174,0.1162,0.1162,0.1166,0.1174,0.1162,0.1172,0.1168,0.1167,0.116,0.1171,604.9148,605.7658,left,0.8429,,605.7659,606.6156,left,0.8419,,68,0,102,606.6157,607.6156,,,,,,1_AB,L1_T1A_T2P,1,0,1,7,8,6,5,13,Basketball,Did you see the Basketball,0.12,0,resources/,pics/cork02.jpg,pics/table01.jpg,pics/christmaslights.jpg,pics/nutcracker01.jpg,pics/golfball.jpg,pics/hammerheadshark.jpg,pics/seaturtle.jpg,pics/stapler04b.jpg,pics/lock03a.jpg,pics/snowshoe.jpg,pics/sewingmachine01a.jpg,pics/peach01.jpg,pics/hose.jpg,blankImage,blankImage,blankImage,blankImage,basketball01,24,0.1163,,,,,,,,,,,,,,,,,,,,,,,,,,,,,,,,,,,,,,,,0,50,50,23,1,,,,,,,,,,,,,,,,,,,,,,,,,,,,,,,,,,,,,,,,,,,,,,,,,,,,,,,
,,,,,56caf7b564c068000c4d798a,6682b41eeb79ab8215dff63d,6682bac838bcaf2249106b0e,43,Female,English,2024-07-01_09h21.13.512,ABmemTask3,2023.2.3,MacIntel,57.14285714,,,,,,,,,,,,,,,,,,,,,,,,,,,,,,,607.616,608.6158,608.6158,7,609.1155,610.3993,0.0007,610.5159,0.1163,0.1169,0.1166,0.1168,0.1167,0.1161,0.1172,0.1166,0.1172,0.1152,0.1177,610.516,611.8653,left,1.3321,,611.8654,612.2318,right,0.3497,,70,0,104,612.232,613.2314,,,,,,1_AB,L5_T1A_T2P,5,0,1,4,9,3,3,12,rooster,Did you see the rooster,0.12,0,resources/,pics/table01.jpg,pics/icecube01.jpg,pics/dustpan.jpg,pics/lock03a.jpg,pics/sailboat.jpg,pics/salmon.jpg,pics/banjo.jpg,pics/zebra.jpg,pics/stapler09.jpg,pics/peach01.jpg,pics/chainsaw.jpg,pics/football.jpg,blankImage,blankImage,blankImage,blankImage,blankImage,rooster,55,,,,,,,,,,,,,,,,,,,,,,,,,,,,,,,,,,,,,,,,,0,51,51,54,1,,,,,,,,,,,,,,,,,,,,,,,,,,,,,,,,,,,,,,,,,,,,,,,,,,,,,,,
,,,,,56caf7b564c068000c4d798a,6682b41eeb79ab8215dff63d,6682bac838bcaf2249106b0e,43,Female,English,2024-07-01_09h21.13.512,ABmemTask3,2023.2.3,MacIntel,57.14285714,,,,,,,,,,,,,,,,,,,,,,,,,,,,,,,613.2319,614.2322,614.2323,7,614.7318,616.4827,0.0008,616.5982,0.1155,0.1166,0.1177,0.1164,0.1172,0.1169,0.1156,0.1177,0.1165,0.117,0.1163,616.5983,617.3818,right,0.7734,,617.3819,617.7983,left,0.4014,,72,0,106,617.7985,618.7982,,,,,,1_AB,L5_T1P_T2A,5,1,0,7,12,6,4,16,boat,Did you see the boat,0.12,0,resources/,pics/butterfly.jpg,pics/onion.jpg,pics/hose.jpg,pics/ball02.jpg,pics/ashtray01.jpg,pics/bowtie.jpg,pics/boat.jpg,pics/seaturtle.jpg,pics/blender.jpg,pics/zebra.jpg,pics/pictureframe04.jpg,pics/shovel01.jpg,pics/spoon01.jpg,pics/peanut01.jpg,pics/nutcracker01.jpg,pics/aquarium.jpg,blankImage,boat,60,0.117,0.1168,0.1154,,,,,,,,,,,,,,,,,,,,,,,,,,,,,,,,,,,,,,0,52,52,59,1,0.1177,,,,,,,,,,,,,,,,,,,,,,,,,,,,,,,,,,,,,,,,,,,,,,,,,,,,,,
,,,,,56caf7b564c068000c4d798a,6682b41eeb79ab8215dff63d,6682bac838bcaf2249106b0e,43,Female,English,2024-07-01_09h21.13.512,ABmemTask3,2023.2.3,MacIntel,57.14285714,,,,,,,,,,,,,,,,,,,,,,,,,,,,,,,618.7986,619.7979,619.798,7,620.299,621.3486,0.0008,621.4659,0.1155,0.1177,0.1166,0.1167,0.1157,0.117,0.1172,0.1156,0.1167,,,621.466,622.2661,left,0.7903,,622.2662,622.516,left,0.2332,,72,0,108,622.5161,623.5159,,,,,,1_AB,L1_T1A_T2P,1,0,1,5,6,4,4,10,Rabbit,Did you see the Rabbit,0.12,0,resources/,pics/cannon.jpg,pics/proboscismonkey.jpg,pics/salmon.jpg,pics/nutcracker01.jpg,pics/seagull.jpg,pics/stapler02.jpg,pics/table01.jpg,pics/laptop01a.jpg,pics/necklace.jpg,pics/pencilsharpener02a.jpg,blankImage,blankImage,blankImage,blankImage,blankImage,blankImage,blankImage,jackrabbit,31,,,,,,,,,,,,,,,,,,,,,,,,,,,,,,,,,,,,,,,,,0,53,53,30,1,,,,,,,,,,,,,,,,,,,,,,,,,,,,,,,,,,,,,,,,,,,,,,,,,,,,,,,
,,,,,56caf7b564c068000c4d798a,6682b41eeb79ab8215dff63d,6682bac838bcaf2249106b0e,43,Female,English,2024-07-01_09h21.13.512,ABmemTask3,2023.2.3,MacIntel,57.14285714,,,,,,,,,,,,,,,,,,,,,,,,,,,,,,,623.5164,624.5158,624.5158,7,625.016,626.5329,0.001,626.6493,0.116,0.1168,0.1161,0.1172,0.1163,0.1173,0.1165,0.1165,0.1167,0.1166,0.1167,626.6493,627.0829,right,0.4211,,627.0829,627.3151,right,0.2174,,74,0,110,627.3152,628.316,,,,,,1_AB,L5_T1P_T2P,5,1,1,6,11,5,3,14,mail box,Did you see the mail box,0.12,0,resources/,pics/pictureframe04.jpg,pics/seaturtle.jpg,pics/blender.jpg,pics/carrot01.jpg,pics/nutcracker01.jpg,pics/mailbox02.jpg,pics/seagull.jpg,pics/sink.jpg,pics/siamesecat.jpg,pics/spiderweb.jpg,pics/stapler08.jpg,pics/safetypin.jpg,pics/candle01.jpg,pics/mummy.jpg,blankImage,blankImage,blankImage,mailbox02,43,0.1163,0.1171,,,,,,,,,,,,,,,,,,,,,,,,,,,,,,,,,,,,,,,0,54,54,42,1,,,,,,,,,,,,,,,,,,,,,,,,,,,,,,,,,,,,,,,,,,,,,,,,,,,,,,,
,,,,,56caf7b564c068000c4d798a,6682b41eeb79ab8215dff63d,6682bac838bcaf2249106b0e,43,Female,English,2024-07-01_09h21.13.512,ABmemTask3,2023.2.3,MacIntel,57.14285714,,,,,,,,,,,,,,,,,,,,,,,,,,,,,,,628.3164,629.3158,629.3158,7,629.8147,631.333,0.0005,631.4494,0.1179,0.1157,0.1176,0.1162,0.1171,0.1157,0.1177,0.1157,0.1166,0.1172,0.1174,631.4494,632.3317,left,0.8669,,632.3317,632.7329,right,0.3886,,76,0,112,632.7329,633.7327,,,,,,1_AB,L5_T1A_T2P,5,0,1,4,9,3,5,14,lemon,Did you see the lemon,0.12,0,resources/,pics/seaturtle.jpg,pics/lightswitch01.jpg,pics/candle01.jpg,pics/cannon.jpg,pics/seagull.jpg,pics/spoon01.jpg,pics/spiderweb.jpg,pics/sewingmachine01a.jpg,pics/stapler05.jpg,pics/binoculars01b.jpg,pics/zebra.jpg,pics/sealion.jpg,pics/shovel01.jpg,pics/wheel01.jpg,blankImage,blankImage,blankImage,lemon02,56,0.116,0.1171,,,,,,,,,,,,,,,,,,,,,,,,,,,,,,,,,,,,,,,0,55,55,55,1,,,,,,,,,,,,,,,,,,,,,,,,,,,,,,,,,,,,,,,,,,,,,,,,,,,,,,,
,,,,,56caf7b564c068000c4d798a,6682b41eeb79ab8215dff63d,6682bac838bcaf2249106b0e,43,Female,English,2024-07-01_09h21.13.512,ABmemTask3,2023.2.3,MacIntel,57.14285714,,,,,,,,,,,,,,,,,,,,,,,,,,,,,,,633.7332,634.7327,634.7327,7,635.2316,636.283,0.0006,636.3994,0.1178,0.1166,0.1166,0.1167,0.1165,0.1167,0.1162,0.1173,0.1166,,,636.3994,637.033,right,0.6135,,637.033,637.2496,right,0.21,,78,0,114,637.2496,638.2494,,,,,,1_AB,L1_T1P_T2P,1,1,1,5,6,4,4,10,thermometer,Did you see the thermometer,0.12,0,resources/,pics/triangle.jpg,pics/shovel01.jpg,pics/mummy.jpg,pics/noparkingsign.jpg,pics/thermometer02b.jpg,pics/stapler04.jpg,pics/piggybank.jpg,pics/golfball.jpg,pics/laptop01a.jpg,pics/aquarium.jpg,blankImage,blankImage,blankImage,blankImage,blankImage,blankImage,blankImage,thermometer02b,8,,,,,,,,,,,,,,,,,,,,,,,,,,,,,,,,,,,,,,,,,0,56,56,7,1,,,,,,,,,,,,,,,,,,,,,,,,,,,,,,,,,,,,,,,,,,,,,,,,,,,,,,,
,,,,,56caf7b564c068000c4d798a,6682b41eeb79ab8215dff63d,6682bac838bcaf2249106b0e,43,Female,English,2024-07-01_09h21.13.512,ABmemTask3,2023.2.3,MacIntel,57.14285714,,,,,,,,,,,,,,,,,,,,,,,,,,,,,,,638.2501,639.2494,639.2494,7,639.7485,641.2667,0.0011,641.3825,0.117,0.1157,0.1176,0.1163,0.1165,0.1172,0.1156,0.1178,0.1165,0.1168,0.1167,641.3826,641.7997,right,0.394,,641.7999,642.033,right,0.2168,,80,0,116,642.0331,643.032,,,,,,1_AB,L5_T1P_T2P,5,1,1,4,9,3,5,14,asparagus,Did you see the asparagus,0.12,0,resources/,pics/siamesecat.jpg,pics/starfish01.jpg,pics/aquarium.jpg,pics/asparagus.jpg,pics/salmon.jpg,pics/binoculars01b.jpg,pics/ball02.jpg,pics/calendar.jpg,pics/stapler10.jpg,pics/giraffe.jpg,pics/dromedary.jpg,pics/seaturtle.jpg,pics/sandbarshark.jpg,pics/shipinabottle.jpg,blankImage,blankImage,blankImage,asparagus,44,0.1163,0.1173,,,,,,,,,,,,,,,,,,,,,,,,,,,,,,,,,,,,,,,0,57,57,43,1,,,,,,,,,,,,,,,,,,,,,,,,,,,,,,,,,,,,,,,,,,,,,,,,,,,,,,,
,,,,,56caf7b564c068000c4d798a,6682b41eeb79ab8215dff63d,6682bac838bcaf2249106b0e,43,Female,English,2024-07-01_09h21.13.512,ABmemTask3,2023.2.3,MacIntel,57.14285714,,,,,,,,,,,,,,,,,,,,,,,,,,,,,,,643.0324,644.0316,644.0316,7,644.5329,646.1667,0.0009,646.2824,0.1153,0.1175,0.1166,0.1169,0.1156,0.1166,0.1172,0.1171,0.1169,0.1166,0.1164,646.2825,646.6996,right,0.4069,,646.6997,646.949,right,0.2355,,82,0,118,646.949,647.9497,,,,,,1_AB,L5_T1P_T2P,5,1,1,5,10,4,5,15,dolphin,Did you see the dolphin,0.12,0,resources/,pics/banjo.jpg,pics/shipinabottle.jpg,pics/laptop01a.jpg,pics/onion.jpg,pics/dolphin01.jpg,pics/sink.jpg,pics/seaturtle.jpg,pics/butterfly.jpg,pics/hen.jpg,pics/stapler10.jpg,pics/proboscismonkey.jpg,pics/starfish01.jpg,pics/salmon.jpg,pics/spiderweb.jpg,pics/cymbal.jpg,blankImage,blankImage,dolphin01,49,0.1168,0.1161,0.1175,,,,,,,,,,,,,,,,,,,,,,,,,,,,,,,,,,,,,,0,58,58,48,1,,,,,,,,,,,,,,,,,,,,,,,,,,,,,,,,,,,,,,,,,,,,,,,,,,,,,,,
