consent1.started,consent1.stopped,key_resp_8.keys,key_resp_8.rt,key_resp_8.duration,PROLIFIC_PID,STUDY_ID,SESSION_ID,age,sex,native language,date,expName,psychopyVersion,OS,frameRate,consent2.started,consent2.stopped,key_resp_9.keys,key_resp_9.rt,key_resp_9.duration,consent3.started,consent3.stopped,key_resp_10.keys,key_resp_10.rt,key_resp_10.duration,consent4.started,consent4.stopped,key_resp_11.keys,key_resp_11.rt,key_resp_11.duration,consent5.started,consent5.stopped,key_resp_12.keys,key_resp_12.rt,key_resp_12.duration,bonusInstruct.started,bonusInstruct.stopped,key_resp_14.keys,key_resp_14.rt,key_resp_14.duration,practiceInstruct.started,practiceInstruct.stopped,key_resp.keys,key_resp.rt,key_resp.duration,cueWord_2.started,cueWord_2.stopped,fix.started,frameTarget,fix.stopped,trial.started,img1Add,trial.stopped,img2Add,img3Add,img4Add,img5Add,img6Add,img7Add,img8Add,img9Add,img10Add,img11Add,img12Add,prompt1.started,prompt1.stopped,key_resp_2.keys,key_resp_2.rt,key_resp_2.duration,prompt2.started,prompt2.stopped,key_resp_3.keys,key_resp_3.rt,key_resp_3.duration,runningAcc_AB,runningTotal,runningCount_AB,feedback.started,feedback.stopped,trials.thisRepN,trials.thisTrialN,trials.thisN,trials.thisIndex,trials.ran,TrialType,CondType,Lag,T1_PA,T2_PA,T1Loc,T2Loc,PreDistractor,PostDistractor,TotalImg,cueWord,T1cue,StimLength,isi,PicFolder,Img1,Img2,Img3,Img4,Img5,Img6,Img7,Img8,Img9,Img10,Img11,Img12,Img13,Img14,Img15,Img16,Img17,T1_Identity,trialID,img13Add,img14Add,img15Add,ABfeedback.started,ABfeedback.stopped,key_resp_13.keys,key_resp_13.rt,key_resp_13.duration,MemPracticeInstruction.started,MemPracticeInstruction.stopped,key_resp_5.keys,key_resp_5.rt,key_resp_5.duration,memTrial.started,memTrial.stopped,Mem_runningPoints,key_resp_4.keys,key_resp_4.rt,key_resp_4.duration,memTrialFeedback.started,memTrialFeedback.stopped,trials_2.thisRepN,trials_2.thisTrialN,trials_2.thisN,trials_2.thisIndex,trials_2.ran,ABtrialID,priorLag,image,memFeedback.started,memFeedback.frame,memFeedback.ended,memFeedback.stopped,bonus.started,bonus.stopped,memoryBlockABInstruct.started,memoryBlockABInstruct.stopped,key_resp_6.keys,key_resp_6.rt,key_resp_6.duration,AB_block_1.thisRepN,AB_block_1.thisTrialN,AB_block_1.thisN,AB_block_1.thisIndex,AB_block_1.ran,img16Add,img17Add,AB_break1.started,AB_break1.stopped,PerceiveBlockABInstruct.started,PerceiveBlockABInstruct.stopped,key_resp_7.keys,key_resp_7.rt,key_resp_7.duration,AB_block_2.thisRepN,AB_block_2.thisTrialN,AB_block_2.thisN,AB_block_2.thisIndex,AB_block_2.ran,AB_break2.started,AB_break2.stopped,AB_block_3.thisRepN,AB_block_3.thisTrialN,AB_block_3.thisN,AB_block_3.thisIndex,AB_block_3.ran,AB_break3.started,AB_break3.stopped,AB_block_4.thisRepN,AB_block_4.thisTrialN,AB_block_4.thisN,AB_block_4.thisIndex,AB_block_4.ran,AB_break4.started,AB_break4.stopped,AB_block_5.thisRepN,AB_block_5.thisTrialN,AB_block_5.thisN,AB_block_5.thisIndex,AB_block_5.ran,AB_break5.started,AB_break5.stopped,AB_block_6.thisRepN,AB_block_6.thisTrialN,AB_block_6.thisN,AB_block_6.thisIndex,AB_block_6.ran,AB_break6.started,AB_break6.stopped,MemInstructionSURPRISE.started,MemInstructionSURPRISE.stopped,MemInstruction.started,MemInstruction.stopped,memBreak.started,memBreak.stopped,Mem_block_1.thisRepN,Mem_block_1.thisTrialN,Mem_block_1.thisN,Mem_block_1.thisIndex,Mem_block_1.ran
0.0017,5.895,space,5.8341,,5e57bf76eff1680266519b35,6682b41eeb79ab8215dff63d,6682ba127ce76f3697eee04a,27,female,english,2024-07-01_15h17.03.156,ABmemTask3,2023.2.3,Linux x86_64,60.24096386,,,,,,,,,,,,,,,,,,,,,,,,,,,,,,,,,,,,,,,,,,,,,,,,,,,,,,,,,,,,,,,,,,,,,,,,,,,,,,,,,,,,,,,,,,,,,,,,,,,,,,,,,,,,,,,,,,,,,,,,,,,,,,,,,,,,,,,,,,,,,,,,,,,,,,,,,,,,,,,,,,,,,,,,,,,,,,,,,,,,,,,,,,,,,,,,,,,,,,,,,,,
,,,,,5e57bf76eff1680266519b35,6682b41eeb79ab8215dff63d,6682ba127ce76f3697eee04a,27,female,english,2024-07-01_15h17.03.156,ABmemTask3,2023.2.3,Linux x86_64,60.24096386,5.8955,18.0124,space,12.0619,,,,,,,,,,,,,,,,,,,,,,,,,,,,,,,,,,,,,,,,,,,,,,,,,,,,,,,,,,,,,,,,,,,,,,,,,,,,,,,,,,,,,,,,,,,,,,,,,,,,,,,,,,,,,,,,,,,,,,,,,,,,,,,,,,,,,,,,,,,,,,,,,,,,,,,,,,,,,,,,,,,,,,,,,,,,,,,,,,,,,,,,,,,,,,,,,,,,,,,
,,,,,5e57bf76eff1680266519b35,6682b41eeb79ab8215dff63d,6682ba127ce76f3697eee04a,27,female,english,2024-07-01_15h17.03.156,ABmemTask3,2023.2.3,Linux x86_64,60.24096386,,,,,,18.0129,33.7703,space,15.6964,,,,,,,,,,,,,,,,,,,,,,,,,,,,,,,,,,,,,,,,,,,,,,,,,,,,,,,,,,,,,,,,,,,,,,,,,,,,,,,,,,,,,,,,,,,,,,,,,,,,,,,,,,,,,,,,,,,,,,,,,,,,,,,,,,,,,,,,,,,,,,,,,,,,,,,,,,,,,,,,,,,,,,,,,,,,,,,,,,,,,,,,,,,,,,,,,,
,,,,,5e57bf76eff1680266519b35,6682b41eeb79ab8215dff63d,6682ba127ce76f3697eee04a,27,female,english,2024-07-01_15h17.03.156,ABmemTask3,2023.2.3,Linux x86_64,60.24096386,,,,,,,,,,,33.7707,36.5371,space,2.7258,,,,,,,,,,,,,,,,,,,,,,,,,,,,,,,,,,,,,,,,,,,,,,,,,,,,,,,,,,,,,,,,,,,,,,,,,,,,,,,,,,,,,,,,,,,,,,,,,,,,,,,,,,,,,,,,,,,,,,,,,,,,,,,,,,,,,,,,,,,,,,,,,,,,,,,,,,,,,,,,,,,,,,,,,,,,,,,,,,,,,,,,,,,,,
,,,,,5e57bf76eff1680266519b35,6682b41eeb79ab8215dff63d,6682ba127ce76f3697eee04a,27,female,english,2024-07-01_15h17.03.156,ABmemTask3,2023.2.3,Linux x86_64,60.24096386,,,,,,,,,,,,,,,,36.5378,37.8357,space,1.2598,,,,,,,,,,,,,,,,,,,,,,,,,,,,,,,,,,,,,,,,,,,,,,,,,,,,,,,,,,,,,,,,,,,,,,,,,,,,,,,,,,,,,,,,,,,,,,,,,,,,,,,,,,,,,,,,,,,,,,,,,,,,,,,,,,,,,,,,,,,,,,,,,,,,,,,,,,,,,,,,,,,,,,,,,,,,,,,,,,,,,,,,
,,,,,5e57bf76eff1680266519b35,6682b41eeb79ab8215dff63d,6682ba127ce76f3697eee04a,27,female,english,2024-07-01_15h17.03.156,ABmemTask3,2023.2.3,Linux x86_64,60.24096386,,,,,,,,,,,,,,,,,,,,,37.836,58.2505,space,20.3755,,,,,,,,,,,,,,,,,,,,,,,,,,,,,,,,,,,,,,,,,,,,,,,,,,,,,,,,,,,,,,,,,,,,,,,,,,,,,,,,,,,,,,,,,,,,,,,,,,,,,,,,,,,,,,,,,,,,,,,,,,,,,,,,,,,,,,,,,,,,,,,,,,,,,,,,,,,,,,,,,,,,,,,,,,,,,,,,,,,
,,,,,5e57bf76eff1680266519b35,6682b41eeb79ab8215dff63d,6682ba127ce76f3697eee04a,27,female,english,2024-07-01_15h17.03.156,ABmemTask3,2023.2.3,Linux x86_64,60.24096386,,,,,,,,,,,,,,,,,,,,,,,,,,58.2509,86.5306,space,28.2505,,,,,,,,,,,,,,,,,,,,,,,,,,,,,,,,,,,,,,,,,,,,,,,,,,,,,,,,,,,,,,,,,,,,,,,,,,,,,,,,,,,,,,,,,,,,,,,,,,,,,,,,,,,,,,,,,,,,,,,,,,,,,,,,,,,,,,,,,,,,,,,,,,,,,,,,,,,,,,,,,,,,,,,,,,,,,,
,,,,,5e57bf76eff1680266519b35,6682b41eeb79ab8215dff63d,6682ba127ce76f3697eee04a,27,female,english,2024-07-01_15h17.03.156,ABmemTask3,2023.2.3,Linux x86_64,60.24096386,,,,,,,,,,,,,,,,,,,,,,,,,,,,,,,86.5568,87.5461,87.5463,15,88.0467,90.7957,0.0032,91.0448,0.2478,0.2499,0.2489,0.2501,0.2497,0.2506,0.2502,0.2489,0.2509,0.2493,0.2497,91.0458,99.7778,right,8.7076,,99.778,105.0627,right,5.2679,,-2,0,2,105.0634,106.0605,0,0,0,0,1,prac_AB,L1_T1P_T2A,1,1,0,6,7,5,5,12,cat,Did you see the cat,0.25,0,resources/,pics/shipinabottle.jpg,pics/table01.jpg,pics/dustpan.jpg,pics/golfball.jpg,pics/giraffe.jpg,pics/cat.jpg,pics/peanut01.jpg,pics/pictureframe04.jpg,pics/fanblades.jpg,pics/laptop01a.jpg,pics/ball02.jpg,pics/blender.jpg,blankImage,blankImage,blankImage,blankImage,blankImage,cat,8,,,,,,,,,,,,,,,,,,,,,,,,,,,,,,,,,,,,,,,,,,,,,,,,,,,,,,,,,,,,,,,,,,,,,,,,,,,,,,,,,,,,,,,,,,,,,,,,,,,,
,,,,,5e57bf76eff1680266519b35,6682b41eeb79ab8215dff63d,6682ba127ce76f3697eee04a,27,female,english,2024-07-01_15h17.03.156,ABmemTask3,2023.2.3,Linux x86_64,60.24096386,,,,,,,,,,,,,,,,,,,,,,,,,,,,,,,106.0737,107.077,107.0771,14,107.5778,109.6777,0.0035,109.9105,0.2297,0.2334,0.2327,0.2333,0.2342,0.2376,0.2293,0.2329,0.2339,,,109.9105,110.8771,right,0.9438,,110.8772,112.7595,right,1.8653,,0,0,4,112.7596,113.759,0,1,1,1,1,prac_AB,L1_T1P_T2P,1,1,1,5,6,4,4,10,tree,Did you see the tree,0.24,0,resources/,pics/carrot01.jpg,pics/hammerheadshark.jpg,pics/kangaroo.jpg,pics/proboscismonkey.jpg,pics/tree.jpg,pics/stapler07.jpg,pics/siamesecat.jpg,pics/ball02.jpg,pics/pictureframe04.jpg,pics/mummy.jpg,blankImage,blankImage,blankImage,blankImage,blankImage,blankImage,blankImage,tree,1,,,,,,,,,,,,,,,,,,,,,,,,,,,,,,,,,,,,,,,,,,,,,,,,,,,,,,,,,,,,,,,,,,,,,,,,,,,,,,,,,,,,,,,,,,,,,,,,,,,,
,,,,,5e57bf76eff1680266519b35,6682b41eeb79ab8215dff63d,6682ba127ce76f3697eee04a,27,female,english,2024-07-01_15h17.03.156,ABmemTask3,2023.2.3,Linux x86_64,60.24096386,,,,,,,,,,,,,,,,,,,,,,,,,,,,,,,113.7705,114.7592,114.7593,14,115.2585,117.8265,0.0013,118.058,0.233,0.2343,0.2324,0.2344,0.233,0.2327,0.2339,0.2334,0.2324,0.235,0.2325,118.058,121.1409,right,3.0638,,121.1411,122.0588,right,0.8985,,-2,0,6,122.0589,123.0575,0,2,2,2,1,prac_AB,L1_T1A_T2P,1,0,1,7,8,6,4,12,grapes,Did you see the grapes,0.23,0,resources/,pics/sailboat.jpg,pics/butterfly.jpg,pics/giraffe.jpg,pics/spoon01.jpg,pics/hose.jpg,pics/nutcracker01.jpg,pics/table01.jpg,pics/stapler13.jpg,pics/pencil01.jpg,pics/football.jpg,pics/triangle.jpg,pics/hairdryer02a.jpg,blankImage,blankImage,blankImage,blankImage,blankImage,grape01,6,,,,,,,,,,,,,,,,,,,,,,,,,,,,,,,,,,,,,,,,,,,,,,,,,,,,,,,,,,,,,,,,,,,,,,,,,,,,,,,,,,,,,,,,,,,,,,,,,,,,
,,,,,5e57bf76eff1680266519b35,6682b41eeb79ab8215dff63d,6682ba127ce76f3697eee04a,27,female,english,2024-07-01_15h17.03.156,ABmemTask3,2023.2.3,Linux x86_64,60.24096386,,,,,,,,,,,,,,,,,,,,,,,,,,,,,,,123.0797,124.0744,124.0745,13,124.5755,127.6074,0.0018,127.8252,0.2159,0.2161,0.216,0.2178,0.2163,0.2185,0.2151,0.2166,0.2155,0.2173,0.218,127.8253,128.7235,right,0.8774,,128.7236,129.9399,right,1.2037,,0,0,8,129.9399,130.9396,0,3,3,3,1,prac_AB,L5_T1P_T2P,5,1,1,7,12,6,3,15,Human skull,Did you see the Human skull,0.22,0,resources/,pics/peach01.jpg,pics/proboscismonkey.jpg,pics/hose.jpg,pics/laptop01a.jpg,pics/hammerheadshark.jpg,pics/nutcracker01.jpg,pics/humanskull.jpg,pics/table01.jpg,pics/icecube01.jpg,pics/boot02b.jpg,pics/calendar.jpg,pics/stapler03a.jpg,pics/ashtray01.jpg,pics/giraffe.jpg,pics/dromedary.jpg,blankImage,blankImage,humanskull,12,0.2158,0.2163,0.2154,,,,,,,,,,,,,,,,,,,,,,,,,,,,,,,,,,,,,,,,,,,,,,,,,,,,,,,,,,,,,,,,,,,,,,,,,,,,,,,,,,,,,,,,,,,,,,,,,
,,,,,5e57bf76eff1680266519b35,6682b41eeb79ab8215dff63d,6682ba127ce76f3697eee04a,27,female,english,2024-07-01_15h17.03.156,ABmemTask3,2023.2.3,Linux x86_64,60.24096386,,,,,,,,,,,,,,,,,,,,,,,,,,,,,,,130.9503,131.9398,131.9399,13,132.4399,134.608,0.0026,134.8231,0.2155,0.2163,0.2155,0.2175,0.2165,0.2176,0.2166,0.2155,0.2174,0.2174,,134.8236,135.9467,right,1.1057,,135.9469,137.0397,left,1.0721,,-4,0,10,137.0399,138.039,0,4,4,4,1,prac_AB,L1_T1A_T2P,1,0,1,7,8,6,3,11,dog,Did you see the dog,0.21,0,resources/,pics/ball02.jpg,pics/binder03b.jpg,pics/dromedary.jpg,pics/shipinabottle.jpg,pics/proboscismonkey.jpg,pics/laptop01a.jpg,pics/chainsaw.jpg,pics/stapler13.jpg,pics/nutcracker01.jpg,pics/carrot01.jpg,pics/calendar.jpg,blankImage,blankImage,blankImage,blankImage,blankImage,blankImage,saintbernard,7,,,,,,,,,,,,,,,,,,,,,,,,,,,,,,,,,,,,,,,,,,,,,,,,,,,,,,,,,,,,,,,,,,,,,,,,,,,,,,,,,,,,,,,,,,,,,,,,,,,,
,,,,,5e57bf76eff1680266519b35,6682b41eeb79ab8215dff63d,6682ba127ce76f3697eee04a,27,female,english,2024-07-01_15h17.03.156,ABmemTask3,2023.2.3,Linux x86_64,60.24096386,,,,,,,,,,,,,,,,,,,,,,,,,,,,,,,138.0507,139.0388,139.0389,12,139.5391,142.3398,0.0028,142.5385,0.1974,0.2001,0.2008,0.2001,0.199,0.2011,0.1996,0.2014,0.1989,0.1996,0.2022,142.5387,143.6251,right,1.0698,,143.6251,144.1888,right,0.5478,,-2,0,12,144.1889,145.1881,0,5,5,5,1,prac_AB,L5_T1P_T2P,5,1,1,5,10,4,5,15,grater,Did you see the grater,0.2,0,resources/,pics/pencil01.jpg,pics/laptop01a.jpg,pics/hammerheadshark.jpg,pics/cork02.jpg,pics/grater01a.jpg,pics/shipinabottle.jpg,pics/binder03b.jpg,pics/dromedary.jpg,pics/pictureframe04.jpg,pics/stapler04b.jpg,pics/fanblades.jpg,pics/aquarium.jpg,pics/hairdryer02a.jpg,pics/lightswitch01.jpg,pics/piggybank.jpg,blankImage,blankImage,grater01a,11,0.1997,0.2012,0.1972,,,,,,,,,,,,,,,,,,,,,,,,,,,,,,,,,,,,,,,,,,,,,,,,,,,,,,,,,,,,,,,,,,,,,,,,,,,,,,,,,,,,,,,,,,,,,,,,,
,,,,,5e57bf76eff1680266519b35,6682b41eeb79ab8215dff63d,6682ba127ce76f3697eee04a,27,female,english,2024-07-01_15h17.03.156,ABmemTask3,2023.2.3,Linux x86_64,60.24096386,,,,,,,,,,,,,,,,,,,,,,,,,,,,,,,145.1996,146.1887,146.1887,11,146.6878,148.1556,0.0012,148.3377,0.1842,0.1828,0.1838,0.1821,0.1827,0.1867,0.18,0.1848,,,,148.3378,149.239,right,0.8844,,149.2391,149.7374,left,0.4812,,0,0,14,149.7374,150.7377,0,6,6,6,1,prac_AB,L1_T1P_T2A,1,1,0,4,5,3,4,9,chalk,Did you see the chalk,0.19,0,resources/,pics/necklace.jpg,pics/starfish01.jpg,pics/safetypin.jpg,pics/chalk.jpg,pics/candleholder01.jpg,pics/bowtie.jpg,pics/match.jpg,pics/candle01.jpg,pics/pencilsharpener02a.jpg,blankImage,blankImage,blankImage,blankImage,blankImage,blankImage,blankImage,blankImage,chalk,9,,,,,,,,,,,,,,,,,,,,,,,,,,,,,,,,,,,,,,,,,,,,,,,,,,,,,,,,,,,,,,,,,,,,,,,,,,,,,,,,,,,,,,,,,,,,,,,,,,,,
,,,,,5e57bf76eff1680266519b35,6682b41eeb79ab8215dff63d,6682ba127ce76f3697eee04a,27,female,english,2024-07-01_15h17.03.156,ABmemTask3,2023.2.3,Linux x86_64,60.24096386,,,,,,,,,,,,,,,,,,,,,,,,,,,,,,,150.749,151.7368,151.7369,11,152.2382,153.8871,0.0016,154.0707,0.1817,0.1843,0.1832,0.1817,0.1853,0.182,0.1846,0.1829,0.1818,,,154.0708,154.9545,right,0.8636,,154.9546,155.5698,right,0.601,,2,0,16,155.5698,156.5701,0,7,7,7,1,prac_AB,L1_T1P_T2P,1,1,1,5,6,4,4,10,pants,Did you see the pants,0.18,0,resources/,pics/kangaroo.jpg,pics/safetypin.jpg,pics/salmon.jpg,pics/sandbarshark.jpg,pics/pants.jpg,pics/stapler03a.jpg,pics/sink.jpg,pics/calendar.jpg,pics/butterfly.jpg,pics/fanblades.jpg,blankImage,blankImage,blankImage,blankImage,blankImage,blankImage,blankImage,pants,2,,,,,,,,,,,,,,,,,,,,,,,,,,,,,,,,,,,,,,,,,,,,,,,,,,,,,,,,,,,,,,,,,,,,,,,,,,,,,,,,,,,,,,,,,,,,,,,,,,,,
,,,,,5e57bf76eff1680266519b35,6682b41eeb79ab8215dff63d,6682ba127ce76f3697eee04a,27,female,english,2024-07-01_15h17.03.156,ABmemTask3,2023.2.3,Linux x86_64,60.24096386,,,,,,,,,,,,,,,,,,,,,,,,,,,,,,,156.5728,157.5698,157.5699,10,158.0712,160.4043,0.0018,160.5693,0.1648,0.1656,0.1667,0.1669,0.1678,0.1672,0.1661,0.1656,0.1664,0.1683,0.1672,160.5694,161.5038,right,0.9139,,161.5039,162.4189,right,0.9025,,0,0,18,162.419,163.4192,0,8,8,8,1,prac_AB,L5_T1A_T2P,5,0,1,7,12,6,3,15,shirt,Did you see the shirt,0.17,0,resources/,pics/banjo.jpg,pics/chainsaw.jpg,pics/sailboat.jpg,pics/shipinabottle.jpg,pics/lightswitch01.jpg,pics/starfish01.jpg,pics/hen.jpg,pics/ball02.jpg,pics/bowlingpin.jpg,pics/hammerheadshark.jpg,pics/footballhelmet.jpg,pics/stapler10.jpg,pics/laptop01a.jpg,pics/cannon.jpg,pics/golfball.jpg,blankImage,blankImage,shirt02,13,0.1661,0.1665,0.1664,,,,,,,,,,,,,,,,,,,,,,,,,,,,,,,,,,,,,,,,,,,,,,,,,,,,,,,,,,,,,,,,,,,,,,,,,,,,,,,,,,,,,,,,,,,,,,,,,
,,,,,5e57bf76eff1680266519b35,6682b41eeb79ab8215dff63d,6682ba127ce76f3697eee04a,27,female,english,2024-07-01_15h17.03.156,ABmemTask3,2023.2.3,Linux x86_64,60.24096386,,,,,,,,,,,,,,,,,,,,,,,,,,,,,,,163.4301,164.4196,164.4197,10,164.9189,166.5867,0.0011,166.7517,0.1692,0.1635,0.1669,0.1667,0.1661,0.1681,0.1665,0.1657,0.1665,0.1678,,166.752,167.4858,right,0.7117,,167.4859,167.9516,right,0.4502,,2,0,20,167.9517,168.9539,0,9,9,9,1,prac_AB,L1_T1P_T2P,1,1,1,7,8,6,3,11,tongs,Did you see the tongs,0.16,0,resources/,pics/sewingmachine01a.jpg,pics/shovel01.jpg,pics/football.jpg,pics/hen.jpg,pics/banjo.jpg,pics/zebra.jpg,pics/tongs01b.jpg,pics/stapler11.jpg,pics/shipinabottle.jpg,pics/match.jpg,pics/candle01.jpg,blankImage,blankImage,blankImage,blankImage,blankImage,blankImage,tongs01b,5,,,,,,,,,,,,,,,,,,,,,,,,,,,,,,,,,,,,,,,,,,,,,,,,,,,,,,,,,,,,,,,,,,,,,,,,,,,,,,,,,,,,,,,,,,,,,,,,,,,,
,,,,,5e57bf76eff1680266519b35,6682b41eeb79ab8215dff63d,6682ba127ce76f3697eee04a,27,female,english,2024-07-01_15h17.03.156,ABmemTask3,2023.2.3,Linux x86_64,60.24096386,,,,,,,,,,,,,,,,,,,,,,,,,,,,,,,168.9884,169.9857,169.9857,9,170.4855,172.1356,0.002,172.2848,0.1494,0.1551,0.1447,0.1522,0.1467,0.1511,0.1499,0.1492,0.1513,0.1489,0.1498,172.285,172.9849,right,0.6709,,172.985,173.6368,left,0.6389,,0,0,22,173.637,174.6342,0,10,10,10,1,prac_AB,L1_T1A_T2A,1,0,0,7,8,6,4,12,camera,Did you see the camera,0.15,0,resources/,pics/lightswitch01.jpg,pics/table01.jpg,pics/aquarium.jpg,pics/boot02b.jpg,pics/butterfly.jpg,pics/chainsaw.jpg,pics/binoculars01b.jpg,pics/giraffe.jpg,pics/triangle.jpg,pics/microscope.jpg,pics/mummy.jpg,pics/icecube01.jpg,blankImage,blankImage,blankImage,blankImage,blankImage,camera01a,10,,,,,,,,,,,,,,,,,,,,,,,,,,,,,,,,,,,,,,,,,,,,,,,,,,,,,,,,,,,,,,,,,,,,,,,,,,,,,,,,,,,,,,,,,,,,,,,,,,,,
,,,,,5e57bf76eff1680266519b35,6682b41eeb79ab8215dff63d,6682ba127ce76f3697eee04a,27,female,english,2024-07-01_15h17.03.156,ABmemTask3,2023.2.3,Linux x86_64,60.24096386,,,,,,,,,,,,,,,,,,,,,,,,,,,,,,,174.6348,175.6339,175.634,8,176.1341,177.3347,0.001,177.4681,0.1328,0.1337,0.1334,0.1328,0.1348,0.1341,0.1337,0.1333,0.1312,,,177.4682,177.9195,right,0.4291,,177.9197,178.2338,right,0.2999,,2,0,24,178.234,179.2339,0,11,11,11,1,prac_AB,L1_T1P_T2P,1,1,1,6,7,5,3,10,shorts,Did you see the shorts,0.14,0,resources/,pics/snowshoe.jpg,pics/chainsaw.jpg,pics/sailboat.jpg,pics/ball02.jpg,pics/candleholder01.jpg,pics/shorts01.jpg,pics/stapler07.jpg,pics/peach01.jpg,pics/proboscismonkey.jpg,pics/hen.jpg,blankImage,blankImage,blankImage,blankImage,blankImage,blankImage,blankImage,shorts01,4,,,,,,,,,,,,,,,,,,,,,,,,,,,,,,,,,,,,,,,,,,,,,,,,,,,,,,,,,,,,,,,,,,,,,,,,,,,,,,,,,,,,,,,,,,,,,,,,,,,,
,,,,,5e57bf76eff1680266519b35,6682b41eeb79ab8215dff63d,6682ba127ce76f3697eee04a,27,female,english,2024-07-01_15h17.03.156,ABmemTask3,2023.2.3,Linux x86_64,60.24096386,,,,,,,,,,,,,,,,,,,,,,,,,,,,,,,179.2369,180.2333,180.2335,8,180.7334,182.3338,0.0011,182.4666,0.1353,0.1323,0.1323,0.1348,0.1333,0.1329,0.1328,0.133,0.1333,0.1333,0.1331,182.4666,183.0832,left,0.6017,,183.0832,184.7496,left,1.6519,,2,0,26,184.7496,185.7498,0,12,12,12,1,prac_AB,L5_T1P_T2A,5,1,0,5,10,4,3,13,fish,Did you see the fish,0.13,0,resources/,pics/football.jpg,pics/safetypin.jpg,pics/shovel01.jpg,pics/sink.jpg,pics/holdfast.jpg,pics/nutcracker01.jpg,pics/starfish01.jpg,pics/onion.jpg,pics/footballhelmet.jpg,pics/boot02b.jpg,pics/sewingmachine01a.jpg,pics/kangaroo.jpg,pics/banjo.jpg,blankImage,blankImage,blankImage,blankImage,holdfast,14,0.1332,,,,,,,,,,,,,,,,,,,,,,,,,,,,,,,,,,,,,,,,,,,,,,,,,,,,,,,,,,,,,,,,,,,,,,,,,,,,,,,,,,,,,,,,,,,,,,,,,,,
,,,,,5e57bf76eff1680266519b35,6682b41eeb79ab8215dff63d,6682ba127ce76f3697eee04a,27,female,english,2024-07-01_15h17.03.156,ABmemTask3,2023.2.3,Linux x86_64,60.24096386,,,,,,,,,,,,,,,,,,,,,,,,,,,,,,,185.7616,186.7499,186.7501,7,187.2492,188.2994,0.0018,188.4157,0.1168,0.1174,0.1167,0.1146,0.1166,0.1179,0.1164,0.1172,0.115,,,188.4158,189.3657,right,0.9308,,189.3657,190.2321,right,0.8517,,4,0,28,190.2321,191.232,0,13,13,13,1,prac_AB,L1_T1P_T2P,1,1,1,5,6,4,4,10,fish,Did you see the fish,0.12,0,resources/,pics/butterfly.jpg,pics/banjo.jpg,pics/leaf02a.jpg,pics/dustpan.jpg,pics/sturgeon.jpg,pics/stapler02.jpg,pics/necklace.jpg,pics/shovel01.jpg,pics/starfish01.jpg,pics/chainsaw.jpg,blankImage,blankImage,blankImage,blankImage,blankImage,blankImage,blankImage,sturgeon,3,,,,,,,,,,,,,,,,,,,,,,,,,,,,,,,,,,,,,,,,,,,,,,,,,,,,,,,,,,,,,,,,,,,,,,,,,,,,,,,,,,,,,,,,,,,,,,,,,,,,
,,,,,5e57bf76eff1680266519b35,6682b41eeb79ab8215dff63d,6682ba127ce76f3697eee04a,27,female,english,2024-07-01_15h17.03.156,ABmemTask3,2023.2.3,Linux x86_64,60.24096386,,,,,,,,,,,,,,,,,,,,,,,,,,,,,,,,,,,,,,,,,,,,,,,,,,,,,,,,,,,,,,,,,,,,,,,,,,,,,,,,,,,,,,,,,,,,,,,,,,,,,,,,,,,191.2345,210.7973,space,19.5405,,,,,,,,,,,,,,,,,,,,,,,,,,,,,,,,,,,,,,,,,,,,,,,,,,,,,,,,,,,,,,,,,,,,,,,,,,,,,,,,,,,,,,,,,,,,,
,,,,,5e57bf76eff1680266519b35,6682b41eeb79ab8215dff63d,6682ba127ce76f3697eee04a,27,female,english,2024-07-01_15h17.03.156,ABmemTask3,2023.2.3,Linux x86_64,60.24096386,,,,,,,,,,,,,,,,,,,,,,,,,,,,,,,210.8148,211.8125,211.8126,15,212.3136,215.0625,0.0013,215.3124,0.2484,0.2513,0.2502,0.2501,0.2483,0.2514,0.2491,0.2503,0.2501,0.2495,0.2502,215.3125,216.6626,right,1.3339,,216.6627,217.5453,left,0.8691,,2,0,2,217.5454,218.545,0,0,0,0,1,prac_AB,L1_T1P_T2A,1,1,0,6,7,5,5,12,cat,Did you see the cat,0.25,0,resources/,pics/shipinabottle.jpg,pics/table01.jpg,pics/dustpan.jpg,pics/golfball.jpg,pics/giraffe.jpg,pics/cat.jpg,pics/peanut01.jpg,pics/pictureframe04.jpg,pics/fanblades.jpg,pics/laptop01a.jpg,pics/ball02.jpg,pics/blender.jpg,blankImage,blankImage,blankImage,blankImage,blankImage,cat,8,,,,,,,,,,,,,,,,,,,,,,,,,,,,,,,,,,,,,,,,,,,,,,,,,,,,,,,,,,,,,,,,,,,,,,,,,,,,,,,,,,,,,,,,,,,,,,,,,,,,
,,,,,5e57bf76eff1680266519b35,6682b41eeb79ab8215dff63d,6682ba127ce76f3697eee04a,27,female,english,2024-07-01_15h17.03.156,ABmemTask3,2023.2.3,Linux x86_64,60.24096386,,,,,,,,,,,,,,,,,,,,,,,,,,,,,,,218.5457,219.5457,219.5458,14,220.0469,222.145,0.0019,222.379,0.2305,0.235,0.2328,0.2324,0.2336,0.2322,0.235,0.2335,0.2325,,,222.379,223.2625,right,0.8624,,223.2626,224.2625,right,0.9859,,4,0,4,224.2626,225.2614,0,1,1,1,1,prac_AB,L1_T1P_T2P,1,1,1,5,6,4,4,10,tree,Did you see the tree,0.24,0,resources/,pics/carrot01.jpg,pics/hammerheadshark.jpg,pics/kangaroo.jpg,pics/proboscismonkey.jpg,pics/tree.jpg,pics/stapler07.jpg,pics/siamesecat.jpg,pics/ball02.jpg,pics/pictureframe04.jpg,pics/mummy.jpg,blankImage,blankImage,blankImage,blankImage,blankImage,blankImage,blankImage,tree,1,,,,,,,,,,,,,,,,,,,,,,,,,,,,,,,,,,,,,,,,,,,,,,,,,,,,,,,,,,,,,,,,,,,,,,,,,,,,,,,,,,,,,,,,,,,,,,,,,,,,
,,,,,5e57bf76eff1680266519b35,6682b41eeb79ab8215dff63d,6682ba127ce76f3697eee04a,27,female,english,2024-07-01_15h17.03.156,ABmemTask3,2023.2.3,Linux x86_64,60.24096386,,,,,,,,,,,,,,,,,,,,,,,,,,,,,,,225.2728,226.2624,226.2627,14,226.7609,229.3285,0.001,229.5618,0.2326,0.2332,0.2351,0.2338,0.233,0.2331,0.2331,0.2325,0.235,0.2317,0.2339,229.5619,230.5287,right,0.9414,,230.5287,231.1605,right,0.6202,,2,0,6,231.1605,232.1602,0,2,2,2,1,prac_AB,L1_T1A_T2P,1,0,1,7,8,6,4,12,grapes,Did you see the grapes,0.23,0,resources/,pics/sailboat.jpg,pics/butterfly.jpg,pics/giraffe.jpg,pics/spoon01.jpg,pics/hose.jpg,pics/nutcracker01.jpg,pics/table01.jpg,pics/stapler13.jpg,pics/pencil01.jpg,pics/football.jpg,pics/triangle.jpg,pics/hairdryer02a.jpg,blankImage,blankImage,blankImage,blankImage,blankImage,grape01,6,,,,,,,,,,,,,,,,,,,,,,,,,,,,,,,,,,,,,,,,,,,,,,,,,,,,,,,,,,,,,,,,,,,,,,,,,,,,,,,,,,,,,,,,,,,,,,,,,,,,
,,,,,5e57bf76eff1680266519b35,6682b41eeb79ab8215dff63d,6682ba127ce76f3697eee04a,27,female,english,2024-07-01_15h17.03.156,ABmemTask3,2023.2.3,Linux x86_64,60.24096386,,,,,,,,,,,,,,,,,,,,,,,,,,,,,,,232.1609,233.1608,233.1609,13,233.6611,236.6939,0.0017,236.9109,0.2151,0.2164,0.2182,0.2159,0.2169,0.2149,0.2174,0.2166,0.2169,0.2166,0.2159,236.911,237.6429,right,0.7103,,237.643,238.0427,right,0.3882,,4,0,8,238.0427,239.0426,0,3,3,3,1,prac_AB,L5_T1P_T2P,5,1,1,7,12,6,3,15,Human skull,Did you see the Human skull,0.22,0,resources/,pics/peach01.jpg,pics/proboscismonkey.jpg,pics/hose.jpg,pics/laptop01a.jpg,pics/hammerheadshark.jpg,pics/nutcracker01.jpg,pics/humanskull.jpg,pics/table01.jpg,pics/icecube01.jpg,pics/boot02b.jpg,pics/calendar.jpg,pics/stapler03a.jpg,pics/ashtray01.jpg,pics/giraffe.jpg,pics/dromedary.jpg,blankImage,blankImage,humanskull,12,0.2182,0.2166,0.2162,,,,,,,,,,,,,,,,,,,,,,,,,,,,,,,,,,,,,,,,,,,,,,,,,,,,,,,,,,,,,,,,,,,,,,,,,,,,,,,,,,,,,,,,,,,,,,,,,
,,,,,5e57bf76eff1680266519b35,6682b41eeb79ab8215dff63d,6682ba127ce76f3697eee04a,27,female,english,2024-07-01_15h17.03.156,ABmemTask3,2023.2.3,Linux x86_64,60.24096386,,,,,,,,,,,,,,,,,,,,,,,,,,,,,,,239.0535,240.0434,240.0434,13,240.5433,242.7095,0.0019,242.9251,0.2156,0.2157,0.2177,0.216,0.2158,0.2187,0.2163,0.2161,0.2156,0.217,,242.9251,243.6932,left,0.7405,,243.6933,244.5092,right,0.7999,,6,0,10,244.5093,245.5104,0,4,4,4,1,prac_AB,L1_T1A_T2P,1,0,1,7,8,6,3,11,dog,Did you see the dog,0.21,0,resources/,pics/ball02.jpg,pics/binder03b.jpg,pics/dromedary.jpg,pics/shipinabottle.jpg,pics/proboscismonkey.jpg,pics/laptop01a.jpg,pics/chainsaw.jpg,pics/stapler13.jpg,pics/nutcracker01.jpg,pics/carrot01.jpg,pics/calendar.jpg,blankImage,blankImage,blankImage,blankImage,blankImage,blankImage,saintbernard,7,,,,,,,,,,,,,,,,,,,,,,,,,,,,,,,,,,,,,,,,,,,,,,,,,,,,,,,,,,,,,,,,,,,,,,,,,,,,,,,,,,,,,,,,,,,,,,,,,,,,
,,,,,5e57bf76eff1680266519b35,6682b41eeb79ab8215dff63d,6682ba127ce76f3697eee04a,27,female,english,2024-07-01_15h17.03.156,ABmemTask3,2023.2.3,Linux x86_64,60.24096386,,,,,,,,,,,,,,,,,,,,,,,,,,,,,,,245.5212,246.5248,246.5249,12,247.0249,249.8925,0.0021,250.0917,0.2487,0.2008,0.1992,0.2191,0.197,0.2011,0.2005,0.2009,0.1995,0.1983,0.2026,250.0917,252.877,right,2.7582,,252.8772,253.1757,right,0.2833,,8,0,12,253.1758,254.175,0,5,5,5,1,prac_AB,L5_T1P_T2P,5,1,1,5,10,4,5,15,grater,Did you see the grater,0.2,0,resources/,pics/pencil01.jpg,pics/laptop01a.jpg,pics/hammerheadshark.jpg,pics/cork02.jpg,pics/grater01a.jpg,pics/shipinabottle.jpg,pics/binder03b.jpg,pics/dromedary.jpg,pics/pictureframe04.jpg,pics/stapler04b.jpg,pics/fanblades.jpg,pics/aquarium.jpg,pics/hairdryer02a.jpg,pics/lightswitch01.jpg,pics/piggybank.jpg,blankImage,blankImage,grater01a,11,0.198,0.2006,0.1994,,,,,,,,,,,,,,,,,,,,,,,,,,,,,,,,,,,,,,,,,,,,,,,,,,,,,,,,,,,,,,,,,,,,,,,,,,,,,,,,,,,,,,,,,,,,,,,,,
,,,,,5e57bf76eff1680266519b35,6682b41eeb79ab8215dff63d,6682ba127ce76f3697eee04a,27,female,english,2024-07-01_15h17.03.156,ABmemTask3,2023.2.3,Linux x86_64,60.24096386,,,,,,,,,,,,,,,,,,,,,,,,,,,,,,,254.1865,255.1908,255.1908,11,255.6903,257.1574,0.0027,257.3404,0.183,0.1817,0.1842,0.1832,0.1831,0.1843,0.1822,0.1831,,,,257.3404,258.2901,right,0.9253,,258.2902,258.8566,left,0.5483,,10,0,14,258.8567,259.8576,0,6,6,6,1,prac_AB,L1_T1P_T2A,1,1,0,4,5,3,4,9,chalk,Did you see the chalk,0.19,0,resources/,pics/necklace.jpg,pics/starfish01.jpg,pics/safetypin.jpg,pics/chalk.jpg,pics/candleholder01.jpg,pics/bowtie.jpg,pics/match.jpg,pics/candle01.jpg,pics/pencilsharpener02a.jpg,blankImage,blankImage,blankImage,blankImage,blankImage,blankImage,blankImage,blankImage,chalk,9,,,,,,,,,,,,,,,,,,,,,,,,,,,,,,,,,,,,,,,,,,,,,,,,,,,,,,,,,,,,,,,,,,,,,,,,,,,,,,,,,,,,,,,,,,,,,,,,,,,,
,,,,,5e57bf76eff1680266519b35,6682b41eeb79ab8215dff63d,6682ba127ce76f3697eee04a,27,female,english,2024-07-01_15h17.03.156,ABmemTask3,2023.2.3,Linux x86_64,60.24096386,,,,,,,,,,,,,,,,,,,,,,,,,,,,,,,259.8585,260.8572,260.8573,11,261.3569,263.0072,0.0019,263.2062,0.183,0.1846,0.1833,0.1817,0.1838,0.1832,0.183,0.1828,0.1832,,,263.2063,263.659,right,0.4344,,263.6591,263.8903,right,0.2116,,12,0,16,263.8904,264.8896,0,7,7,7,1,prac_AB,L1_T1P_T2P,1,1,1,5,6,4,4,10,pants,Did you see the pants,0.18,0,resources/,pics/kangaroo.jpg,pics/safetypin.jpg,pics/salmon.jpg,pics/sandbarshark.jpg,pics/pants.jpg,pics/stapler03a.jpg,pics/sink.jpg,pics/calendar.jpg,pics/butterfly.jpg,pics/fanblades.jpg,blankImage,blankImage,blankImage,blankImage,blankImage,blankImage,blankImage,pants,2,,,,,,,,,,,,,,,,,,,,,,,,,,,,,,,,,,,,,,,,,,,,,,,,,,,,,,,,,,,,,,,,,,,,,,,,,,,,,,,,,,,,,,,,,,,,,,,,,,,,
,,,,,5e57bf76eff1680266519b35,6682b41eeb79ab8215dff63d,6682ba127ce76f3697eee04a,27,female,english,2024-07-01_15h17.03.156,ABmemTask3,2023.2.3,Linux x86_64,60.24096386,,,,,,,,,,,,,,,,,,,,,,,,,,,,,,,264.8908,265.8902,265.8903,10,266.3896,268.7242,0.0043,268.8887,0.1633,0.1668,0.1678,0.1644,0.1668,0.1668,0.1669,0.1676,0.1661,0.1658,0.1674,268.8888,269.7221,left,0.8126,,269.7223,270.0568,right,0.3257,,14,0,18,270.0569,271.0564,0,8,8,8,1,prac_AB,L5_T1A_T2P,5,0,1,7,12,6,3,15,shirt,Did you see the shirt,0.17,0,resources/,pics/banjo.jpg,pics/chainsaw.jpg,pics/sailboat.jpg,pics/shipinabottle.jpg,pics/lightswitch01.jpg,pics/starfish01.jpg,pics/hen.jpg,pics/ball02.jpg,pics/bowlingpin.jpg,pics/hammerheadshark.jpg,pics/footballhelmet.jpg,pics/stapler10.jpg,pics/laptop01a.jpg,pics/cannon.jpg,pics/golfball.jpg,blankImage,blankImage,shirt02,13,0.1658,0.1678,0.168,,,,,,,,,,,,,,,,,,,,,,,,,,,,,,,,,,,,,,,,,,,,,,,,,,,,,,,,,,,,,,,,,,,,,,,,,,,,,,,,,,,,,,,,,,,,,,,,,
,,,,,5e57bf76eff1680266519b35,6682b41eeb79ab8215dff63d,6682ba127ce76f3697eee04a,27,female,english,2024-07-01_15h17.03.156,ABmemTask3,2023.2.3,Linux x86_64,60.24096386,,,,,,,,,,,,,,,,,,,,,,,,,,,,,,,271.067,272.0568,272.0569,10,272.5548,274.2236,0.0022,274.3887,0.1658,0.1674,0.1663,0.1657,0.1673,0.1673,0.1666,0.1664,0.1657,0.1682,,274.3887,276.1255,right,1.7197,,276.1255,276.6378,left,0.4937,,14,0,20,276.6379,277.6379,0,9,9,9,1,prac_AB,L1_T1P_T2P,1,1,1,7,8,6,3,11,tongs,Did you see the tongs,0.16,0,resources/,pics/sewingmachine01a.jpg,pics/shovel01.jpg,pics/football.jpg,pics/hen.jpg,pics/banjo.jpg,pics/zebra.jpg,pics/tongs01b.jpg,pics/stapler11.jpg,pics/shipinabottle.jpg,pics/match.jpg,pics/candle01.jpg,blankImage,blankImage,blankImage,blankImage,blankImage,blankImage,tongs01b,5,,,,,,,,,,,,,,,,,,,,,,,,,,,,,,,,,,,,,,,,,,,,,,,,,,,,,,,,,,,,,,,,,,,,,,,,,,,,,,,,,,,,,,,,,,,,,,,,,,,,
,,,,,5e57bf76eff1680266519b35,6682b41eeb79ab8215dff63d,6682ba127ce76f3697eee04a,27,female,english,2024-07-01_15h17.03.156,ABmemTask3,2023.2.3,Linux x86_64,60.24096386,,,,,,,,,,,,,,,,,,,,,,,,,,,,,,,277.6542,278.6546,278.6547,9,279.1542,280.8054,0.0016,280.9541,0.1505,0.1483,0.1517,0.1481,0.1507,0.1518,0.1513,0.1479,0.1487,0.151,0.1499,280.9542,282.5869,left,1.601,,282.5871,283.0381,left,0.441,,16,0,22,283.0381,284.0369,0,10,10,10,1,prac_AB,L1_T1A_T2A,1,0,0,7,8,6,4,12,camera,Did you see the camera,0.15,0,resources/,pics/lightswitch01.jpg,pics/table01.jpg,pics/aquarium.jpg,pics/boot02b.jpg,pics/butterfly.jpg,pics/chainsaw.jpg,pics/binoculars01b.jpg,pics/giraffe.jpg,pics/triangle.jpg,pics/microscope.jpg,pics/mummy.jpg,pics/icecube01.jpg,blankImage,blankImage,blankImage,blankImage,blankImage,camera01a,10,,,,,,,,,,,,,,,,,,,,,,,,,,,,,,,,,,,,,,,,,,,,,,,,,,,,,,,,,,,,,,,,,,,,,,,,,,,,,,,,,,,,,,,,,,,,,,,,,,,,
,,,,,5e57bf76eff1680266519b35,6682b41eeb79ab8215dff63d,6682ba127ce76f3697eee04a,27,female,english,2024-07-01_15h17.03.156,ABmemTask3,2023.2.3,Linux x86_64,60.24096386,,,,,,,,,,,,,,,,,,,,,,,,,,,,,,,284.0488,285.0371,285.0371,8,285.5364,286.7383,0.0011,286.8697,0.1345,0.1328,0.1324,0.1343,0.1327,0.1326,0.1336,0.1339,0.1341,,,286.8699,287.4201,right,0.5345,,287.4202,287.6697,right,0.2317,,18,0,24,287.6697,288.6697,0,11,11,11,1,prac_AB,L1_T1P_T2P,1,1,1,6,7,5,3,10,shorts,Did you see the shorts,0.14,0,resources/,pics/snowshoe.jpg,pics/chainsaw.jpg,pics/sailboat.jpg,pics/ball02.jpg,pics/candleholder01.jpg,pics/shorts01.jpg,pics/stapler07.jpg,pics/peach01.jpg,pics/proboscismonkey.jpg,pics/hen.jpg,blankImage,blankImage,blankImage,blankImage,blankImage,blankImage,blankImage,shorts01,4,,,,,,,,,,,,,,,,,,,,,,,,,,,,,,,,,,,,,,,,,,,,,,,,,,,,,,,,,,,,,,,,,,,,,,,,,,,,,,,,,,,,,,,,,,,,,,,,,,,,
,,,,,5e57bf76eff1680266519b35,6682b41eeb79ab8215dff63d,6682ba127ce76f3697eee04a,27,female,english,2024-07-01_15h17.03.156,ABmemTask3,2023.2.3,Linux x86_64,60.24096386,,,,,,,,,,,,,,,,,,,,,,,,,,,,,,,288.6705,289.6708,289.6708,8,290.1705,291.7703,0.0015,291.9025,0.1313,0.1331,0.1349,0.1341,0.1309,0.1332,0.1342,0.1353,0.1319,0.133,0.1324,291.9025,293.0189,right,1.0952,,293.0189,293.3368,left,0.2977,,20,0,26,293.3369,294.3361,0,12,12,12,1,prac_AB,L5_T1P_T2A,5,1,0,5,10,4,3,13,fish,Did you see the fish,0.13,0,resources/,pics/football.jpg,pics/safetypin.jpg,pics/shovel01.jpg,pics/sink.jpg,pics/holdfast.jpg,pics/nutcracker01.jpg,pics/starfish01.jpg,pics/onion.jpg,pics/footballhelmet.jpg,pics/boot02b.jpg,pics/sewingmachine01a.jpg,pics/kangaroo.jpg,pics/banjo.jpg,blankImage,blankImage,blankImage,blankImage,holdfast,14,0.1345,,,,,,,,,,,,,,,,,,,,,,,,,,,,,,,,,,,,,,,,,,,,,,,,,,,,,,,,,,,,,,,,,,,,,,,,,,,,,,,,,,,,,,,,,,,,,,,,,,,
,,,,,5e57bf76eff1680266519b35,6682b41eeb79ab8215dff63d,6682ba127ce76f3697eee04a,27,female,english,2024-07-01_15h17.03.156,ABmemTask3,2023.2.3,Linux x86_64,60.24096386,,,,,,,,,,,,,,,,,,,,,,,,,,,,,,,294.3373,295.3363,295.3364,7,295.8365,296.8862,0.0016,297.0016,0.1158,0.1167,0.1155,0.1179,0.1163,0.1163,0.1175,0.1159,0.1164,,,297.0017,298.1517,right,1.1378,,298.1518,298.4181,left,0.2503,,20,0,28,298.4181,299.4191,0,13,13,13,1,prac_AB,L1_T1P_T2P,1,1,1,5,6,4,4,10,fish,Did you see the fish,0.12,0,resources/,pics/butterfly.jpg,pics/banjo.jpg,pics/leaf02a.jpg,pics/dustpan.jpg,pics/sturgeon.jpg,pics/stapler02.jpg,pics/necklace.jpg,pics/shovel01.jpg,pics/starfish01.jpg,pics/chainsaw.jpg,blankImage,blankImage,blankImage,blankImage,blankImage,blankImage,blankImage,sturgeon,3,,,,,,,,,,,,,,,,,,,,,,,,,,,,,,,,,,,,,,,,,,,,,,,,,,,,,,,,,,,,,,,,,,,,,,,,,,,,,,,,,,,,,,,,,,,,,,,,,,,,
,,,,,5e57bf76eff1680266519b35,6682b41eeb79ab8215dff63d,6682ba127ce76f3697eee04a,27,female,english,2024-07-01_15h17.03.156,ABmemTask3,2023.2.3,Linux x86_64,60.24096386,,,,,,,,,,,,,,,,,,,,,,,,,,,,,,,,,,,,,,,,,,,,,,,,,,,,,,,,,,,,,,,,,,,,,,,,,,,,,,,,,,,,,,,,,,,,,,,,,,,,,,,,,,,299.4193,344.4796,space,45.0392,,,,,,,,,,,,,,,,,,,,,,,,,,,,,,,,,,,,,,,,,,,,,,,,,,,,,,,,,,,,,,,,,,,,,,,,,,,,,,,,,,,,,,,,,,,,,
,,,,,5e57bf76eff1680266519b35,6682b41eeb79ab8215dff63d,6682ba127ce76f3697eee04a,27,female,english,2024-07-01_15h17.03.156,ABmemTask3,2023.2.3,Linux x86_64,60.24096386,,,,,,,,,,,,,,,,,,,,,,,,,,,,,,,,,,,,,,,,,,,,,,,,,,,,,,,,,,,,,,,,,,,,,,,,,,,,,,,,,,,,,,,,,,,,,,,,,,,,,,,,,,,344.4974,344.5027,,,,,,,,,,,,,,,,,,,,,,,,,,,,,,,,,,,,,,,,,,,,,,,,,,,,,,,,,,,,,,,,,,,,,,,,,,,,,,,,,,,,,,,,,,,,,,,
,,,,,5e57bf76eff1680266519b35,6682b41eeb79ab8215dff63d,6682ba127ce76f3697eee04a,27,female,english,2024-07-01_15h17.03.156,ABmemTask3,2023.2.3,Linux x86_64,60.24096386,,,,,,,,,,,,,,,,,,,,,,,,,,,,,,,,,,,,,,,,,,,,,,,,,,,,,,,,,,,,,,,,,,,,,,,,,,,,,,,,,,,,,,,,,,,,,,,,,,,,,,,,,,,344.51,344.5101,,,,,,,,,,,,,,,,,,,,,,,,,,,,,,,,,,,,,,,,,,,,,,,,,,,,,,,,,,,,,,,,,,,,,,,,,,,,,,,,,,,,,,,,,,,,,,,
,,,,,5e57bf76eff1680266519b35,6682b41eeb79ab8215dff63d,6682ba127ce76f3697eee04a,27,female,english,2024-07-01_15h17.03.156,ABmemTask3,2023.2.3,Linux x86_64,60.24096386,,,,,,,,,,,,,,,,,,,,,,,,,,,,,,,,,,,,,,,,,,,,,,,,,,,,,,,,,,,,,,,,,,,,,,,,,,,,,,,,,,,,,,,,,,,,,,,,,,,,,,,,,,,344.5149,344.515,,,,,,,,,,,,,,,,,,,,,,,,,,,,,,,,,,,,,,,,,,,,,,,,,,,,,,,,,,,,,,,,,,,,,,,,,,,,,,,,,,,,,,,,,,,,,,,
,,,,,5e57bf76eff1680266519b35,6682b41eeb79ab8215dff63d,6682ba127ce76f3697eee04a,27,female,english,2024-07-01_15h17.03.156,ABmemTask3,2023.2.3,Linux x86_64,60.24096386,,,,,,,,,,,,,,,,,,,,,,,,,,,,,,,,,,,,,,,,,,,,,,,,,,,,,,,,,,,,,,,,,,,,,,,,,,,,,,,,,,,,,,,,,,,,,,,,,,,,,,,,,,,344.518,344.5182,,,,,,,,,,,,,,,,,,,,,,,,,,,,,,,,,,,,,,,,,,,,,,,,,,,,,,,,,,,,,,,,,,,,,,,,,,,,,,,,,,,,,,,,,,,,,,,
,,,,,5e57bf76eff1680266519b35,6682b41eeb79ab8215dff63d,6682ba127ce76f3697eee04a,27,female,english,2024-07-01_15h17.03.156,ABmemTask3,2023.2.3,Linux x86_64,60.24096386,,,,,,,,,,,,,,,,,,,,,,,,,,,,,,,,,,,,,,,,,,,,,,,,,,,,,,,,,,,,,,,,,,,,,,,,,,,,,,,,,,,,,,,,,,,,,,,,,,,,,,,,,,,344.5218,344.522,,,,,,,,,,,,,,,,,,,,,,,,,,,,,,,,,,,,,,,,,,,,,,,,,,,,,,,,,,,,,,,,,,,,,,,,,,,,,,,,,,,,,,,,,,,,,,,
,,,,,5e57bf76eff1680266519b35,6682b41eeb79ab8215dff63d,6682ba127ce76f3697eee04a,27,female,english,2024-07-01_15h17.03.156,ABmemTask3,2023.2.3,Linux x86_64,60.24096386,,,,,,,,,,,,,,,,,,,,,,,,,,,,,,,,,,,,,,,,,,,,,,,,,,,,,,,,,,,,,,,,,,,,,,,,,,,,,,,,,,,,,,,,,,,,,,,,,,,,,,,,,,,344.5248,344.525,,,,,,,,,,,,,,,,,,,,,,,,,,,,,,,,,,,,,,,,,,,,,,,,,,,,,,,,,,,,,,,,,,,,,,,,,,,,,,,,,,,,,,,,,,,,,,,
,,,,,5e57bf76eff1680266519b35,6682b41eeb79ab8215dff63d,6682ba127ce76f3697eee04a,27,female,english,2024-07-01_15h17.03.156,ABmemTask3,2023.2.3,Linux x86_64,60.24096386,,,,,,,,,,,,,,,,,,,,,,,,,,,,,,,,,,,,,,,,,,,,,,,,,,,,,,,,,,,,,,,,,,,,,,,,,,,,,,,,,,,,,,,,,,,,,,,,,,,,,,,,,,,344.5281,344.5281,,,,,,,,,,,,,,,,,,,,,,,,,,,,,,,,,,,,,,,,,,,,,,,,,,,,,,,,,,,,,,,,,,,,,,,,,,,,,,,,,,,,,,,,,,,,,,,
,,,,,5e57bf76eff1680266519b35,6682b41eeb79ab8215dff63d,6682ba127ce76f3697eee04a,27,female,english,2024-07-01_15h17.03.156,ABmemTask3,2023.2.3,Linux x86_64,60.24096386,,,,,,,,,,,,,,,,,,,,,,,,,,,,,,,,,,,,,,,,,,,,,,,,,,,,,,,,,,,,,,,,,,,,,,,,,,,,,,,,,,,,,,,,,,,,,,,,,,,,,,,,,,,344.5313,344.5314,,,,,,,,,,,,,,,,,,,,,,,,,,,,,,,,,,,,,,,,,,,,,,,,,,,,,,,,,,,,,,,,,,,,,,,,,,,,,,,,,,,,,,,,,,,,,,,
,,,,,5e57bf76eff1680266519b35,6682b41eeb79ab8215dff63d,6682ba127ce76f3697eee04a,27,female,english,2024-07-01_15h17.03.156,ABmemTask3,2023.2.3,Linux x86_64,60.24096386,,,,,,,,,,,,,,,,,,,,,,,,,,,,,,,,,,,,,,,,,,,,,,,,,,,,,,,,,,,,,,,,,,,,,,,,,,,,,,,,,,,,,,,,,,,,,,,,,,,,,,,,,,,344.535,344.5352,,,,,,,,,,,,,,,,,,,,,,,,,,,,,,,,,,,,,,,,,,,,,,,,,,,,,,,,,,,,,,,,,,,,,,,,,,,,,,,,,,,,,,,,,,,,,,,
,,,,,5e57bf76eff1680266519b35,6682b41eeb79ab8215dff63d,6682ba127ce76f3697eee04a,27,female,english,2024-07-01_15h17.03.156,ABmemTask3,2023.2.3,Linux x86_64,60.24096386,,,,,,,,,,,,,,,,,,,,,,,,,,,,,,,,,,,,,,,,,,,,,,,,,,,,,,,,,,,,,,,,,,,,,,,,,,,,,,,,,,,,,,,,,,,,,,,,,,,,,,,,,,,344.5379,344.538,,,,,,,,,,,,,,,,,,,,,,,,,,,,,,,,,,,,,,,,,,,,,,,,,,,,,,,,,,,,,,,,,,,,,,,,,,,,,,,,,,,,,,,,,,,,,,,
,,,,,5e57bf76eff1680266519b35,6682b41eeb79ab8215dff63d,6682ba127ce76f3697eee04a,27,female,english,2024-07-01_15h17.03.156,ABmemTask3,2023.2.3,Linux x86_64,60.24096386,,,,,,,,,,,,,,,,,,,,,,,,,,,,,,,,,,,,,,,,,,,,,,,,,,,,,,,,,,,,,,,,,,,,,,,,,,,,,,,,,,,,,,,,,,,,,,,,,,,,,,,,,,,344.5407,344.5408,,,,,,,,,,,,,,,,,,,,,,,,,,,,,,,,,,,,,,,,,,,,,,,,,,,,,,,,,,,,,,,,,,,,,,,,,,,,,,,,,,,,,,,,,,,,,,,
,,,,,5e57bf76eff1680266519b35,6682b41eeb79ab8215dff63d,6682ba127ce76f3697eee04a,27,female,english,2024-07-01_15h17.03.156,ABmemTask3,2023.2.3,Linux x86_64,60.24096386,,,,,,,,,,,,,,,,,,,,,,,,,,,,,,,,,,,,,,,,,,,,,,,,,,,,,,,,,,,,,,,,,,,,,,,,,,,,,,,,,,,,,,,,,,,,,,,,,,,,,,,,,,,344.5447,344.5449,,,,,,,,,,,,,,,,,,,,,,,,,,,,,,,,,,,,,,,,,,,,,,,,,,,,,,,,,,,,,,,,,,,,,,,,,,,,,,,,,,,,,,,,,,,,,,,
,,,,,5e57bf76eff1680266519b35,6682b41eeb79ab8215dff63d,6682ba127ce76f3697eee04a,27,female,english,2024-07-01_15h17.03.156,ABmemTask3,2023.2.3,Linux x86_64,60.24096386,,,,,,,,,,,,,,,,,,,,,,,,,,,,,,,,,,,,,,,,,,,,,,,,,,,,,,,,,,,,,,,,,,,,,,,,,,,,,,,,,,,,,,,,,,,,,,,,,,,,,,,,,,,344.55,344.5502,,,,,,,,,,,,,,,,,,,,,,,,,,,,,,,,,,,,,,,,,,,,,,,,,,,,,,,,,,,,,,,,,,,,,,,,,,,,,,,,,,,,,,,,,,,,,,,
,,,,,5e57bf76eff1680266519b35,6682b41eeb79ab8215dff63d,6682ba127ce76f3697eee04a,27,female,english,2024-07-01_15h17.03.156,ABmemTask3,2023.2.3,Linux x86_64,60.24096386,,,,,,,,,,,,,,,,,,,,,,,,,,,,,,,,,,,,,,,,,,,,,,,,,,,,,,,,,,,,,,,,,,,,,,,,,,,,,,,,,,,,,,,,,,,,,,,,,,,,,,,,,,,344.5526,344.5527,,,,,,,,,,,,,,,,,,,,,,,,,,,,,,,,,,,,,,,,,,,,,,,,,,,,,,,,,,,,,,,,,,,,,,,,,,,,,,,,,,,,,,,,,,,,,,,
,,,,,5e57bf76eff1680266519b35,6682b41eeb79ab8215dff63d,6682ba127ce76f3697eee04a,27,female,english,2024-07-01_15h17.03.156,ABmemTask3,2023.2.3,Linux x86_64,60.24096386,,,,,,,,,,,,,,,,,,,,,,,,,,,,,,,,,,,,,,,,,,,,,,,,,,,,,,,,,,,,,,,,,,,,,,,,,,,,,,,,,,,,,,,,,,,,,,,,,,,,,,,,,,,344.5546,344.5547,,,,,,,,,,,,,,,,,,,,,,,,,,,,,,,,,,,,,,,,,,,,,,,,,,,,,,,,,,,,,,,,,,,,,,,,,,,,,,,,,,,,,,,,,,,,,,,
,,,,,5e57bf76eff1680266519b35,6682b41eeb79ab8215dff63d,6682ba127ce76f3697eee04a,27,female,english,2024-07-01_15h17.03.156,ABmemTask3,2023.2.3,Linux x86_64,60.24096386,,,,,,,,,,,,,,,,,,,,,,,,,,,,,,,,,,,,,,,,,,,,,,,,,,,,,,,,,,,,,,,,,,,,,,,,,,,,,,,,,,,,,,,,,,,,,,,,,,,,,,,,,,,344.5594,344.5596,,,,,,,,,,,,,,,,,,,,,,,,,,,,,,,,,,,,,,,,,,,,,,,,,,,,,,,,,,,,,,,,,,,,,,,,,,,,,,,,,,,,,,,,,,,,,,,
,,,,,5e57bf76eff1680266519b35,6682b41eeb79ab8215dff63d,6682ba127ce76f3697eee04a,27,female,english,2024-07-01_15h17.03.156,ABmemTask3,2023.2.3,Linux x86_64,60.24096386,,,,,,,,,,,,,,,,,,,,,,,,,,,,,,,,,,,,,,,,,,,,,,,,,,,,,,,,,,,,,,,,,,,,,,,,,,,,,,,,,,,,,,,,,,,,,,,,,,,,,,,,,,,344.562,344.5621,,,,,,,,,,,,,,,,,,,,,,,,,,,,,,,,,,,,,,,,,,,,,,,,,,,,,,,,,,,,,,,,,,,,,,,,,,,,,,,,,,,,,,,,,,,,,,,
,,,,,5e57bf76eff1680266519b35,6682b41eeb79ab8215dff63d,6682ba127ce76f3697eee04a,27,female,english,2024-07-01_15h17.03.156,ABmemTask3,2023.2.3,Linux x86_64,60.24096386,,,,,,,,,,,,,,,,,,,,,,,,,,,,,,,,,,,,,,,,,,,,,,,,,,,,,,,,,,,,,,,,,,,,,,,,,,,,,,,,,,,,,,,,,,,,,,,,,,,,,,,,,,,344.5643,344.5644,,,,,,,,,,,,,,,,,,,,,,,,,,,,,,,,,,,,,,,,,,,,,,,,,,,,,,,,,,,,,,,,,,,,,,,,,,,,,,,,,,,,,,,,,,,,,,,
,,,,,5e57bf76eff1680266519b35,6682b41eeb79ab8215dff63d,6682ba127ce76f3697eee04a,27,female,english,2024-07-01_15h17.03.156,ABmemTask3,2023.2.3,Linux x86_64,60.24096386,,,,,,,,,,,,,,,,,,,,,,,,,,,,,,,,,,,,,,,,,,,,,,,,,,,,,,,,,,,,,,,,,,,,,,,,,,,,,,,,,,,,,,,,,,,,,,,,,,,,,,,,,,,344.5677,344.5678,,,,,,,,,,,,,,,,,,,,,,,,,,,,,,,,,,,,,,,,,,,,,,,,,,,,,,,,,,,,,,,,,,,,,,,,,,,,,,,,,,,,,,,,,,,,,,,
,,,,,5e57bf76eff1680266519b35,6682b41eeb79ab8215dff63d,6682ba127ce76f3697eee04a,27,female,english,2024-07-01_15h17.03.156,ABmemTask3,2023.2.3,Linux x86_64,60.24096386,,,,,,,,,,,,,,,,,,,,,,,,,,,,,,,,,,,,,,,,,,,,,,,,,,,,,,,,,,,,,,,,,,,,,,,,,,,,,,,,,,,,,,,,,,,,,,,,,,,,,,,,,,,344.5711,344.5713,,,,,,,,,,,,,,,,,,,,,,,,,,,,,,,,,,,,,,,,,,,,,,,,,,,,,,,,,,,,,,,,,,,,,,,,,,,,,,,,,,,,,,,,,,,,,,,
,,,,,5e57bf76eff1680266519b35,6682b41eeb79ab8215dff63d,6682ba127ce76f3697eee04a,27,female,english,2024-07-01_15h17.03.156,ABmemTask3,2023.2.3,Linux x86_64,60.24096386,,,,,,,,,,,,,,,,,,,,,,,,,,,,,,,,,,,,,,,,,,,,,,,,,,,,,,,,,,,,,,,,,,,,,,,,,,,,,,,,,,,,,,,,,,,,,,,,,,,,,,,,,,,,,,,,344.5721,361.9965,space,17.3757,,,,,,,,,,,,,,,,,,,,,,,,,,,,,,,,,,,,,,,,,,,,,,,,,,,,,,,,,,,,,,,,,,,,,,,,,,,,,,,,,,,,,,,,
,,,,,5e57bf76eff1680266519b35,6682b41eeb79ab8215dff63d,6682ba127ce76f3697eee04a,27,female,english,2024-07-01_15h17.03.156,ABmemTask3,2023.2.3,Linux x86_64,60.24096386,,,,,,,,,,,,,,,,,,,,,,,,,,,,,,,,,362.0174,602,362.5105,,,,,,,,,,,,,,,,,,,,,,,,,,0,,,,,,,,,prac_MEM,old,,,,,,,,,,,10,,,,,,,,,,,,,,,,,,,,,,,,,,,,,,,,,,,362.5108,367.5609,3,6,5.0196,,367.5621,368.5615,0,0,0,4,1,5,1,pics/tongs01b.jpg,,,,,,,,,,,,,,,,,,,,,,,,,,,,,,,,,,,,,,,,,,,,,,,,,,,,,,,,,,,,,,,,,,,,,,,
,,,,,5e57bf76eff1680266519b35,6682b41eeb79ab8215dff63d,6682ba127ce76f3697eee04a,27,female,english,2024-07-01_15h17.03.156,ABmemTask3,2023.2.3,Linux x86_64,60.24096386,,,,,,,,,,,,,,,,,,,,,,,,,,,,,,,,,368.573,602,369.0608,,,,,,,,,,,,,,,,,,,,,,,,,,0,,,,,,,,,prac_MEM,old,,,,,,,,,,,10,,,,,,,,,,,,,,,,,,,,,,,,,,,,,,,,,,,369.0608,370.6433,6,6,1.5605,,370.6442,371.6423,0,1,1,0,1,1,1,pics/tree.jpg,,,,,,,,,,,,,,,,,,,,,,,,,,,,,,,,,,,,,,,,,,,,,,,,,,,,,,,,,,,,,,,,,,,,,,,
,,,,,5e57bf76eff1680266519b35,6682b41eeb79ab8215dff63d,6682ba127ce76f3697eee04a,27,female,english,2024-07-01_15h17.03.156,ABmemTask3,2023.2.3,Linux x86_64,60.24096386,,,,,,,,,,,,,,,,,,,,,,,,,,,,,,,,,371.6432,602,372.1422,,,,,,,,,,,,,,,,,,,,,,,,,,0,,,,,,,,,prac_MEM,old,,,,,,,,,,,10,,,,,,,,,,,,,,,,,,,,,,,,,,,,,,,,,,,372.1423,375.7609,7,4,3.6001,,375.7617,376.7584,0,2,2,2,1,3,1,pics/sturgeon.jpg,,,,,,,,,,,,,,,,,,,,,,,,,,,,,,,,,,,,,,,,,,,,,,,,,,,,,,,,,,,,,,,,,,,,,,,
,,,,,5e57bf76eff1680266519b35,6682b41eeb79ab8215dff63d,6682ba127ce76f3697eee04a,27,female,english,2024-07-01_15h17.03.156,ABmemTask3,2023.2.3,Linux x86_64,60.24096386,,,,,,,,,,,,,,,,,,,,,,,,,,,,,,,,,376.7699,602,377.2589,,,,,,,,,,,,,,,,,,,,,,,,,,0,,,,,,,,,prac_MEM,old,,,,,,,,,,,10,,,,,,,,,,,,,,,,,,,,,,,,,,,,,,,,,,,377.259,380.0754,6,3,2.7908,,380.0767,381.0742,0,3,3,3,1,4,1,pics/shorts01.jpg,,,,,,,,,,,,,,,,,,,,,,,,,,,,,,,,,,,,,,,,,,,,,,,,,,,,,,,,,,,,,,,,,,,,,,,
,,,,,5e57bf76eff1680266519b35,6682b41eeb79ab8215dff63d,6682ba127ce76f3697eee04a,27,female,english,2024-07-01_15h17.03.156,ABmemTask3,2023.2.3,Linux x86_64,60.24096386,,,,,,,,,,,,,,,,,,,,,,,,,,,,,,,,,381.0849,602,381.5752,,,,,,,,,,,,,,,,,,,,,,,,,,0,,,,,,,,,prac_MEM,new,,,,,,,,,,,10,,,,,,,,,,,,,,,,,,,,,,,,,,,,,,,,,,,381.5753,383.827,8,2,2.2233,,383.8275,384.8252,0,4,4,7,1,999,999,pics/cherry01.jpg,,,,,,,,,,,,,,,,,,,,,,,,,,,,,,,,,,,,,,,,,,,,,,,,,,,,,,,,,,,,,,,,,,,,,,,
,,,,,5e57bf76eff1680266519b35,6682b41eeb79ab8215dff63d,6682ba127ce76f3697eee04a,27,female,english,2024-07-01_15h17.03.156,ABmemTask3,2023.2.3,Linux x86_64,60.24096386,,,,,,,,,,,,,,,,,,,,,,,,,,,,,,,,,384.8356,602,385.3242,,,,,,,,,,,,,,,,,,,,,,,,,,0,,,,,,,,,prac_MEM,old,,,,,,,,,,,10,,,,,,,,,,,,,,,,,,,,,,,,,,,,,,,,,,,385.3244,386.9909,11,6,1.6445,,386.9925,387.9899,0,5,5,6,1,12,5,pics/humanskull.jpg,,,,,,,,,,,,,,,,,,,,,,,,,,,,,,,,,,,,,,,,,,,,,,,,,,,,,,,,,,,,,,,,,,,,,,,
,,,,,5e57bf76eff1680266519b35,6682b41eeb79ab8215dff63d,6682ba127ce76f3697eee04a,27,female,english,2024-07-01_15h17.03.156,ABmemTask3,2023.2.3,Linux x86_64,60.24096386,,,,,,,,,,,,,,,,,,,,,,,,,,,,,,,,,387.9904,602,388.491,,,,,,,,,,,,,,,,,,,,,,,,,,0,,,,,,,,,prac_MEM,old,,,,,,,,,,,10,,,,,,,,,,,,,,,,,,,,,,,,,,,,,,,,,,,388.4913,389.5581,14,6,1.046,,389.5586,390.557,0,6,6,5,1,11,5,pics/grater01a.jpg,,,,,,,,,,,,,,,,,,,,,,,,,,,,,,,,,,,,,,,,,,,,,,,,,,,,,,,,,,,,,,,,,,,,,,,
,,,,,5e57bf76eff1680266519b35,6682b41eeb79ab8215dff63d,6682ba127ce76f3697eee04a,27,female,english,2024-07-01_15h17.03.156,ABmemTask3,2023.2.3,Linux x86_64,60.24096386,,,,,,,,,,,,,,,,,,,,,,,,,,,,,,,,,390.5579,602,391.0566,,,,,,,,,,,,,,,,,,,,,,,,,,0,,,,,,,,,prac_MEM,new,,,,,,,,,,,10,,,,,,,,,,,,,,,,,,,,,,,,,,,,,,,,,,,391.0568,392.9566,10,5,1.872,,392.9574,393.9567,0,7,7,9,1,999,999,pics/moth.jpg,,,,,,,,,,,,,,,,,,,,,,,,,,,,,,,,,,,,,,,,,,,,,,,,,,,,,,,,,,,,,,,,,,,,,,,
,,,,,5e57bf76eff1680266519b35,6682b41eeb79ab8215dff63d,6682ba127ce76f3697eee04a,27,female,english,2024-07-01_15h17.03.156,ABmemTask3,2023.2.3,Linux x86_64,60.24096386,,,,,,,,,,,,,,,,,,,,,,,,,,,,,,,,,393.9573,602,394.4571,,,,,,,,,,,,,,,,,,,,,,,,,,0,,,,,,,,,prac_MEM,old,,,,,,,,,,,10,,,,,,,,,,,,,,,,,,,,,,,,,,,,,,,,,,,394.4572,396.4408,9,3,1.9685,,396.4416,397.4394,0,8,8,1,1,2,1,pics/pants.jpg,,,,,,,,,,,,,,,,,,,,,,,,,,,,,,,,,,,,,,,,,,,,,,,,,,,,,,,,,,,,,,,,,,,,,,,
,,,,,5e57bf76eff1680266519b35,6682b41eeb79ab8215dff63d,6682ba127ce76f3697eee04a,27,female,english,2024-07-01_15h17.03.156,ABmemTask3,2023.2.3,Linux x86_64,60.24096386,,,,,,,,,,,,,,,,,,,,,,,,,,,,,,,,,397.4412,602,397.9388,,,,,,,,,,,,,,,,,,,,,,,,,,0,,,,,,,,,prac_MEM,new,,,,,,,,,,,10,,,,,,,,,,,,,,,,,,,,,,,,,,,,,,,,,,,397.9388,399.7067,11,2,1.7509,,399.707,400.7051,0,9,9,10,1,999,999,pics/tomato01.jpg,,,,,,,,,,,,,,,,,,,,,,,,,,,,,,,,,,,,,,,,,,,,,,,,,,,,,,,,,,,,,,,,,,,,,,,
,,,,,5e57bf76eff1680266519b35,6682b41eeb79ab8215dff63d,6682ba127ce76f3697eee04a,27,female,english,2024-07-01_15h17.03.156,ABmemTask3,2023.2.3,Linux x86_64,60.24096386,,,,,,,,,,,,,,,,,,,,,,,,,,,,,,,,,400.7168,602,401.2059,,,,,,,,,,,,,,,,,,,,,,,,,,0,,,,,,,,,prac_MEM,new,,,,,,,,,,,10,,,,,,,,,,,,,,,,,,,,,,,,,,,,,,,,,,,401.206,402.9215,13,2,1.6911,,402.9221,403.9214,0,10,10,8,1,999,999,pics/thread02.jpg,,,,,,,,,,,,,,,,,,,,,,,,,,,,,,,,,,,,,,,,,,,,,,,,,,,,,,,,,,,,,,,,,,,,,,,
,,,,,5e57bf76eff1680266519b35,6682b41eeb79ab8215dff63d,6682ba127ce76f3697eee04a,27,female,english,2024-07-01_15h17.03.156,ABmemTask3,2023.2.3,Linux x86_64,60.24096386,,,,,,,,,,,,,,,,,,,,,,,,,,,,,,,,,,,,,,,,,,,,,,,,,,,,,,,,,,,,,,,,,,,,,,,,,,,,,,,,,,,,,,,,,,,,,,,,,,,,,,,,,,,,,,,,,,,,,,,,,,,,,,,,,,,,,403.9219,405.0728,405.0729,405.0733,,,,,,,,,,,,,,,,,,,,,,,,,,,,,,,,,,,,,,,,,,,,,,,,,,,,,,,,,,,,,,,,,,,
,,,,,5e57bf76eff1680266519b35,6682b41eeb79ab8215dff63d,6682ba127ce76f3697eee04a,27,female,english,2024-07-01_15h17.03.156,ABmemTask3,2023.2.3,Linux x86_64,60.24096386,,,,,,,,,,,,,,,,,,space,21.2081,,,,,,,,,,,,,,,,,,,,,,,,,,,,,,,,,,,,,,,,,,,,,,,,,,,,,,,,,,,,,,,,,,,,,,,,,,,,,,,,,,,,,,,,,,,,,,,,,,,,,,,,,,,,,,,,,,,,,,405.0735,426.3228,,,,,,,,,,,,,,,,,,,,,,,,,,,,,,,,,,,,,,,,,,,,,,,,,,,,,,,,,,,,,,,,,
,,,,,5e57bf76eff1680266519b35,6682b41eeb79ab8215dff63d,6682ba127ce76f3697eee04a,27,female,english,2024-07-01_15h17.03.156,ABmemTask3,2023.2.3,Linux x86_64,60.24096386,,,,,,,,,,,,,,,,,,,,,,,,,,,,,,,,,,,,,,,,,,,,,,,,,,,,,,,,,,,,,,,,,,,,,,,,,,,,,,,,,,,,,,,,,,,,,,,,,,,,,,,,,,,,,,,,,,,,,,,,,,,,,,,,,,,,,,,,,,,426.323,455.8506,space,29.4511,,,,,,,,,,,,,,,,,,,,,,,,,,,,,,,,,,,,,,,,,,,,,,,,,,,,,,,,,,,,,
,,,,,5e57bf76eff1680266519b35,6682b41eeb79ab8215dff63d,6682ba127ce76f3697eee04a,27,female,english,2024-07-01_15h17.03.156,ABmemTask3,2023.2.3,Linux x86_64,60.24096386,,,,,,,,,,,,,,,,,,,,,,,,,,,,,,,455.8692,456.8653,456.8653,7,457.3654,458.7664,0.0025,458.8809,0.1163,0.1154,0.12,0.1135,0.1164,0.117,0.1151,0.1176,0.116,0.1172,0.1176,458.8812,461.414,right,2.5153,,461.4141,462.0992,right,0.6617,,-2,0,2,462.0994,463.0977,,,,,,1_AB,L1_T1A_T2P,1,0,1,7,8,6,5,13,Basketball,Did you see the Basketball,0.12,0,resources/,pics/cork02.jpg,pics/table01.jpg,pics/christmaslights.jpg,pics/nutcracker01.jpg,pics/golfball.jpg,pics/hammerheadshark.jpg,pics/seaturtle.jpg,pics/stapler04b.jpg,pics/lock03a.jpg,pics/snowshoe.jpg,pics/sewingmachine01a.jpg,pics/peach01.jpg,pics/hose.jpg,blankImage,blankImage,blankImage,blankImage,basketball01,24,0.1164,,,,,,,,,,,,,,,,,,,,,,,,,,,,,,,,,,,,,,,,0,0,0,23,1,,,,,,,,,,,,,,,,,,,,,,,,,,,,,,,,,,,,,,,,,,,,,,,,,,,,,,,
,,,,,5e57bf76eff1680266519b35,6682b41eeb79ab8215dff63d,6682ba127ce76f3697eee04a,27,female,english,2024-07-01_15h17.03.156,ABmemTask3,2023.2.3,Linux x86_64,60.24096386,,,,,,,,,,,,,,,,,,,,,,,,,,,,,,,463.1096,464.1154,464.1155,7,464.6138,466.4811,0.0027,466.5982,0.115,0.117,0.1171,0.1168,0.1153,0.1175,0.1165,0.1163,0.1159,0.1188,0.1165,466.5983,467.231,left,0.6147,,467.2311,467.7634,left,0.5139,,0,0,4,467.7634,468.7631,,,,,,1_AB,L5_T1A_T2A,5,0,0,7,12,6,5,17,Bib,Did you see the Bib,0.12,0,resources/,pics/hammerheadshark.jpg,pics/wheel01.jpg,pics/binder03b.jpg,pics/hairdryer02a.jpg,pics/christmaslights.jpg,pics/sandbarshark.jpg,pics/binoculars01b.jpg,pics/piggybank.jpg,pics/aquarium.jpg,pics/candleholder01.jpg,pics/sink.jpg,pics/calendar.jpg,pics/birdhouse.jpg,pics/bowtie.jpg,pics/onion.jpg,pics/golfball.jpg,pics/sailboat.jpg,bib,62,0.1158,0.116,0.117,,,,,,,,,,,,,,,,,,,,,,,,,,,,,,,,,,,,,,0,1,1,61,1,0.1171,0.1163,,,,,,,,,,,,,,,,,,,,,,,,,,,,,,,,,,,,,,,,,,,,,,,,,,,,,
,,,,,5e57bf76eff1680266519b35,6682b41eeb79ab8215dff63d,6682ba127ce76f3697eee04a,27,female,english,2024-07-01_15h17.03.156,ABmemTask3,2023.2.3,Linux x86_64,60.24096386,,,,,,,,,,,,,,,,,,,,,,,,,,,,,,,468.7645,469.7632,469.7638,7,470.263,471.4298,0.0029,471.5462,0.1145,0.1163,0.1171,0.1167,0.1176,0.1173,0.1163,0.1162,0.116,0.1165,,471.5462,472.0461,right,0.4749,,472.0463,472.4292,right,0.3722,,2,0,6,472.4293,473.4293,,,,,,1_AB,L1_T1P_T2P,1,1,1,7,8,6,3,11,sock,Did you see the sock,0.12,0,resources/,pics/hen.jpg,pics/christmaslights.jpg,pics/salmon.jpg,pics/sealion.jpg,pics/seaturtle.jpg,pics/giraffe.jpg,pics/athleticsock.jpg,pics/stapler01.jpg,pics/shovel01.jpg,pics/leaf02a.jpg,pics/backpack01a.jpg,blankImage,blankImage,blankImage,blankImage,blankImage,blankImage,athleticsock,11,,,,,,,,,,,,,,,,,,,,,,,,,,,,,,,,,,,,,,,,,0,2,2,10,1,,,,,,,,,,,,,,,,,,,,,,,,,,,,,,,,,,,,,,,,,,,,,,,,,,,,,,,
,,,,,5e57bf76eff1680266519b35,6682b41eeb79ab8215dff63d,6682ba127ce76f3697eee04a,27,female,english,2024-07-01_15h17.03.156,ABmemTask3,2023.2.3,Linux x86_64,60.24096386,,,,,,,,,,,,,,,,,,,,,,,,,,,,,,,473.4309,474.4289,474.429,7,474.929,476.329,0.001,476.4458,0.1175,0.1163,0.1176,0.1161,0.1154,0.1171,0.1178,0.1167,0.1157,0.117,0.1161,476.4459,476.9288,right,0.4573,,476.9289,477.8794,right,0.9345,,4,0,8,477.8795,478.8809,,,,,,1_AB,L5_T1P_T2P,5,1,1,4,9,3,4,13,Forklift,Did you see the Forklift,0.12,0,resources/,pics/dustpan.jpg,pics/table01.jpg,pics/sink.jpg,pics/forklift.jpg,pics/dromedary.jpg,pics/proboscismonkey.jpg,pics/cymbal.jpg,pics/shovel01.jpg,pics/stapler10.jpg,pics/backpack01a.jpg,pics/binder03b.jpg,pics/banjo.jpg,pics/candleholder01.jpg,blankImage,blankImage,blankImage,blankImage,forklift,47,0.1161,,,,,,,,,,,,,,,,,,,,,,,,,,,,,,,,,,,,,,,,0,3,3,46,1,,,,,,,,,,,,,,,,,,,,,,,,,,,,,,,,,,,,,,,,,,,,,,,,,,,,,,,
,,,,,5e57bf76eff1680266519b35,6682b41eeb79ab8215dff63d,6682ba127ce76f3697eee04a,27,female,english,2024-07-01_15h17.03.156,ABmemTask3,2023.2.3,Linux x86_64,60.24096386,,,,,,,,,,,,,,,,,,,,,,,,,,,,,,,478.9027,479.8962,479.8962,7,480.3958,481.7952,0.001,481.9113,0.1164,0.1172,0.1159,0.1172,0.1156,0.1176,0.116,0.1174,0.116,0.118,0.1152,481.9115,482.6953,left,0.7591,,482.6954,483.5958,right,0.8839,,4,0,10,483.5959,484.5963,,,,,,1_AB,L1_T1P_T2P,1,1,1,7,8,6,5,13,Totem Pole,Did you see the Totem Pole,0.12,0,resources/,pics/laptop01a.jpg,pics/carrot01.jpg,pics/wheel01.jpg,pics/icecube01.jpg,pics/ashtray01.jpg,pics/lock03a.jpg,pics/totempole.jpg,pics/stapler08.jpg,pics/golfball.jpg,pics/pencil01.jpg,pics/banjo.jpg,pics/sandbarshark.jpg,pics/shipinabottle.jpg,blankImage,blankImage,blankImage,blankImage,totempole,22,0.116,,,,,,,,,,,,,,,,,,,,,,,,,,,,,,,,,,,,,,,,0,4,4,21,1,,,,,,,,,,,,,,,,,,,,,,,,,,,,,,,,,,,,,,,,,,,,,,,,,,,,,,,
,,,,,5e57bf76eff1680266519b35,6682b41eeb79ab8215dff63d,6682ba127ce76f3697eee04a,27,female,english,2024-07-01_15h17.03.156,ABmemTask3,2023.2.3,Linux x86_64,60.24096386,,,,,,,,,,,,,,,,,,,,,,,,,,,,,,,484.6259,485.6282,485.6283,7,486.1278,487.6448,0.0014,487.7607,0.1171,0.1164,0.1158,0.1173,0.1172,0.1168,0.1153,0.1167,0.1175,0.1155,0.1185,487.7608,488.494,left,0.7105,,488.4941,488.8105,left,0.3016,,4,0,12,488.8105,489.8118,,,,,,1_AB,L5_T1A_T2P,5,0,1,4,9,3,5,14,lemon,Did you see the lemon,0.12,0,resources/,pics/seaturtle.jpg,pics/lightswitch01.jpg,pics/candle01.jpg,pics/cannon.jpg,pics/seagull.jpg,pics/spoon01.jpg,pics/spiderweb.jpg,pics/sewingmachine01a.jpg,pics/stapler05.jpg,pics/binoculars01b.jpg,pics/zebra.jpg,pics/sealion.jpg,pics/shovel01.jpg,pics/wheel01.jpg,blankImage,blankImage,blankImage,lemon02,56,0.1159,0.1158,,,,,,,,,,,,,,,,,,,,,,,,,,,,,,,,,,,,,,,0,5,5,55,1,,,,,,,,,,,,,,,,,,,,,,,,,,,,,,,,,,,,,,,,,,,,,,,,,,,,,,,
,,,,,5e57bf76eff1680266519b35,6682b41eeb79ab8215dff63d,6682ba127ce76f3697eee04a,27,female,english,2024-07-01_15h17.03.156,ABmemTask3,2023.2.3,Linux x86_64,60.24096386,,,,,,,,,,,,,,,,,,,,,,,,,,,,,,,489.8126,490.8107,490.8107,7,491.3102,492.3613,0.001,492.4769,0.1162,0.1176,0.1155,0.1176,0.1167,0.1164,0.1172,0.1176,0.1156,,,492.477,493.4444,right,0.9441,,493.4445,493.8113,left,0.3465,,6,0,14,493.8114,494.8116,,,,,,1_AB,L1_T1P_T2A,1,1,0,6,7,5,3,10,Duct tape,Did you see the Duct tape,0.12,0,resources/,pics/butterfly.jpg,pics/noparkingsign.jpg,pics/pictureframe04.jpg,pics/cork02.jpg,pics/fanblades.jpg,pics/ducttape.jpg,pics/icecube01.jpg,pics/siamesecat.jpg,pics/sink.jpg,pics/sandbarshark.jpg,blankImage,blankImage,blankImage,blankImage,blankImage,blankImage,blankImage,ducttape,36,,,,,,,,,,,,,,,,,,,,,,,,,,,,,,,,,,,,,,,,,0,6,6,35,1,,,,,,,,,,,,,,,,,,,,,,,,,,,,,,,,,,,,,,,,,,,,,,,,,,,,,,,
,,,,,5e57bf76eff1680266519b35,6682b41eeb79ab8215dff63d,6682ba127ce76f3697eee04a,27,female,english,2024-07-01_15h17.03.156,ABmemTask3,2023.2.3,Linux x86_64,60.24096386,,,,,,,,,,,,,,,,,,,,,,,,,,,,,,,494.8224,495.8117,495.8117,7,496.3119,497.2459,0.0031,497.3607,0.1135,0.1174,0.1157,0.1169,0.118,0.1154,0.1164,0.1181,,,,497.3608,498.194,right,0.8125,,498.1941,498.5096,left,0.2991,,6,0,16,498.5097,499.5112,,,,,,1_AB,L1_T1P_T2P,1,1,1,4,5,3,4,9,Chefs hat,Did you see the Chefs hat,0.12,0,resources/,pics/sewingmachine01a.jpg,pics/icecube01.jpg,pics/fanblades.jpg,pics/chefshat.jpg,pics/stapler06.jpg,pics/ashtray01.jpg,pics/blender.jpg,pics/sandbarshark.jpg,pics/lock03a.jpg,blankImage,blankImage,blankImage,blankImage,blankImage,blankImage,blankImage,blankImage,chefshat,12,,,,,,,,,,,,,,,,,,,,,,,,,,,,,,,,,,,,,,,,,0,7,7,11,1,,,,,,,,,,,,,,,,,,,,,,,,,,,,,,,,,,,,,,,,,,,,,,,,,,,,,,,
,,,,,5e57bf76eff1680266519b35,6682b41eeb79ab8215dff63d,6682ba127ce76f3697eee04a,27,female,english,2024-07-01_15h17.03.156,ABmemTask3,2023.2.3,Linux x86_64,60.24096386,,,,,,,,,,,,,,,,,,,,,,,,,,,,,,,499.5119,500.5094,500.5095,7,501.0103,501.9431,0.0011,502.0593,0.1168,0.1164,0.1167,0.1163,0.1166,0.1165,0.116,0.1163,,,,502.0593,503.01,right,0.9282,,503.0101,503.7602,left,0.7362,,6,0,18,503.7604,504.7596,,,,,,1_AB,L1_T1P_T2P,1,1,1,4,5,3,4,9,antenna,Did you see the antenna,0.12,0,resources/,pics/microscope.jpg,pics/spoon01.jpg,pics/dromedary.jpg,pics/antenna.jpg,pics/stapler03.jpg,pics/hen.jpg,pics/leaf02a.jpg,pics/candle01.jpg,pics/sealion.jpg,blankImage,blankImage,blankImage,blankImage,blankImage,blankImage,blankImage,blankImage,antenna,9,,,,,,,,,,,,,,,,,,,,,,,,,,,,,,,,,,,,,,,,,0,8,8,8,1,,,,,,,,,,,,,,,,,,,,,,,,,,,,,,,,,,,,,,,,,,,,,,,,,,,,,,,
,,,,,5e57bf76eff1680266519b35,6682b41eeb79ab8215dff63d,6682ba127ce76f3697eee04a,27,female,english,2024-07-01_15h17.03.156,ABmemTask3,2023.2.3,Linux x86_64,60.24096386,,,,,,,,,,,,,,,,,,,,,,,,,,,,,,,504.7707,505.7588,505.7588,7,506.26,507.5435,0.0015,507.6594,0.1157,0.1158,0.1176,0.1168,0.1163,0.1155,0.1181,0.1168,0.1164,0.1162,0.117,507.6595,510.7082,right,3.0281,,510.7083,510.9919,right,0.2694,,8,0,20,510.9919,511.992,,,,,,1_AB,L5_T1P_T2P,5,1,1,4,9,3,3,12,Sheep,Did you see the Sheep,0.12,0,resources/,pics/icecube01.jpg,pics/cymbal.jpg,pics/wheel01.jpg,pics/sheep.jpg,pics/starfish01.jpg,pics/safetypin.jpg,pics/siamesecat.jpg,pics/lock03a.jpg,pics/stapler01.jpg,pics/sink.jpg,pics/fanblades.jpg,pics/bowlingpin.jpg,blankImage,blankImage,blankImage,blankImage,blankImage,sheep,52,,,,,,,,,,,,,,,,,,,,,,,,,,,,,,,,,,,,,,,,,0,9,9,51,1,,,,,,,,,,,,,,,,,,,,,,,,,,,,,,,,,,,,,,,,,,,,,,,,,,,,,,,
,,,,,5e57bf76eff1680266519b35,6682b41eeb79ab8215dff63d,6682ba127ce76f3697eee04a,27,female,english,2024-07-01_15h17.03.156,ABmemTask3,2023.2.3,Linux x86_64,60.24096386,,,,,,,,,,,,,,,,,,,,,,,,,,,,,,,512.0025,512.9908,512.9908,7,513.4913,515.1244,0.0021,515.2406,0.1147,0.1179,0.1183,0.1157,0.1161,0.1161,0.1178,0.1146,0.1168,0.1165,0.1175,515.2407,519.1737,right,3.9081,,519.1738,519.4071,right,0.2208,,10,0,22,519.4072,520.4068,,,,,,1_AB,L5_T1P_T2P,5,1,1,5,10,4,5,15,dolphin,Did you see the dolphin,0.12,0,resources/,pics/banjo.jpg,pics/shipinabottle.jpg,pics/laptop01a.jpg,pics/onion.jpg,pics/dolphin01.jpg,pics/sink.jpg,pics/seaturtle.jpg,pics/butterfly.jpg,pics/hen.jpg,pics/stapler10.jpg,pics/proboscismonkey.jpg,pics/starfish01.jpg,pics/salmon.jpg,pics/spiderweb.jpg,pics/cymbal.jpg,blankImage,blankImage,dolphin01,49,0.1183,0.1139,0.1169,,,,,,,,,,,,,,,,,,,,,,,,,,,,,,,,,,,,,,0,10,10,48,1,,,,,,,,,,,,,,,,,,,,,,,,,,,,,,,,,,,,,,,,,,,,,,,,,,,,,,,
,,,,,5e57bf76eff1680266519b35,6682b41eeb79ab8215dff63d,6682ba127ce76f3697eee04a,27,female,english,2024-07-01_15h17.03.156,ABmemTask3,2023.2.3,Linux x86_64,60.24096386,,,,,,,,,,,,,,,,,,,,,,,,,,,,,,,520.419,521.4074,521.4075,7,521.9063,522.9589,0.0036,523.0729,0.1155,0.1159,0.1165,0.1162,0.1169,0.1177,0.1149,0.118,0.1183,,,523.0729,524.0246,left,0.9377,,524.0247,524.2562,left,0.2202,,10,0,24,524.2562,525.2558,,,,,,1_AB,L1_T1A_T2P,1,0,1,5,6,4,4,10,Rabbit,Did you see the Rabbit,0.12,0,resources/,pics/cannon.jpg,pics/proboscismonkey.jpg,pics/salmon.jpg,pics/nutcracker01.jpg,pics/seagull.jpg,pics/stapler02.jpg,pics/table01.jpg,pics/laptop01a.jpg,pics/necklace.jpg,pics/pencilsharpener02a.jpg,blankImage,blankImage,blankImage,blankImage,blankImage,blankImage,blankImage,jackrabbit,31,,,,,,,,,,,,,,,,,,,,,,,,,,,,,,,,,,,,,,,,,0,11,11,30,1,,,,,,,,,,,,,,,,,,,,,,,,,,,,,,,,,,,,,,,,,,,,,,,,,,,,,,,
,,,,,5e57bf76eff1680266519b35,6682b41eeb79ab8215dff63d,6682ba127ce76f3697eee04a,27,female,english,2024-07-01_15h17.03.156,ABmemTask3,2023.2.3,Linux x86_64,60.24096386,,,,,,,,,,,,,,,,,,,,,,,,,,,,,,,525.2571,526.2571,526.2571,7,526.7564,528.391,0.0023,528.5056,0.1153,0.1172,0.1174,0.1161,0.1153,0.1176,0.1171,0.1158,0.1163,0.1168,0.1163,528.5058,528.6564,right,0.1242,,528.6567,528.8556,right,0.1836,,12,0,26,528.8557,529.8569,,,,,,1_AB,L5_T1P_T2P,5,1,1,5,10,4,5,15,ribbon,Did you see the ribbon,0.12,0,resources/,pics/giraffe.jpg,pics/boot02b.jpg,pics/cymbal.jpg,pics/leaf02a.jpg,pics/ribbon04.jpg,pics/lightswitch01.jpg,pics/necklace.jpg,pics/calendar.jpg,pics/kangaroo.jpg,pics/stapler12.jpg,pics/hose.jpg,pics/carrot01.jpg,pics/match.jpg,pics/sink.jpg,pics/candleholder01.jpg,blankImage,blankImage,ribbon04,53,0.1196,0.1139,0.118,,,,,,,,,,,,,,,,,,,,,,,,,,,,,,,,,,,,,,0,12,12,52,1,,,,,,,,,,,,,,,,,,,,,,,,,,,,,,,,,,,,,,,,,,,,,,,,,,,,,,,
,,,,,5e57bf76eff1680266519b35,6682b41eeb79ab8215dff63d,6682ba127ce76f3697eee04a,27,female,english,2024-07-01_15h17.03.156,ABmemTask3,2023.2.3,Linux x86_64,60.24096386,,,,,,,,,,,,,,,,,,,,,,,,,,,,,,,529.8585,530.8551,530.8552,7,531.355,532.6393,0.001,532.7555,0.1165,0.1165,0.1182,0.1155,0.1164,0.1178,0.115,0.1184,0.1164,0.1159,0.1172,532.7561,533.3716,right,0.5977,,533.3717,533.5887,right,0.2037,,14,0,28,533.5887,534.5881,,,,,,1_AB,L1_T1P_T2P,1,1,1,6,7,5,5,12,jeep,Did you see the jeep,0.12,0,resources/,pics/sandbarshark.jpg,pics/laptop01a.jpg,pics/peach01.jpg,pics/binoculars01b.jpg,pics/giraffe.jpg,pics/jeep.jpg,pics/stapler03b.jpg,pics/fanblades.jpg,pics/cannon.jpg,pics/starfish01.jpg,pics/piggybank.jpg,pics/noparkingsign.jpg,blankImage,blankImage,blankImage,blankImage,blankImage,jeep,2,,,,,,,,,,,,,,,,,,,,,,,,,,,,,,,,,,,,,,,,,0,13,13,1,1,,,,,,,,,,,,,,,,,,,,,,,,,,,,,,,,,,,,,,,,,,,,,,,,,,,,,,,
,,,,,5e57bf76eff1680266519b35,6682b41eeb79ab8215dff63d,6682ba127ce76f3697eee04a,27,female,english,2024-07-01_15h17.03.156,ABmemTask3,2023.2.3,Linux x86_64,60.24096386,,,,,,,,,,,,,,,,,,,,,,,,,,,,,,,534.5886,535.5893,535.5894,7,536.0892,537.3713,0.0011,537.4884,0.1149,0.1172,0.1163,0.1166,0.1164,0.1175,0.116,0.1183,0.1164,0.1149,0.1167,537.4885,538.9542,left,1.444,,538.9543,539.4377,right,0.4671,,16,0,30,539.4378,540.4375,,,,,,1_AB,L5_T1A_T2P,5,0,1,4,9,3,3,12,rooster,Did you see the rooster,0.12,0,resources/,pics/table01.jpg,pics/icecube01.jpg,pics/dustpan.jpg,pics/lock03a.jpg,pics/sailboat.jpg,pics/salmon.jpg,pics/banjo.jpg,pics/zebra.jpg,pics/stapler09.jpg,pics/peach01.jpg,pics/chainsaw.jpg,pics/football.jpg,blankImage,blankImage,blankImage,blankImage,blankImage,rooster,55,,,,,,,,,,,,,,,,,,,,,,,,,,,,,,,,,,,,,,,,,0,14,14,54,1,,,,,,,,,,,,,,,,,,,,,,,,,,,,,,,,,,,,,,,,,,,,,,,,,,,,,,,
,,,,,5e57bf76eff1680266519b35,6682b41eeb79ab8215dff63d,6682ba127ce76f3697eee04a,27,female,english,2024-07-01_15h17.03.156,ABmemTask3,2023.2.3,Linux x86_64,60.24096386,,,,,,,,,,,,,,,,,,,,,,,,,,,,,,,540.4389,541.4376,541.4376,7,541.9376,542.9875,0.0012,543.1041,0.1173,0.116,0.1185,0.1151,0.1165,0.1164,0.1167,0.1164,0.1161,,,543.1043,544.8702,left,1.7375,,544.8703,546.0375,left,1.1543,,16,0,32,546.0376,547.038,,,,,,1_AB,L1_T1A_T2P,1,0,1,5,6,4,4,10,button,Did you see the button,0.12,0,resources/,pics/pencil01.jpg,pics/necklace.jpg,pics/sink.jpg,pics/noparkingsign.jpg,pics/banjo.jpg,pics/stapler03b.jpg,pics/candle01.jpg,pics/icecube01.jpg,pics/shovel01.jpg,pics/pencilsharpener02a.jpg,blankImage,blankImage,blankImage,blankImage,blankImage,blankImage,blankImage,button01,25,,,,,,,,,,,,,,,,,,,,,,,,,,,,,,,,,,,,,,,,,0,15,15,24,1,,,,,,,,,,,,,,,,,,,,,,,,,,,,,,,,,,,,,,,,,,,,,,,,,,,,,,,
,,,,,5e57bf76eff1680266519b35,6682b41eeb79ab8215dff63d,6682ba127ce76f3697eee04a,27,female,english,2024-07-01_15h17.03.156,ABmemTask3,2023.2.3,Linux x86_64,60.24096386,,,,,,,,,,,,,,,,,,,,,,,,,,,,,,,547.0569,548.0553,548.0553,7,548.5533,549.7216,0.0027,549.8365,0.1157,0.1154,0.1182,0.1168,0.1178,0.1145,0.1162,0.1174,0.1156,0.1182,,549.8366,550.3195,right,0.4679,,550.3196,550.6531,right,0.3126,,18,0,34,550.6531,551.6526,,,,,,1_AB,L1_T1P_T2P,1,1,1,7,8,6,3,11,toothpick,Did you see the toothpick,0.12,0,resources/,pics/candleholder01.jpg,pics/blender.jpg,pics/siamesecat.jpg,pics/peanut01.jpg,pics/spiderweb.jpg,pics/football.jpg,pics/toothpick02.jpg,pics/stapler04b.jpg,pics/seagull.jpg,pics/pictureframe04.jpg,pics/shipinabottle.jpg,blankImage,blankImage,blankImage,blankImage,blankImage,blankImage,toothpick02,17,,,,,,,,,,,,,,,,,,,,,,,,,,,,,,,,,,,,,,,,,0,16,16,16,1,,,,,,,,,,,,,,,,,,,,,,,,,,,,,,,,,,,,,,,,,,,,,,,,,,,,,,,
,,,,,5e57bf76eff1680266519b35,6682b41eeb79ab8215dff63d,6682ba127ce76f3697eee04a,27,female,english,2024-07-01_15h17.03.156,ABmemTask3,2023.2.3,Linux x86_64,60.24096386,,,,,,,,,,,,,,,,,,,,,,,,,,,,,,,551.6531,552.6533,552.6534,7,553.1542,554.9033,0.0011,555.019,0.1147,0.1162,0.1168,0.1174,0.1163,0.118,0.1156,0.1178,0.1155,0.1165,0.1188,555.0192,555.419,right,0.3758,,555.419,555.6187,right,0.1816,,20,0,36,555.6187,556.6189,,,,,,1_AB,L5_T1P_T2P,5,1,1,6,11,5,5,16,cruise ship,Did you see the cruise ship,0.12,0,resources/,pics/seaturtle.jpg,pics/ashtray01.jpg,pics/pencil01.jpg,pics/fanblades.jpg,pics/triangle.jpg,pics/cruiseship.jpg,pics/wheel01.jpg,pics/dustpan.jpg,pics/starfish01.jpg,pics/banjo.jpg,pics/stapler12.jpg,pics/match.jpg,pics/cannon.jpg,pics/sandbarshark.jpg,pics/sink.jpg,pics/zebra.jpg,blankImage,cruiseship,51,0.1156,0.115,0.117,,,,,,,,,,,,,,,,,,,,,,,,,,,,,,,,,,,,,,0,17,17,50,1,0.117,,,,,,,,,,,,,,,,,,,,,,,,,,,,,,,,,,,,,,,,,,,,,,,,,,,,,,
,,,,,5e57bf76eff1680266519b35,6682b41eeb79ab8215dff63d,6682ba127ce76f3697eee04a,27,female,english,2024-07-01_15h17.03.156,ABmemTask3,2023.2.3,Linux x86_64,60.24096386,,,,,,,,,,,,,,,,,,,,,,,,,,,,,,,556.6198,557.6182,557.6184,7,558.1188,559.4021,0.0016,559.5198,0.1163,0.1166,0.1171,0.1159,0.1175,0.1156,0.1168,0.1167,0.1172,0.1155,0.1165,559.5207,559.8857,right,0.3375,,559.8857,560.1377,right,0.2384,,22,0,38,560.1379,561.1349,,,,,,1_AB,L1_T1P_T2P,1,1,1,6,7,5,5,12,Bear,Did you see the Bear,0.12,0,resources/,pics/necklace.jpg,pics/hen.jpg,pics/dromedary.jpg,pics/piggybank.jpg,pics/sandbarshark.jpg,pics/grizzly.jpg,pics/stapler12.jpg,pics/bowlingpin.jpg,pics/christmaslights.jpg,pics/icecube01.jpg,pics/match.jpg,pics/lock03a.jpg,blankImage,blankImage,blankImage,blankImage,blankImage,grizzly,18,,,,,,,,,,,,,,,,,,,,,,,,,,,,,,,,,,,,,,,,,0,18,18,17,1,,,,,,,,,,,,,,,,,,,,,,,,,,,,,,,,,,,,,,,,,,,,,,,,,,,,,,,
,,,,,5e57bf76eff1680266519b35,6682b41eeb79ab8215dff63d,6682ba127ce76f3697eee04a,27,female,english,2024-07-01_15h17.03.156,ABmemTask3,2023.2.3,Linux x86_64,60.24096386,,,,,,,,,,,,,,,,,,,,,,,,,,,,,,,561.1367,562.1352,562.1352,7,562.6349,563.5704,0.002,563.6858,0.1162,0.1175,0.1144,0.1175,0.1172,0.1185,0.1145,0.1182,,,,563.6859,564.2008,right,0.4978,,564.2009,564.4035,right,0.1904,,24,0,40,564.4035,565.4006,,,,,,1_AB,L1_T1P_T2P,1,1,1,5,6,4,3,9,cabbage,Did you see the cabbage,0.12,0,resources/,pics/match.jpg,pics/icecube01.jpg,pics/noparkingsign.jpg,pics/christmaslights.jpg,pics/cabbage.jpg,pics/stapler03a.jpg,pics/carrot01.jpg,pics/dustpan.jpg,pics/cannon.jpg,blankImage,blankImage,blankImage,blankImage,blankImage,blankImage,blankImage,blankImage,cabbage,14,,,,,,,,,,,,,,,,,,,,,,,,,,,,,,,,,,,,,,,,,0,19,19,13,1,,,,,,,,,,,,,,,,,,,,,,,,,,,,,,,,,,,,,,,,,,,,,,,,,,,,,,,
,,,,,5e57bf76eff1680266519b35,6682b41eeb79ab8215dff63d,6682ba127ce76f3697eee04a,27,female,english,2024-07-01_15h17.03.156,ABmemTask3,2023.2.3,Linux x86_64,60.24096386,,,,,,,,,,,,,,,,,,,,,,,,,,,,,,,565.402,566.402,566.4021,7,566.91,568.2024,0.0044,568.3176,0.1204,0.1169,0.1179,0.116,0.1172,0.1151,0.1177,0.1173,0.1156,0.1161,0.1183,568.3177,568.6837,right,0.347,,568.6837,568.9186,right,0.223,,26,0,42,568.9186,569.9169,,,,,,1_AB,L1_T1P_T2P,1,1,1,6,7,5,5,12,rope,Did you see the rope,0.12,0,resources/,pics/toiletpaper01a.jpg,pics/sewingmachine01a.jpg,pics/birdhouse.jpg,pics/sealion.jpg,pics/safetypin.jpg,pics/rope03.jpg,pics/stapler04.jpg,pics/binder03b.jpg,pics/ashtray01.jpg,pics/sandbarshark.jpg,pics/chainsaw.jpg,pics/nutcracker01.jpg,blankImage,blankImage,blankImage,blankImage,blankImage,rope03,4,,,,,,,,,,,,,,,,,,,,,,,,,,,,,,,,,,,,,,,,,0,20,20,3,1,,,,,,,,,,,,,,,,,,,,,,,,,,,,,,,,,,,,,,,,,,,,,,,,,,,,,,,
,,,,,5e57bf76eff1680266519b35,6682b41eeb79ab8215dff63d,6682ba127ce76f3697eee04a,27,female,english,2024-07-01_15h17.03.156,ABmemTask3,2023.2.3,Linux x86_64,60.24096386,,,,,,,,,,,,,,,,,,,,,,,,,,,,,,,569.9175,570.9187,570.9187,7,571.4191,572.8195,0.0027,572.935,0.1135,0.1183,0.1156,0.115,0.1181,0.1166,0.1162,0.1167,0.1164,0.1173,0.1153,572.9351,573.2521,right,0.2961,,573.2523,573.4667,right,0.1997,,28,0,44,573.4668,574.4682,,,,,,1_AB,L1_T1P_T2P,1,1,1,7,8,6,5,13,strawberry,Did you see the strawberry,0.12,0,resources/,pics/sealion.jpg,pics/backpack01a.jpg,pics/binoculars01b.jpg,pics/ball02.jpg,pics/proboscismonkey.jpg,pics/pictureframe04.jpg,pics/strawberry.jpg,pics/stapler12.jpg,pics/seaturtle.jpg,pics/dustpan.jpg,pics/bowlingpin.jpg,pics/hammerheadshark.jpg,pics/hen.jpg,blankImage,blankImage,blankImage,blankImage,strawberry,10,0.1201,,,,,,,,,,,,,,,,,,,,,,,,,,,,,,,,,,,,,,,,0,21,21,9,1,,,,,,,,,,,,,,,,,,,,,,,,,,,,,,,,,,,,,,,,,,,,,,,,,,,,,,,
,,,,,5e57bf76eff1680266519b35,6682b41eeb79ab8215dff63d,6682ba127ce76f3697eee04a,27,female,english,2024-07-01_15h17.03.156,ABmemTask3,2023.2.3,Linux x86_64,60.24096386,,,,,,,,,,,,,,,,,,,,,,,,,,,,,,,574.4694,575.4685,575.4686,7,575.9663,577.2511,0.0021,577.3659,0.1159,0.1163,0.1182,0.1145,0.1172,0.1205,0.1127,0.1175,0.1165,0.1167,0.1172,577.366,577.8178,right,0.4328,,577.8179,578.0329,right,0.2008,,30,0,46,578.033,579.0325,,,,,,1_AB,L1_T1P_T2P,1,1,1,7,8,6,4,12,hammer,Did you see the hammer,0.12,0,resources/,pics/microscope.jpg,pics/blender.jpg,pics/dustpan.jpg,pics/snowshoe.jpg,pics/mummy.jpg,pics/bowtie.jpg,pics/hammer01.jpg,pics/stapler04b.jpg,pics/seaturtle.jpg,pics/candle01.jpg,pics/necklace.jpg,pics/cannon.jpg,blankImage,blankImage,blankImage,blankImage,blankImage,hammer01,21,,,,,,,,,,,,,,,,,,,,,,,,,,,,,,,,,,,,,,,,,0,22,22,20,1,,,,,,,,,,,,,,,,,,,,,,,,,,,,,,,,,,,,,,,,,,,,,,,,,,,,,,,
,,,,,5e57bf76eff1680266519b35,6682b41eeb79ab8215dff63d,6682ba127ce76f3697eee04a,27,female,english,2024-07-01_15h17.03.156,ABmemTask3,2023.2.3,Linux x86_64,60.24096386,,,,,,,,,,,,,,,,,,,,,,,,,,,,,,,579.0333,580.0322,580.0322,7,580.532,581.5836,0.0026,581.6996,0.1162,0.116,0.1163,0.117,0.1169,0.1221,0.111,0.1176,0.116,,,581.6997,582.4992,right,0.7784,,582.4992,582.7316,left,0.2186,,30,0,48,582.7318,583.7321,,,,,,1_AB,L1_T1P_T2P,1,1,1,4,5,3,5,10,vacuum,Did you see the vacuum,0.12,0,resources/,pics/birdhouse.jpg,pics/floortile02.jpg,pics/toiletpaper01a.jpg,pics/vacuumcleaner01.jpg,pics/stapler02.jpg,pics/spoon01.jpg,pics/banjo.jpg,pics/binder03b.jpg,pics/leaf02a.jpg,pics/aquarium.jpg,blankImage,blankImage,blankImage,blankImage,blankImage,blankImage,blankImage,vacuumcleaner01,5,,,,,,,,,,,,,,,,,,,,,,,,,,,,,,,,,,,,,,,,,0,23,23,4,1,,,,,,,,,,,,,,,,,,,,,,,,,,,,,,,,,,,,,,,,,,,,,,,,,,,,,,,
,,,,,5e57bf76eff1680266519b35,6682b41eeb79ab8215dff63d,6682ba127ce76f3697eee04a,27,female,english,2024-07-01_15h17.03.156,ABmemTask3,2023.2.3,Linux x86_64,60.24096386,,,,,,,,,,,,,,,,,,,,,,,,,,,,,,,583.7326,584.7321,584.7322,7,585.2324,586.1652,0.001,586.2813,0.117,0.1167,0.1155,0.1181,0.1148,0.1175,0.1167,0.116,,,,586.2814,586.6146,right,0.3164,,586.6147,586.815,right,0.1842,,32,0,50,586.815,587.8146,,,,,,1_AB,L1_T1P_T2P,1,1,1,5,6,4,3,9,Ant,Did you see the Ant,0.12,0,resources/,pics/kangaroo.jpg,pics/giraffe.jpg,pics/footballhelmet.jpg,pics/onion.jpg,pics/ant.jpg,pics/stapler04b.jpg,pics/banjo.jpg,pics/zebra.jpg,pics/dromedary.jpg,blankImage,blankImage,blankImage,blankImage,blankImage,blankImage,blankImage,blankImage,ant,15,,,,,,,,,,,,,,,,,,,,,,,,,,,,,,,,,,,,,,,,,0,24,24,14,1,,,,,,,,,,,,,,,,,,,,,,,,,,,,,,,,,,,,,,,,,,,,,,,,,,,,,,,
,,,,,5e57bf76eff1680266519b35,6682b41eeb79ab8215dff63d,6682ba127ce76f3697eee04a,27,female,english,2024-07-01_15h17.03.156,ABmemTask3,2023.2.3,Linux x86_64,60.24096386,,,,,,,,,,,,,,,,,,,,,,,,,,,,,,,587.8152,588.8143,588.8143,7,589.3152,590.2493,0.0027,590.3649,0.1151,0.1159,0.1176,0.1162,0.1166,0.1157,0.1169,0.1181,,,,590.3657,591.0479,left,0.6627,,591.048,591.5643,right,0.5019,,30,0,52,591.5645,592.5638,,,,,,1_AB,L1_T1A_T2A,1,0,0,4,5,3,4,9,License Plate,Did you see the License Plate,0.12,0,resources/,pics/snowshoe.jpg,pics/kangaroo.jpg,pics/noparkingsign.jpg,pics/match.jpg,pics/hose.jpg,pics/blender.jpg,pics/ashtray01.jpg,pics/ball02.jpg,pics/sink.jpg,blankImage,blankImage,blankImage,blankImage,blankImage,blankImage,blankImage,blankImage,licenseplate,40,,,,,,,,,,,,,,,,,,,,,,,,,,,,,,,,,,,,,,,,,0,25,25,39,1,,,,,,,,,,,,,,,,,,,,,,,,,,,,,,,,,,,,,,,,,,,,,,,,,,,,,,,
,,,,,5e57bf76eff1680266519b35,6682b41eeb79ab8215dff63d,6682ba127ce76f3697eee04a,27,female,english,2024-07-01_15h17.03.156,ABmemTask3,2023.2.3,Linux x86_64,60.24096386,,,,,,,,,,,,,,,,,,,,,,,,,,,,,,,592.5743,593.5646,593.5646,7,594.065,595.5811,0.0019,595.6971,0.1144,0.1182,0.1164,0.1171,0.1156,0.1158,0.1183,0.1151,0.1179,0.1161,0.1171,595.6971,596.3138,right,0.5952,,596.314,596.6139,left,0.2832,,32,0,54,596.6144,597.6134,,,,,,1_AB,L5_T1P_T2A,5,1,0,6,11,5,3,14,Kiwi,Did you see the Kiwi,0.12,0,resources/,pics/candleholder01.jpg,pics/kangaroo.jpg,pics/banjo.jpg,pics/binoculars01b.jpg,pics/microscope.jpg,pics/kiwi03.jpg,pics/bowtie.jpg,pics/peanut01.jpg,pics/backpack01a.jpg,pics/zebra.jpg,pics/toiletpaper01a.jpg,pics/hen.jpg,pics/spoon01.jpg,pics/calendar.jpg,blankImage,blankImage,blankImage,kiwi03,59,0.1166,0.1159,,,,,,,,,,,,,,,,,,,,,,,,,,,,,,,,,,,,,,,0,26,26,58,1,,,,,,,,,,,,,,,,,,,,,,,,,,,,,,,,,,,,,,,,,,,,,,,,,,,,,,,
,,,,,5e57bf76eff1680266519b35,6682b41eeb79ab8215dff63d,6682ba127ce76f3697eee04a,27,female,english,2024-07-01_15h17.03.156,ABmemTask3,2023.2.3,Linux x86_64,60.24096386,,,,,,,,,,,,,,,,,,,,,,,,,,,,,,,597.6153,598.6138,598.6138,7,599.1133,600.3973,0.0016,600.5132,0.1167,0.1163,0.1156,0.1166,0.1168,0.1177,0.1168,0.1159,0.1163,0.1168,0.1176,600.5133,601.547,right,1.0139,,601.5471,601.7966,right,0.2354,,34,0,56,601.7967,602.7976,,,,,,1_AB,L1_T1P_T2P,1,1,1,7,8,6,4,12,Turnstile,Did you see the Turnstile,0.12,0,resources/,pics/golfball.jpg,pics/hose.jpg,pics/siamesecat.jpg,pics/binoculars01b.jpg,pics/hen.jpg,pics/candleholder01.jpg,pics/turnstile.jpg,pics/stapler03a.jpg,pics/giraffe.jpg,pics/pictureframe04.jpg,pics/sandbarshark.jpg,pics/spoon01.jpg,blankImage,blankImage,blankImage,blankImage,blankImage,turnstile,13,,,,,,,,,,,,,,,,,,,,,,,,,,,,,,,,,,,,,,,,,0,27,27,12,1,,,,,,,,,,,,,,,,,,,,,,,,,,,,,,,,,,,,,,,,,,,,,,,,,,,,,,,
,,,,,5e57bf76eff1680266519b35,6682b41eeb79ab8215dff63d,6682ba127ce76f3697eee04a,27,female,english,2024-07-01_15h17.03.156,ABmemTask3,2023.2.3,Linux x86_64,60.24096386,,,,,,,,,,,,,,,,,,,,,,,,,,,,,,,602.808,603.7967,603.7969,7,604.2964,605.9304,0.0029,606.0454,0.1149,0.1164,0.1159,0.1189,0.1156,0.116,0.1172,0.116,0.1172,0.1165,0.1179,606.0455,606.4315,right,0.3728,,606.4316,606.6476,right,0.2005,,36,0,58,606.6476,607.6471,,,,,,1_AB,L5_T1P_T2P,5,1,1,6,11,5,4,15,toast,Did you see the toast,0.12,0,resources/,pics/piggybank.jpg,pics/leaf02a.jpg,pics/carrot01.jpg,pics/birdhouse.jpg,pics/bowlingpin.jpg,pics/toast.jpg,pics/spiderweb.jpg,pics/cork02.jpg,pics/sink.jpg,pics/nutcracker01.jpg,pics/stapler02.jpg,pics/ashtray01.jpg,pics/fanblades.jpg,pics/pencil01.jpg,pics/lightswitch01.jpg,blankImage,blankImage,toast,46,0.1148,0.117,0.1167,,,,,,,,,,,,,,,,,,,,,,,,,,,,,,,,,,,,,,0,28,28,45,1,,,,,,,,,,,,,,,,,,,,,,,,,,,,,,,,,,,,,,,,,,,,,,,,,,,,,,,
,,,,,5e57bf76eff1680266519b35,6682b41eeb79ab8215dff63d,6682ba127ce76f3697eee04a,27,female,english,2024-07-01_15h17.03.156,ABmemTask3,2023.2.3,Linux x86_64,60.24096386,,,,,,,,,,,,,,,,,,,,,,,,,,,,,,,607.6479,608.6462,608.6463,7,609.1455,610.0811,0.0022,610.1949,0.1151,0.1178,0.1156,0.1178,0.1148,0.1171,0.1172,0.1186,,,,610.1951,611.3783,left,1.167,,611.3784,612.7143,left,1.326,,36,0,60,612.7144,613.7119,,,,,,1_AB,L1_T1A_T2P,1,0,1,5,6,4,3,9,Trailer,Did you see the Trailer,0.12,0,resources/,pics/pencil01.jpg,pics/football.jpg,pics/hairdryer02a.jpg,pics/wheel01.jpg,pics/chainsaw.jpg,pics/stapler10.jpg,pics/peanut01.jpg,pics/triangle.jpg,pics/sink.jpg,blankImage,blankImage,blankImage,blankImage,blankImage,blankImage,blankImage,blankImage,boxtrailer,29,,,,,,,,,,,,,,,,,,,,,,,,,,,,,,,,,,,,,,,,,0,29,29,28,1,,,,,,,,,,,,,,,,,,,,,,,,,,,,,,,,,,,,,,,,,,,,,,,,,,,,,,,
,,,,,5e57bf76eff1680266519b35,6682b41eeb79ab8215dff63d,6682ba127ce76f3697eee04a,27,female,english,2024-07-01_15h17.03.156,ABmemTask3,2023.2.3,Linux x86_64,60.24096386,,,,,,,,,,,,,,,,,,,,,,,,,,,,,,,613.7225,614.7112,614.7112,7,615.2119,616.3783,0.0013,616.4942,0.115,0.1172,0.1165,0.117,0.1161,0.1183,0.1149,0.1175,0.1179,0.115,,616.4943,617.2614,right,0.7477,,617.2614,618.1803,left,0.9077,,38,0,62,618.1805,619.1771,,,,,,1_AB,L1_T1P_T2A,1,1,0,7,8,6,3,11,eggplant,Did you see the eggplant,0.12,0,resources/,pics/salmon.jpg,pics/fanblades.jpg,pics/hammerheadshark.jpg,pics/wheel01.jpg,pics/snowshoe.jpg,pics/birdhouse.jpg,pics/eggplant.jpg,pics/spiderweb.jpg,pics/zebra.jpg,pics/pencilsharpener02a.jpg,pics/backpack01a.jpg,blankImage,blankImage,blankImage,blankImage,blankImage,blankImage,eggplant,32,,,,,,,,,,,,,,,,,,,,,,,,,,,,,,,,,,,,,,,,,0,30,30,31,1,,,,,,,,,,,,,,,,,,,,,,,,,,,,,,,,,,,,,,,,,,,,,,,,,,,,,,,
,,,,,5e57bf76eff1680266519b35,6682b41eeb79ab8215dff63d,6682ba127ce76f3697eee04a,27,female,english,2024-07-01_15h17.03.156,ABmemTask3,2023.2.3,Linux x86_64,60.24096386,,,,,,,,,,,,,,,,,,,,,,,,,,,,,,,619.1882,620.1769,620.1769,7,620.6782,622.3114,0.0024,622.4273,0.1163,0.1154,0.1151,0.1169,0.1169,0.1174,0.1161,0.1207,0.1133,0.1166,0.1201,622.4274,623.6934,left,1.2384,,623.6935,624.3959,left,0.6927,,38,0,64,624.396,625.3932,,,,,,1_AB,L5_T1A_T2P,5,0,1,7,12,6,3,15,scissors,Did you see the scissors,0.12,0,resources/,pics/cannon.jpg,pics/mummy.jpg,pics/shovel01.jpg,pics/christmaslights.jpg,pics/snowshoe.jpg,pics/candle01.jpg,pics/bowtie.jpg,pics/giraffe.jpg,pics/carrot01.jpg,pics/spoon01.jpg,pics/seaturtle.jpg,pics/stapler10.jpg,pics/footballhelmet.jpg,pics/onion.jpg,pics/wheel01.jpg,blankImage,blankImage,scissors01,57,0.1172,0.1133,0.1163,,,,,,,,,,,,,,,,,,,,,,,,,,,,,,,,,,,,,,0,31,31,56,1,,,,,,,,,,,,,,,,,,,,,,,,,,,,,,,,,,,,,,,,,,,,,,,,,,,,,,,
,,,,,5e57bf76eff1680266519b35,6682b41eeb79ab8215dff63d,6682ba127ce76f3697eee04a,27,female,english,2024-07-01_15h17.03.156,ABmemTask3,2023.2.3,Linux x86_64,60.24096386,,,,,,,,,,,,,,,,,,,,,,,,,,,,,,,625.4073,626.4124,626.4124,7,626.9103,628.0767,0.0032,628.1926,0.1134,0.1173,0.1176,0.1164,0.1156,0.1175,0.1169,0.1155,0.1166,0.1166,,628.1927,628.8933,right,0.6798,,628.8933,629.0778,right,0.17,,40,0,66,629.0779,630.0762,,,,,,1_AB,L1_T1P_T2P,1,1,1,7,8,6,3,11,pliers,Did you see the pliers,0.12,0,resources/,pics/mummy.jpg,pics/binder03b.jpg,pics/bowtie.jpg,pics/toiletpaper01a.jpg,pics/football.jpg,pics/blender.jpg,pics/needlenosepliers01.jpg,pics/stapler13.jpg,pics/zebra.jpg,pics/hammerheadshark.jpg,pics/sealion.jpg,blankImage,blankImage,blankImage,blankImage,blankImage,blankImage,needlenosepliers01,6,,,,,,,,,,,,,,,,,,,,,,,,,,,,,,,,,,,,,,,,,0,32,32,5,1,,,,,,,,,,,,,,,,,,,,,,,,,,,,,,,,,,,,,,,,,,,,,,,,,,,,,,,
,,,,,5e57bf76eff1680266519b35,6682b41eeb79ab8215dff63d,6682ba127ce76f3697eee04a,27,female,english,2024-07-01_15h17.03.156,ABmemTask3,2023.2.3,Linux x86_64,60.24096386,,,,,,,,,,,,,,,,,,,,,,,,,,,,,,,630.0768,631.0758,631.0758,7,631.5764,633.0932,0.0018,633.2088,0.1159,0.1164,0.1227,0.1109,0.1169,0.1152,0.1169,0.1175,0.1156,0.118,0.1164,633.2089,633.626,right,0.3971,,633.6261,633.7761,right,0.14,,42,0,68,633.7762,634.7754,,,,,,1_AB,L5_T1P_T2P,5,1,1,6,11,5,3,14,mail box,Did you see the mail box,0.12,0,resources/,pics/pictureframe04.jpg,pics/seaturtle.jpg,pics/blender.jpg,pics/carrot01.jpg,pics/nutcracker01.jpg,pics/mailbox02.jpg,pics/seagull.jpg,pics/sink.jpg,pics/siamesecat.jpg,pics/spiderweb.jpg,pics/stapler08.jpg,pics/safetypin.jpg,pics/candle01.jpg,pics/mummy.jpg,blankImage,blankImage,blankImage,mailbox02,43,0.1166,0.1162,,,,,,,,,,,,,,,,,,,,,,,,,,,,,,,,,,,,,,,0,33,33,42,1,,,,,,,,,,,,,,,,,,,,,,,,,,,,,,,,,,,,,,,,,,,,,,,,,,,,,,,
,,,,,5e57bf76eff1680266519b35,6682b41eeb79ab8215dff63d,6682ba127ce76f3697eee04a,27,female,english,2024-07-01_15h17.03.156,ABmemTask3,2023.2.3,Linux x86_64,60.24096386,,,,,,,,,,,,,,,,,,,,,,,,,,,,,,,634.776,635.7756,635.7757,7,636.2757,637.7919,0.0017,637.9081,0.1161,0.1161,0.1175,0.1164,0.1158,0.117,0.1162,0.1167,0.1164,0.1176,0.1165,637.9081,638.1749,right,0.2505,,638.1749,638.3598,right,0.1696,,44,0,70,638.3599,639.3579,,,,,,1_AB,L5_T1P_T2P,5,1,1,6,11,5,3,14,truck,Did you see the truck,0.12,0,resources/,pics/calendar.jpg,pics/mummy.jpg,pics/ashtray01.jpg,pics/pencilsharpener02a.jpg,pics/dustpan.jpg,pics/boxtruck.jpg,pics/lightswitch01.jpg,pics/pictureframe04.jpg,pics/starfish01.jpg,pics/zebra.jpg,pics/stapler12.jpg,pics/bowtie.jpg,pics/candleholder01.jpg,pics/candle01.jpg,blankImage,blankImage,blankImage,boxtruck,50,0.1175,0.1159,,,,,,,,,,,,,,,,,,,,,,,,,,,,,,,,,,,,,,,0,34,34,49,1,,,,,,,,,,,,,,,,,,,,,,,,,,,,,,,,,,,,,,,,,,,,,,,,,,,,,,,
,,,,,5e57bf76eff1680266519b35,6682b41eeb79ab8215dff63d,6682ba127ce76f3697eee04a,27,female,english,2024-07-01_15h17.03.156,ABmemTask3,2023.2.3,Linux x86_64,60.24096386,,,,,,,,,,,,,,,,,,,,,,,,,,,,,,,639.3587,640.359,640.3591,7,640.8589,642.3745,0.0013,642.4909,0.1146,0.1177,0.1169,0.1162,0.117,0.1165,0.1159,0.1181,0.1166,0.1156,0.12,642.491,642.6089,right,0.0938,,642.609,643.8745,right,1.2557,,46,0,72,643.8746,644.8757,,,,,,1_AB,L5_T1P_T2P,5,1,1,4,9,3,5,14,pliers,Did you see the pliers,0.12,0,resources/,pics/calendar.jpg,pics/footballhelmet.jpg,pics/seaturtle.jpg,pics/pliers02b.jpg,pics/wheel01.jpg,pics/cannon.jpg,pics/proboscismonkey.jpg,pics/shovel01.jpg,pics/stapler06.jpg,pics/football.jpg,pics/hose.jpg,pics/dustpan.jpg,pics/spiderweb.jpg,pics/golfball.jpg,blankImage,blankImage,blankImage,pliers02b,48,0.113,0.1162,,,,,,,,,,,,,,,,,,,,,,,,,,,,,,,,,,,,,,,0,35,35,47,1,,,,,,,,,,,,,,,,,,,,,,,,,,,,,,,,,,,,,,,,,,,,,,,,,,,,,,,
,,,,,5e57bf76eff1680266519b35,6682b41eeb79ab8215dff63d,6682ba127ce76f3697eee04a,27,female,english,2024-07-01_15h17.03.156,ABmemTask3,2023.2.3,Linux x86_64,60.24096386,,,,,,,,,,,,,,,,,,,,,,,,,,,,,,,644.893,645.8905,645.8906,7,646.3903,647.3241,0.0009,647.4418,0.118,0.1154,0.1178,0.1165,0.1166,0.1164,0.1165,0.1159,,,,647.4419,648.144,right,0.6852,,648.1442,648.6737,right,0.5121,,48,0,74,648.6739,649.6747,,,,,,1_AB,L1_T1P_T2P,1,1,1,5,6,4,3,9,paint brush,Did you see the paint brush,0.12,0,resources/,pics/nutcracker01.jpg,pics/piggybank.jpg,pics/spiderweb.jpg,pics/table01.jpg,pics/paintbrush01.jpg,pics/stapler09.jpg,pics/hose.jpg,pics/cannon.jpg,pics/mummy.jpg,blankImage,blankImage,blankImage,blankImage,blankImage,blankImage,blankImage,blankImage,paintbrush01,20,,,,,,,,,,,,,,,,,,,,,,,,,,,,,,,,,,,,,,,,,0,36,36,19,1,,,,,,,,,,,,,,,,,,,,,,,,,,,,,,,,,,,,,,,,,,,,,,,,,,,,,,,
,,,,,5e57bf76eff1680266519b35,6682b41eeb79ab8215dff63d,6682ba127ce76f3697eee04a,27,female,english,2024-07-01_15h17.03.156,ABmemTask3,2023.2.3,Linux x86_64,60.24096386,,,,,,,,,,,,,,,,,,,,,,,,,,,,,,,649.6754,650.673,650.6731,7,651.1731,652.6908,0.0029,652.806,0.1163,0.1165,0.1166,0.1153,0.1174,0.1169,0.1161,0.1175,0.115,0.1183,0.1172,652.8061,653.1071,right,0.2838,,653.1072,653.2732,right,0.1562,,50,0,76,653.2733,654.2728,,,,,,1_AB,L5_T1P_T2P,5,1,1,4,9,3,5,14,asparagus,Did you see the asparagus,0.12,0,resources/,pics/siamesecat.jpg,pics/starfish01.jpg,pics/aquarium.jpg,pics/asparagus.jpg,pics/salmon.jpg,pics/binoculars01b.jpg,pics/ball02.jpg,pics/calendar.jpg,pics/stapler10.jpg,pics/giraffe.jpg,pics/dromedary.jpg,pics/seaturtle.jpg,pics/sandbarshark.jpg,pics/shipinabottle.jpg,blankImage,blankImage,blankImage,asparagus,44,0.1159,0.1159,,,,,,,,,,,,,,,,,,,,,,,,,,,,,,,,,,,,,,,0,37,37,43,1,,,,,,,,,,,,,,,,,,,,,,,,,,,,,,,,,,,,,,,,,,,,,,,,,,,,,,,
,,,,,5e57bf76eff1680266519b35,6682b41eeb79ab8215dff63d,6682ba127ce76f3697eee04a,27,female,english,2024-07-01_15h17.03.156,ABmemTask3,2023.2.3,Linux x86_64,60.24096386,,,,,,,,,,,,,,,,,,,,,,,,,,,,,,,654.2733,655.2732,655.2732,7,655.7726,657.4085,0.0012,657.524,0.1165,0.1165,0.1181,0.1164,0.1149,0.1174,0.1178,0.1167,0.1152,0.1176,0.1169,657.5242,658.4236,left,0.8738,,658.4236,659.4219,right,0.9855,,52,0,78,659.422,660.4217,,,,,,1_AB,L5_T1A_T2P,5,0,1,5,10,4,5,15,scorpion,Did you see the scorpion,0.12,0,resources/,pics/pictureframe04.jpg,pics/binder03b.jpg,pics/pencil01.jpg,pics/leaf02a.jpg,pics/icecube01.jpg,pics/dromedary.jpg,pics/toiletpaper01a.jpg,pics/peanut01.jpg,pics/golfball.jpg,pics/stapler03.jpg,pics/carrot01.jpg,pics/peach01.jpg,pics/sealion.jpg,pics/football.jpg,pics/zebra.jpg,blankImage,blankImage,scorpion,54,0.1152,0.1167,0.1191,,,,,,,,,,,,,,,,,,,,,,,,,,,,,,,,,,,,,,0,38,38,53,1,,,,,,,,,,,,,,,,,,,,,,,,,,,,,,,,,,,,,,,,,,,,,,,,,,,,,,,
,,,,,5e57bf76eff1680266519b35,6682b41eeb79ab8215dff63d,6682ba127ce76f3697eee04a,27,female,english,2024-07-01_15h17.03.156,ABmemTask3,2023.2.3,Linux x86_64,60.24096386,,,,,,,,,,,,,,,,,,,,,,,,,,,,,,,660.4223,661.4223,661.4224,7,661.9223,663.2051,0.001,663.322,0.1171,0.1164,0.1173,0.1185,0.1157,0.1156,0.1156,0.1154,0.1163,0.1165,0.1167,663.3222,664.3725,right,1.0262,,664.3726,664.6386,left,0.256,,54,0,80,664.6388,665.6396,,,,,,1_AB,L1_T1P_T2A,1,1,0,7,8,6,4,12,Tennis racket,Did you see the Tennis racket,0.12,0,resources/,pics/banjo.jpg,pics/leaf02a.jpg,pics/shovel01.jpg,pics/microscope.jpg,pics/cork02.jpg,pics/seagull.jpg,pics/tennisracket.jpg,pics/binder03b.jpg,pics/floortile02.jpg,pics/carrot01.jpg,pics/candle01.jpg,pics/siamesecat.jpg,blankImage,blankImage,blankImage,blankImage,blankImage,tennisracket,38,,,,,,,,,,,,,,,,,,,,,,,,,,,,,,,,,,,,,,,,,0,39,39,37,1,,,,,,,,,,,,,,,,,,,,,,,,,,,,,,,,,,,,,,,,,,,,,,,,,,,,,,,
,,,,,5e57bf76eff1680266519b35,6682b41eeb79ab8215dff63d,6682ba127ce76f3697eee04a,27,female,english,2024-07-01_15h17.03.156,ABmemTask3,2023.2.3,Linux x86_64,60.24096386,,,,,,,,,,,,,,,,,,,,,,,,,,,,,,,665.641,666.6385,666.6387,7,667.1392,668.3046,0.0015,668.4212,0.1153,0.1155,0.1182,0.1171,0.1152,0.1229,0.1103,0.117,0.118,0.1146,,668.4213,669.3555,left,0.9105,,669.3556,669.5231,right,0.1536,,56,0,82,669.5232,670.5207,,,,,,1_AB,L1_T1A_T2P,1,0,1,5,6,4,5,11,Recorder,Did you see the Recorder,0.12,0,resources/,pics/bowtie.jpg,pics/nutcracker01.jpg,pics/hairdryer02a.jpg,pics/shovel01.jpg,pics/onion.jpg,pics/stapler13.jpg,pics/safetypin.jpg,pics/spiderweb.jpg,pics/seagull.jpg,pics/dustpan.jpg,pics/icecube01.jpg,blankImage,blankImage,blankImage,blankImage,blankImage,blankImage,recorder04,28,,,,,,,,,,,,,,,,,,,,,,,,,,,,,,,,,,,,,,,,,0,40,40,27,1,,,,,,,,,,,,,,,,,,,,,,,,,,,,,,,,,,,,,,,,,,,,,,,,,,,,,,,
,,,,,5e57bf76eff1680266519b35,6682b41eeb79ab8215dff63d,6682ba127ce76f3697eee04a,27,female,english,2024-07-01_15h17.03.156,ABmemTask3,2023.2.3,Linux x86_64,60.24096386,,,,,,,,,,,,,,,,,,,,,,,,,,,,,,,670.5229,671.5206,671.5206,7,672.0204,673.5382,0.0011,673.6536,0.1191,0.1156,0.1178,0.1175,0.1137,0.1157,0.1171,0.1177,0.1177,0.1145,0.1164,673.6537,674.0366,right,0.3617,,674.0367,674.2201,right,0.1688,,58,0,84,674.2201,675.2202,,,,,,1_AB,L5_T1P_T2P,5,1,1,5,10,4,4,14,Fox,Did you see the Fox,0.12,0,resources/,pics/hammerheadshark.jpg,pics/bowlingpin.jpg,pics/pictureframe04.jpg,pics/peanut01.jpg,pics/redfox.jpg,pics/cymbal.jpg,pics/spoon01.jpg,pics/banjo.jpg,pics/butterfly.jpg,pics/stapler11.jpg,pics/football.jpg,pics/safetypin.jpg,pics/triangle.jpg,pics/onion.jpg,blankImage,blankImage,blankImage,redfox,45,0.1166,0.1176,,,,,,,,,,,,,,,,,,,,,,,,,,,,,,,,,,,,,,,0,41,41,44,1,,,,,,,,,,,,,,,,,,,,,,,,,,,,,,,,,,,,,,,,,,,,,,,,,,,,,,,
,,,,,5e57bf76eff1680266519b35,6682b41eeb79ab8215dff63d,6682ba127ce76f3697eee04a,27,female,english,2024-07-01_15h17.03.156,ABmemTask3,2023.2.3,Linux x86_64,60.24096386,,,,,,,,,,,,,,,,,,,,,,,,,,,,,,,675.2207,676.2213,676.2214,7,676.7207,677.7711,0.0024,677.8863,0.1179,0.114,0.1189,0.1135,0.1176,0.1167,0.1169,0.1172,0.116,,,677.8865,679.8208,right,1.9123,,679.821,679.9366,left,0.1002,,58,0,86,679.9367,680.9359,,,,,,1_AB,L1_T1P_T2P,1,1,1,4,5,3,5,10,flute,Did you see the flute,0.12,0,resources/,pics/peach01.jpg,pics/seaturtle.jpg,pics/dromedary.jpg,pics/recorder01.jpg,pics/stapler08.jpg,pics/giraffe.jpg,pics/blender.jpg,pics/necklace.jpg,pics/sink.jpg,pics/dustpan.jpg,blankImage,blankImage,blankImage,blankImage,blankImage,blankImage,blankImage,recorder01,7,,,,,,,,,,,,,,,,,,,,,,,,,,,,,,,,,,,,,,,,,0,42,42,6,1,,,,,,,,,,,,,,,,,,,,,,,,,,,,,,,,,,,,,,,,,,,,,,,,,,,,,,,
,,,,,5e57bf76eff1680266519b35,6682b41eeb79ab8215dff63d,6682ba127ce76f3697eee04a,27,female,english,2024-07-01_15h17.03.156,ABmemTask3,2023.2.3,Linux x86_64,60.24096386,,,,,,,,,,,,,,,,,,,,,,,,,,,,,,,680.9475,681.9365,681.9366,7,682.4358,683.2525,0.001,683.3691,0.1172,0.1172,0.1152,0.1176,0.1214,0.1112,0.1162,,,,,683.3691,684.4194,right,1.0311,,684.4195,684.6193,right,0.1839,,60,0,88,684.6194,685.6192,,,,,,1_AB,L1_T1P_T2P,1,1,1,4,5,3,3,8,Recycling bin,Did you see the Recycling bin,0.12,0,resources/,pics/microscope.jpg,pics/dustpan.jpg,pics/seagull.jpg,pics/recyclingbin.jpg,pics/stapler06.jpg,pics/bowtie.jpg,pics/dromedary.jpg,pics/salmon.jpg,blankImage,blankImage,blankImage,blankImage,blankImage,blankImage,blankImage,blankImage,blankImage,recyclingbin,16,,,,,,,,,,,,,,,,,,,,,,,,,,,,,,,,,,,,,,,,,0,43,43,15,1,,,,,,,,,,,,,,,,,,,,,,,,,,,,,,,,,,,,,,,,,,,,,,,,,,,,,,,
,,,,,5e57bf76eff1680266519b35,6682b41eeb79ab8215dff63d,6682ba127ce76f3697eee04a,27,female,english,2024-07-01_15h17.03.156,ABmemTask3,2023.2.3,Linux x86_64,60.24096386,,,,,,,,,,,,,,,,,,,,,,,,,,,,,,,685.6203,686.6187,686.6188,7,687.1186,688.054,0.0011,688.1694,0.1179,0.1148,0.1196,0.1148,0.1156,0.1179,0.1179,0.1162,,,,688.1695,689.086,right,0.8896,,689.086,689.2865,left,0.1906,,62,0,90,689.2866,690.2855,,,,,,1_AB,L1_T1P_T2A,1,1,0,4,5,3,4,9,blueberry,Did you see the blueberry,0.12,0,resources/,pics/sealion.jpg,pics/piggybank.jpg,pics/sink.jpg,pics/blueberry01.jpg,pics/onion.jpg,pics/sailboat.jpg,pics/seaturtle.jpg,pics/hen.jpg,pics/fanblades.jpg,blankImage,blankImage,blankImage,blankImage,blankImage,blankImage,blankImage,blankImage,blueberry01,35,,,,,,,,,,,,,,,,,,,,,,,,,,,,,,,,,,,,,,,,,0,44,44,34,1,,,,,,,,,,,,,,,,,,,,,,,,,,,,,,,,,,,,,,,,,,,,,,,,,,,,,,,
,,,,,5e57bf76eff1680266519b35,6682b41eeb79ab8215dff63d,6682ba127ce76f3697eee04a,27,female,english,2024-07-01_15h17.03.156,ABmemTask3,2023.2.3,Linux x86_64,60.24096386,,,,,,,,,,,,,,,,,,,,,,,,,,,,,,,690.2859,691.286,691.286,7,691.7847,692.8352,0.0018,692.9515,0.1166,0.1156,0.1166,0.1173,0.1173,0.1155,0.1178,0.1162,0.116,,,692.9516,693.7344,right,0.7561,,693.7344,693.8509,left,0.0985,,64,0,92,693.8509,694.8514,,,,,,1_AB,L1_T1P_T2A,1,1,0,6,7,5,3,10,Electric toothbrush,Did you see the Electric toothbrush,0.12,0,resources/,pics/football.jpg,pics/sailboat.jpg,pics/cymbal.jpg,pics/hen.jpg,pics/pencil01.jpg,pics/electrictoothbrush01c.jpg,pics/bowlingpin.jpg,pics/wheel01.jpg,pics/birdhouse.jpg,pics/leaf02a.jpg,blankImage,blankImage,blankImage,blankImage,blankImage,blankImage,blankImage,electrictoothbrush01c,34,,,,,,,,,,,,,,,,,,,,,,,,,,,,,,,,,,,,,,,,,0,45,45,33,1,,,,,,,,,,,,,,,,,,,,,,,,,,,,,,,,,,,,,,,,,,,,,,,,,,,,,,,
,,,,,5e57bf76eff1680266519b35,6682b41eeb79ab8215dff63d,6682ba127ce76f3697eee04a,27,female,english,2024-07-01_15h17.03.156,ABmemTask3,2023.2.3,Linux x86_64,60.24096386,,,,,,,,,,,,,,,,,,,,,,,,,,,,,,,694.8521,695.8518,695.8519,7,696.3511,697.5184,0.0013,697.634,0.1187,0.115,0.1164,0.1167,0.1189,0.1136,0.1174,0.1153,0.118,0.1168,,697.6341,698.2515,right,0.5956,,698.2515,698.3844,left,0.1163,,64,0,94,698.3845,699.3836,,,,,,1_AB,L1_T1P_T2P,1,1,1,7,8,6,3,11,Eiffel tower,Did you see the Eiffel tower,0.12,0,resources/,pics/seagull.jpg,pics/cymbal.jpg,pics/match.jpg,pics/binoculars01b.jpg,pics/ball02.jpg,pics/onion.jpg,pics/eiffeltower.jpg,pics/stapler11.jpg,pics/peach01.jpg,pics/sandbarshark.jpg,pics/boot02b.jpg,blankImage,blankImage,blankImage,blankImage,blankImage,blankImage,eiffeltower,1,,,,,,,,,,,,,,,,,,,,,,,,,,,,,,,,,,,,,,,,,0,46,46,0,1,,,,,,,,,,,,,,,,,,,,,,,,,,,,,,,,,,,,,,,,,,,,,,,,,,,,,,,
,,,,,5e57bf76eff1680266519b35,6682b41eeb79ab8215dff63d,6682ba127ce76f3697eee04a,27,female,english,2024-07-01_15h17.03.156,ABmemTask3,2023.2.3,Linux x86_64,60.24096386,,,,,,,,,,,,,,,,,,,,,,,,,,,,,,,699.3841,700.3842,700.3843,7,700.8854,702.634,0.0021,702.7507,0.1155,0.1173,0.116,0.1165,0.1178,0.1141,0.1179,0.116,0.1173,0.1155,0.1173,702.7508,703.7663,right,0.9964,,703.7663,703.9177,left,0.1387,,66,0,96,703.9178,704.9162,,,,,,1_AB,L5_T1P_T2A,5,1,0,6,11,5,5,16,belt,Did you see the belt,0.12,0,resources/,pics/banjo.jpg,pics/birdhouse.jpg,pics/spoon01.jpg,pics/table01.jpg,pics/candle01.jpg,pics/belt02a.jpg,pics/peach01.jpg,pics/chainsaw.jpg,pics/toiletpaper01a.jpg,pics/proboscismonkey.jpg,pics/cymbal.jpg,pics/binoculars01b.jpg,pics/cannon.jpg,pics/noparkingsign.jpg,pics/sailboat.jpg,pics/carrot01.jpg,blankImage,belt02a,61,0.1166,0.1163,0.1165,,,,,,,,,,,,,,,,,,,,,,,,,,,,,,,,,,,,,,0,47,47,60,1,0.1165,,,,,,,,,,,,,,,,,,,,,,,,,,,,,,,,,,,,,,,,,,,,,,,,,,,,,,
,,,,,5e57bf76eff1680266519b35,6682b41eeb79ab8215dff63d,6682ba127ce76f3697eee04a,27,female,english,2024-07-01_15h17.03.156,ABmemTask3,2023.2.3,Linux x86_64,60.24096386,,,,,,,,,,,,,,,,,,,,,,,,,,,,,,,704.9269,705.9184,705.9185,7,706.4159,707.584,0.0034,707.7007,0.114,0.1173,0.1175,0.1178,0.117,0.1172,0.1132,0.1172,0.1163,0.1178,,707.7014,708.7826,right,1.0613,,708.7826,708.9496,left,0.1569,,68,0,98,708.9497,709.9513,,,,,,1_AB,L1_T1P_T2A,1,1,0,7,8,6,3,11,garlic,Did you see the garlic,0.12,0,resources/,pics/zebra.jpg,pics/banjo.jpg,pics/pencilsharpener02a.jpg,pics/football.jpg,pics/candle01.jpg,pics/footballhelmet.jpg,pics/garlic01a.jpg,pics/birdhouse.jpg,pics/peach01.jpg,pics/pictureframe04.jpg,pics/binder03b.jpg,blankImage,blankImage,blankImage,blankImage,blankImage,blankImage,garlic01a,33,,,,,,,,,,,,,,,,,,,,,,,,,,,,,,,,,,,,,,,,,0,48,48,32,1,,,,,,,,,,,,,,,,,,,,,,,,,,,,,,,,,,,,,,,,,,,,,,,,,,,,,,,
,,,,,5e57bf76eff1680266519b35,6682b41eeb79ab8215dff63d,6682ba127ce76f3697eee04a,27,female,english,2024-07-01_15h17.03.156,ABmemTask3,2023.2.3,Linux x86_64,60.24096386,,,,,,,,,,,,,,,,,,,,,,,,,,,,,,,709.9521,710.9505,710.9507,7,711.4487,712.6156,0.0017,712.7318,0.1158,0.1166,0.1164,0.1182,0.1161,0.1162,0.118,0.1148,0.1171,0.1162,,712.7319,713.5153,right,0.765,,713.516,713.5988,left,0.073,,70,0,100,713.5989,714.5995,,,,,,1_AB,L1_T1P_T2A,1,1,0,6,7,5,4,11,lamp,Did you see the lamp,0.12,0,resources/,pics/chainsaw.jpg,pics/fanblades.jpg,pics/salmon.jpg,pics/proboscismonkey.jpg,pics/boot02b.jpg,pics/lamp04a.jpg,pics/blender.jpg,pics/sink.jpg,pics/pencil01.jpg,pics/floortile02.jpg,pics/shovel01.jpg,blankImage,blankImage,blankImage,blankImage,blankImage,blankImage,lamp04a,37,,,,,,,,,,,,,,,,,,,,,,,,,,,,,,,,,,,,,,,,,0,49,49,36,1,,,,,,,,,,,,,,,,,,,,,,,,,,,,,,,,,,,,,,,,,,,,,,,,,,,,,,,
,,,,,5e57bf76eff1680266519b35,6682b41eeb79ab8215dff63d,6682ba127ce76f3697eee04a,27,female,english,2024-07-01_15h17.03.156,ABmemTask3,2023.2.3,Linux x86_64,60.24096386,,,,,,,,,,,,,,,,,,,,,,,,,,,,,,,714.6003,715.5984,715.5984,7,716.0991,717.1484,0.004,717.2649,0.1142,0.1165,0.1173,0.1179,0.1127,0.1171,0.1183,0.1166,0.1149,,,717.2651,717.798,right,0.5121,,717.7987,717.982,right,0.1715,,72,0,102,717.9821,718.9824,,,,,,1_AB,L1_T1P_T2P,1,1,1,5,6,4,4,10,thermometer,Did you see the thermometer,0.12,0,resources/,pics/triangle.jpg,pics/shovel01.jpg,pics/mummy.jpg,pics/noparkingsign.jpg,pics/thermometer02b.jpg,pics/stapler04.jpg,pics/piggybank.jpg,pics/golfball.jpg,pics/laptop01a.jpg,pics/aquarium.jpg,blankImage,blankImage,blankImage,blankImage,blankImage,blankImage,blankImage,thermometer02b,8,,,,,,,,,,,,,,,,,,,,,,,,,,,,,,,,,,,,,,,,,0,50,50,7,1,,,,,,,,,,,,,,,,,,,,,,,,,,,,,,,,,,,,,,,,,,,,,,,,,,,,,,,
,,,,,5e57bf76eff1680266519b35,6682b41eeb79ab8215dff63d,6682ba127ce76f3697eee04a,27,female,english,2024-07-01_15h17.03.156,ABmemTask3,2023.2.3,Linux x86_64,60.24096386,,,,,,,,,,,,,,,,,,,,,,,,,,,,,,,718.9834,719.9815,719.9816,7,720.482,721.2977,0.0011,721.414,0.1155,0.1174,0.1156,0.117,0.1178,0.1158,0.1156,,,,,721.4141,722.4471,left,1.0185,,722.4472,722.6807,left,0.2215,,72,0,104,722.6807,723.681,,,,,,1_AB,L1_T1A_T2P,1,0,1,4,5,3,3,8,Parking meter,Did you see the Parking meter,0.12,0,resources/,pics/leaf02a.jpg,pics/carrot01.jpg,pics/sink.jpg,pics/butterfly.jpg,pics/stapler10.jpg,pics/pictureframe04.jpg,pics/spiderweb.jpg,pics/icecube01.jpg,blankImage,blankImage,blankImage,blankImage,blankImage,blankImage,blankImage,blankImage,blankImage,parkingmeter,30,,,,,,,,,,,,,,,,,,,,,,,,,,,,,,,,,,,,,,,,,0,51,51,29,1,,,,,,,,,,,,,,,,,,,,,,,,,,,,,,,,,,,,,,,,,,,,,,,,,,,,,,,
,,,,,5e57bf76eff1680266519b35,6682b41eeb79ab8215dff63d,6682ba127ce76f3697eee04a,27,female,english,2024-07-01_15h17.03.156,ABmemTask3,2023.2.3,Linux x86_64,60.24096386,,,,,,,,,,,,,,,,,,,,,,,,,,,,,,,723.6821,724.6811,724.6811,7,725.1813,726.3476,0.0013,726.4636,0.116,0.116,0.1179,0.1164,0.1168,0.1183,0.1152,0.1154,0.1169,0.1176,,726.4639,727.3316,right,0.8491,,727.3317,727.481,left,0.1362,,74,0,106,727.481,728.4799,,,,,,1_AB,L1_T1P_T2A,1,1,0,7,8,6,3,11,Spear,Did you see the Spear,0.12,0,resources/,pics/butterfly.jpg,pics/banjo.jpg,pics/chainsaw.jpg,pics/christmaslights.jpg,pics/dustpan.jpg,pics/shovel01.jpg,pics/spear02.jpg,pics/table01.jpg,pics/starfish01.jpg,pics/bowlingpin.jpg,pics/carrot01.jpg,blankImage,blankImage,blankImage,blankImage,blankImage,blankImage,spear02,39,,,,,,,,,,,,,,,,,,,,,,,,,,,,,,,,,,,,,,,,,0,52,52,38,1,,,,,,,,,,,,,,,,,,,,,,,,,,,,,,,,,,,,,,,,,,,,,,,,,,,,,,,
,,,,,5e57bf76eff1680266519b35,6682b41eeb79ab8215dff63d,6682ba127ce76f3697eee04a,27,female,english,2024-07-01_15h17.03.156,ABmemTask3,2023.2.3,Linux x86_64,60.24096386,,,,,,,,,,,,,,,,,,,,,,,,,,,,,,,728.4811,729.4803,729.4803,7,729.98,731.1471,0.0018,731.2629,0.1155,0.117,0.1166,0.1177,0.1151,0.1164,0.1167,0.1167,0.1165,0.1177,,731.263,732.1461,right,0.863,,732.1462,732.2962,left,0.1332,,74,0,108,732.2963,733.296,,,,,,1_AB,L1_T1P_T2P,1,1,1,7,8,6,3,11,medal,Did you see the medal,0.12,0,resources/,pics/hen.jpg,pics/starfish01.jpg,pics/nutcracker01.jpg,pics/ball02.jpg,pics/fanblades.jpg,pics/christmaslights.jpg,pics/medal02b.jpg,pics/stapler09.jpg,pics/carrot01.jpg,pics/hammerheadshark.jpg,pics/sailboat.jpg,blankImage,blankImage,blankImage,blankImage,blankImage,blankImage,medal02b,19,,,,,,,,,,,,,,,,,,,,,,,,,,,,,,,,,,,,,,,,,0,53,53,18,1,,,,,,,,,,,,,,,,,,,,,,,,,,,,,,,,,,,,,,,,,,,,,,,,,,,,,,,
,,,,,5e57bf76eff1680266519b35,6682b41eeb79ab8215dff63d,6682ba127ce76f3697eee04a,27,female,english,2024-07-01_15h17.03.156,ABmemTask3,2023.2.3,Linux x86_64,60.24096386,,,,,,,,,,,,,,,,,,,,,,,,,,,,,,,733.2971,734.296,734.296,7,734.796,735.9631,0.0015,736.0789,0.1154,0.1176,0.1156,0.117,0.1168,0.1179,0.1155,0.1162,0.1182,0.116,,736.0797,736.762,right,0.6617,,736.7621,736.9457,right,0.1728,,76,0,110,736.9458,737.9456,,,,,,1_AB,L1_T1P_T2P,1,1,1,7,8,6,3,11,bird,Did you see the bird,0.12,0,resources/,pics/sealion.jpg,pics/backpack01a.jpg,pics/hose.jpg,pics/table01.jpg,pics/wheel01.jpg,pics/seaturtle.jpg,pics/americangoldfinch.jpg,pics/stapler08.jpg,pics/siamesecat.jpg,pics/hammerheadshark.jpg,pics/ashtray01.jpg,blankImage,blankImage,blankImage,blankImage,blankImage,blankImage,americangoldfinch,23,,,,,,,,,,,,,,,,,,,,,,,,,,,,,,,,,,,,,,,,,0,54,54,22,1,,,,,,,,,,,,,,,,,,,,,,,,,,,,,,,,,,,,,,,,,,,,,,,,,,,,,,,
,,,,,5e57bf76eff1680266519b35,6682b41eeb79ab8215dff63d,6682ba127ce76f3697eee04a,27,female,english,2024-07-01_15h17.03.156,ABmemTask3,2023.2.3,Linux x86_64,60.24096386,,,,,,,,,,,,,,,,,,,,,,,,,,,,,,,737.9469,738.9454,738.9455,7,739.4458,740.9619,0.0012,741.0787,0.1165,0.1171,0.1159,0.1158,0.1179,0.1169,0.1152,0.1168,0.1175,0.1168,0.1165,741.0789,741.8453,right,0.7457,,741.8454,742.0614,left,0.1982,,78,0,112,742.0615,743.0654,,,,,,1_AB,L5_T1P_T2A,5,1,0,4,9,3,5,14,Frisbee,Did you see the Frisbee,0.12,0,resources/,pics/giraffe.jpg,pics/christmaslights.jpg,pics/bowtie.jpg,pics/frisbee.jpg,pics/banjo.jpg,pics/calendar.jpg,pics/butterfly.jpg,pics/onion.jpg,pics/starfish01.jpg,pics/footballhelmet.jpg,pics/blender.jpg,pics/candleholder01.jpg,pics/hairdryer02a.jpg,pics/dromedary.jpg,blankImage,blankImage,blankImage,frisbee,58,0.1169,0.1153,,,,,,,,,,,,,,,,,,,,,,,,,,,,,,,,,,,,,,,0,55,55,57,1,,,,,,,,,,,,,,,,,,,,,,,,,,,,,,,,,,,,,,,,,,,,,,,,,,,,,,,
,,,,,5e57bf76eff1680266519b35,6682b41eeb79ab8215dff63d,6682ba127ce76f3697eee04a,27,female,english,2024-07-01_15h17.03.156,ABmemTask3,2023.2.3,Linux x86_64,60.24096386,,,,,,,,,,,,,,,,,,,,,,,,,,,,,,,743.066,744.0615,744.0616,7,744.5615,745.7293,0.0019,745.8444,0.1156,0.1163,0.1178,0.1173,0.1151,0.1178,0.1159,0.1201,0.1138,0.1165,,745.8445,746.6443,left,0.7773,,746.6443,746.8607,left,0.1984,,80,0,114,746.8608,747.8608,,,,,,1_AB,L1_T1A_T2A,1,0,0,7,8,6,3,11,Poker chips,Did you see the Poker chips,0.12,0,resources/,pics/candle01.jpg,pics/proboscismonkey.jpg,pics/fanblades.jpg,pics/dromedary.jpg,pics/aquarium.jpg,pics/salmon.jpg,pics/hose.jpg,pics/kangaroo.jpg,pics/noparkingsign.jpg,pics/carrot01.jpg,pics/leaf02a.jpg,blankImage,blankImage,blankImage,blankImage,blankImage,blankImage,pokerchips,41,,,,,,,,,,,,,,,,,,,,,,,,,,,,,,,,,,,,,,,,,0,56,56,40,1,,,,,,,,,,,,,,,,,,,,,,,,,,,,,,,,,,,,,,,,,,,,,,,,,,,,,,,
,,,,,5e57bf76eff1680266519b35,6682b41eeb79ab8215dff63d,6682ba127ce76f3697eee04a,27,female,english,2024-07-01_15h17.03.156,ABmemTask3,2023.2.3,Linux x86_64,60.24096386,,,,,,,,,,,,,,,,,,,,,,,,,,,,,,,747.8619,748.8614,748.8615,7,749.3606,751.1114,0.0018,751.2275,0.1166,0.1154,0.1185,0.117,0.1151,0.1181,0.1144,0.1172,0.1168,0.1161,0.1176,751.2276,752.0102,right,0.7621,,752.0103,752.1787,left,0.1587,,82,0,116,752.1788,753.1768,,,,,,1_AB,L5_T1P_T2A,5,1,0,7,12,6,4,16,boat,Did you see the boat,0.12,0,resources/,pics/butterfly.jpg,pics/onion.jpg,pics/hose.jpg,pics/ball02.jpg,pics/ashtray01.jpg,pics/bowtie.jpg,pics/boat.jpg,pics/seaturtle.jpg,pics/blender.jpg,pics/zebra.jpg,pics/pictureframe04.jpg,pics/shovel01.jpg,pics/spoon01.jpg,pics/peanut01.jpg,pics/nutcracker01.jpg,pics/aquarium.jpg,blankImage,boat,60,0.1157,0.1167,0.1173,,,,,,,,,,,,,,,,,,,,,,,,,,,,,,,,,,,,,,0,57,57,59,1,0.1168,,,,,,,,,,,,,,,,,,,,,,,,,,,,,,,,,,,,,,,,,,,,,,,,,,,,,,
