consent1.started,consent1.stopped,key_resp_8.keys,key_resp_8.rt,key_resp_8.duration,PROLIFIC_PID,STUDY_ID,SESSION_ID,age,sex,native language,date,expName,psychopyVersion,OS,frameRate,consent2.started,consent2.stopped,key_resp_9.keys,key_resp_9.rt,key_resp_9.duration,consent3.started,consent3.stopped,key_resp_10.keys,key_resp_10.rt,key_resp_10.duration,consent4.started,consent4.stopped,key_resp_11.keys,key_resp_11.rt,key_resp_11.duration,consent5.started,consent5.stopped,key_resp_12.keys,key_resp_12.rt,key_resp_12.duration,bonusInstruct.started,bonusInstruct.stopped,key_resp_14.keys,key_resp_14.rt,key_resp_14.duration,practiceInstruct.started,practiceInstruct.stopped,key_resp.keys,key_resp.rt,key_resp.duration,cueWord_2.started,cueWord_2.stopped,fix.started,frameTarget,fix.stopped,trial.started,img1Add,trial.stopped,img2Add,img3Add,img4Add,img5Add,img6Add,img7Add,img8Add,img9Add,img10Add,img11Add,img12Add,prompt1.started,prompt1.stopped,key_resp_2.keys,key_resp_2.rt,key_resp_2.duration,prompt2.started,prompt2.stopped,key_resp_3.keys,key_resp_3.rt,key_resp_3.duration,runningAcc_AB,runningTotal,runningCount_AB,feedback.started,feedback.stopped,trials.thisRepN,trials.thisTrialN,trials.thisN,trials.thisIndex,trials.ran,TrialType,CondType,Lag,T1_PA,T2_PA,T1Loc,T2Loc,PreDistractor,PostDistractor,TotalImg,cueWord,T1cue,StimLength,isi,PicFolder,Img1,Img2,Img3,Img4,Img5,Img6,Img7,Img8,Img9,Img10,Img11,Img12,Img13,Img14,Img15,Img16,Img17,T1_Identity,trialID,img13Add,img14Add,img15Add,ABfeedback.started,ABfeedback.stopped,key_resp_13.keys,key_resp_13.rt,key_resp_13.duration,MemPracticeInstruction.started,MemPracticeInstruction.stopped,key_resp_5.keys,key_resp_5.rt,key_resp_5.duration,memTrial.started,memTrial.stopped,Mem_runningPoints,key_resp_4.keys,key_resp_4.rt,key_resp_4.duration,memTrialFeedback.started,memTrialFeedback.stopped,trials_2.thisRepN,trials_2.thisTrialN,trials_2.thisN,trials_2.thisIndex,trials_2.ran,ABtrialID,priorLag,image,memFeedback.started,memFeedback.frame,memFeedback.ended,memFeedback.stopped,bonus.started,bonus.stopped,memoryBlockABInstruct.started,memoryBlockABInstruct.stopped,key_resp_6.keys,key_resp_6.rt,key_resp_6.duration,img16Add,AB_block_1.thisRepN,AB_block_1.thisTrialN,AB_block_1.thisN,AB_block_1.thisIndex,AB_block_1.ran,img17Add,AB_break1.started,AB_break1.stopped,PerceiveBlockABInstruct.started,PerceiveBlockABInstruct.stopped,key_resp_7.keys,key_resp_7.rt,key_resp_7.duration,AB_block_2.thisRepN,AB_block_2.thisTrialN,AB_block_2.thisN,AB_block_2.thisIndex,AB_block_2.ran,AB_break2.started,AB_break2.stopped,AB_block_3.thisRepN,AB_block_3.thisTrialN,AB_block_3.thisN,AB_block_3.thisIndex,AB_block_3.ran,AB_break3.started,AB_break3.stopped,AB_block_4.thisRepN,AB_block_4.thisTrialN,AB_block_4.thisN,AB_block_4.thisIndex,AB_block_4.ran,AB_break4.started,AB_break4.stopped,AB_block_5.thisRepN,AB_block_5.thisTrialN,AB_block_5.thisN,AB_block_5.thisIndex,AB_block_5.ran,AB_break5.started,AB_break5.stopped,AB_block_6.thisRepN,AB_block_6.thisTrialN,AB_block_6.thisN,AB_block_6.thisIndex,AB_block_6.ran,AB_break6.started,AB_break6.stopped,MemInstructionSURPRISE.started,MemInstructionSURPRISE.stopped,MemInstruction.started,MemInstruction.stopped,memBreak.started,memBreak.stopped,Mem_block_1.thisRepN,Mem_block_1.thisTrialN,Mem_block_1.thisN,Mem_block_1.thisIndex,Mem_block_1.ran
0,7.937,space,7.903,,5f44ee515cff5c02f09c17be,6682b41eeb79ab8215dff63d,6682b9a9f4182cad72f96761,29,Female,English,2024-07-01_15h15.09.753,ABmemTask3,2023.2.3,MacIntel,58.82352941,,,,,,,,,,,,,,,,,,,,,,,,,,,,,,,,,,,,,,,,,,,,,,,,,,,,,,,,,,,,,,,,,,,,,,,,,,,,,,,,,,,,,,,,,,,,,,,,,,,,,,,,,,,,,,,,,,,,,,,,,,,,,,,,,,,,,,,,,,,,,,,,,,,,,,,,,,,,,,,,,,,,,,,,,,,,,,,,,,,,,,,,,,,,,,,,,,,,,,,,,,,
,,,,,5f44ee515cff5c02f09c17be,6682b41eeb79ab8215dff63d,6682b9a9f4182cad72f96761,29,Female,English,2024-07-01_15h15.09.753,ABmemTask3,2023.2.3,MacIntel,58.82352941,7.938,32.368,space,24.408,,,,,,,,,,,,,,,,,,,,,,,,,,,,,,,,,,,,,,,,,,,,,,,,,,,,,,,,,,,,,,,,,,,,,,,,,,,,,,,,,,,,,,,,,,,,,,,,,,,,,,,,,,,,,,,,,,,,,,,,,,,,,,,,,,,,,,,,,,,,,,,,,,,,,,,,,,,,,,,,,,,,,,,,,,,,,,,,,,,,,,,,,,,,,,,,,,,,,,,
,,,,,5f44ee515cff5c02f09c17be,6682b41eeb79ab8215dff63d,6682b9a9f4182cad72f96761,29,Female,English,2024-07-01_15h15.09.753,ABmemTask3,2023.2.3,MacIntel,58.82352941,,,,,,32.368,49.786,space,17.394,,,,,,,,,,,,,,,,,,,,,,,,,,,,,,,,,,,,,,,,,,,,,,,,,,,,,,,,,,,,,,,,,,,,,,,,,,,,,,,,,,,,,,,,,,,,,,,,,,,,,,,,,,,,,,,,,,,,,,,,,,,,,,,,,,,,,,,,,,,,,,,,,,,,,,,,,,,,,,,,,,,,,,,,,,,,,,,,,,,,,,,,,,,,,,,,,,
,,,,,5f44ee515cff5c02f09c17be,6682b41eeb79ab8215dff63d,6682b9a9f4182cad72f96761,29,Female,English,2024-07-01_15h15.09.753,ABmemTask3,2023.2.3,MacIntel,58.82352941,,,,,,,,,,,49.786,55.854,space,6.049,,,,,,,,,,,,,,,,,,,,,,,,,,,,,,,,,,,,,,,,,,,,,,,,,,,,,,,,,,,,,,,,,,,,,,,,,,,,,,,,,,,,,,,,,,,,,,,,,,,,,,,,,,,,,,,,,,,,,,,,,,,,,,,,,,,,,,,,,,,,,,,,,,,,,,,,,,,,,,,,,,,,,,,,,,,,,,,,,,,,,,,,,,,,,
,,,,,5f44ee515cff5c02f09c17be,6682b41eeb79ab8215dff63d,6682b9a9f4182cad72f96761,29,Female,English,2024-07-01_15h15.09.753,ABmemTask3,2023.2.3,MacIntel,58.82352941,,,,,,,,,,,,,,,,55.854,59.103,space,3.233,,,,,,,,,,,,,,,,,,,,,,,,,,,,,,,,,,,,,,,,,,,,,,,,,,,,,,,,,,,,,,,,,,,,,,,,,,,,,,,,,,,,,,,,,,,,,,,,,,,,,,,,,,,,,,,,,,,,,,,,,,,,,,,,,,,,,,,,,,,,,,,,,,,,,,,,,,,,,,,,,,,,,,,,,,,,,,,,,,,,,,,,
,,,,,5f44ee515cff5c02f09c17be,6682b41eeb79ab8215dff63d,6682b9a9f4182cad72f96761,29,Female,English,2024-07-01_15h15.09.753,ABmemTask3,2023.2.3,MacIntel,58.82352941,,,,,,,,,,,,,,,,,,,,,59.103,67.97,space,8.838,,,,,,,,,,,,,,,,,,,,,,,,,,,,,,,,,,,,,,,,,,,,,,,,,,,,,,,,,,,,,,,,,,,,,,,,,,,,,,,,,,,,,,,,,,,,,,,,,,,,,,,,,,,,,,,,,,,,,,,,,,,,,,,,,,,,,,,,,,,,,,,,,,,,,,,,,,,,,,,,,,,,,,,,,,,,,,,,,,,
,,,,,5f44ee515cff5c02f09c17be,6682b41eeb79ab8215dff63d,6682b9a9f4182cad72f96761,29,Female,English,2024-07-01_15h15.09.753,ABmemTask3,2023.2.3,MacIntel,58.82352941,,,,,,,,,,,,,,,,,,,,,,,,,,67.97,83.304,space,15.299,,,,,,,,,,,,,,,,,,,,,,,,,,,,,,,,,,,,,,,,,,,,,,,,,,,,,,,,,,,,,,,,,,,,,,,,,,,,,,,,,,,,,,,,,,,,,,,,,,,,,,,,,,,,,,,,,,,,,,,,,,,,,,,,,,,,,,,,,,,,,,,,,,,,,,,,,,,,,,,,,,,,,,,,,,,,,,
,,,,,5f44ee515cff5c02f09c17be,6682b41eeb79ab8215dff63d,6682b9a9f4182cad72f96761,29,Female,English,2024-07-01_15h15.09.753,ABmemTask3,2023.2.3,MacIntel,58.82352941,,,,,,,,,,,,,,,,,,,,,,,,,,,,,,,83.312,84.304,84.304,15,84.804,87.554,0.002,87.804,0.248,0.25,0.25,0.25,0.25,0.25,0.25,0.25,0.25,0.25,0.25,87.805,89.189,right,1.373,,89.189,90.104,left,0.898,,2,0,2,90.104,91.104,0,0,0,0,1,prac_AB,L1_T1P_T2A,1,1,0,6,7,5,5,12,cat,Did you see the cat,0.25,0,resources/,pics/shipinabottle.jpg,pics/table01.jpg,pics/dustpan.jpg,pics/golfball.jpg,pics/giraffe.jpg,pics/cat.jpg,pics/peanut01.jpg,pics/pictureframe04.jpg,pics/fanblades.jpg,pics/laptop01a.jpg,pics/ball02.jpg,pics/blender.jpg,blankImage,blankImage,blankImage,blankImage,blankImage,cat,8,,,,,,,,,,,,,,,,,,,,,,,,,,,,,,,,,,,,,,,,,,,,,,,,,,,,,,,,,,,,,,,,,,,,,,,,,,,,,,,,,,,,,,,,,,,,,,,,,,,,
,,,,,5f44ee515cff5c02f09c17be,6682b41eeb79ab8215dff63d,6682b9a9f4182cad72f96761,29,Female,English,2024-07-01_15h15.09.753,ABmemTask3,2023.2.3,MacIntel,58.82352941,,,,,,,,,,,,,,,,,,,,,,,,,,,,,,,91.105,92.104,92.104,14,92.604,94.704,0.002,94.937,0.231,0.234,0.233,0.233,0.234,0.233,0.234,0.233,0.233,,,94.938,95.887,right,0.936,,95.887,96.373,right,0.478,,4,0,4,96.373,97.37,0,1,1,1,1,prac_AB,L1_T1P_T2P,1,1,1,5,6,4,4,10,tree,Did you see the tree,0.24,0,resources/,pics/carrot01.jpg,pics/hammerheadshark.jpg,pics/kangaroo.jpg,pics/proboscismonkey.jpg,pics/tree.jpg,pics/stapler07.jpg,pics/siamesecat.jpg,pics/ball02.jpg,pics/pictureframe04.jpg,pics/mummy.jpg,blankImage,blankImage,blankImage,blankImage,blankImage,blankImage,blankImage,tree,1,,,,,,,,,,,,,,,,,,,,,,,,,,,,,,,,,,,,,,,,,,,,,,,,,,,,,,,,,,,,,,,,,,,,,,,,,,,,,,,,,,,,,,,,,,,,,,,,,,,,
,,,,,5f44ee515cff5c02f09c17be,6682b41eeb79ab8215dff63d,6682b9a9f4182cad72f96761,29,Female,English,2024-07-01_15h15.09.753,ABmemTask3,2023.2.3,MacIntel,58.82352941,,,,,,,,,,,,,,,,,,,,,,,,,,,,,,,97.371,98.371,98.371,14,98.871,101.438,0.001,101.671,0.232,0.234,0.233,0.233,0.233,0.233,0.234,0.234,0.233,0.233,0.234,101.671,102.604,left,0.914,,102.604,103.104,right,0.486,,6,0,6,103.104,104.104,0,2,2,2,1,prac_AB,L1_T1A_T2P,1,0,1,7,8,6,4,12,grapes,Did you see the grapes,0.23,0,resources/,pics/sailboat.jpg,pics/butterfly.jpg,pics/giraffe.jpg,pics/spoon01.jpg,pics/hose.jpg,pics/nutcracker01.jpg,pics/table01.jpg,pics/stapler13.jpg,pics/pencil01.jpg,pics/football.jpg,pics/triangle.jpg,pics/hairdryer02a.jpg,blankImage,blankImage,blankImage,blankImage,blankImage,grape01,6,,,,,,,,,,,,,,,,,,,,,,,,,,,,,,,,,,,,,,,,,,,,,,,,,,,,,,,,,,,,,,,,,,,,,,,,,,,,,,,,,,,,,,,,,,,,,,,,,,,,
,,,,,5f44ee515cff5c02f09c17be,6682b41eeb79ab8215dff63d,6682b9a9f4182cad72f96761,29,Female,English,2024-07-01_15h15.09.753,ABmemTask3,2023.2.3,MacIntel,58.82352941,,,,,,,,,,,,,,,,,,,,,,,,,,,,,,,104.105,105.104,105.104,13,105.604,108.638,0.002,108.854,0.216,0.216,0.217,0.216,0.217,0.216,0.217,0.217,0.216,0.217,0.217,108.854,109.455,right,0.592,,109.455,109.704,right,0.233,,8,0,8,109.704,110.704,0,3,3,3,1,prac_AB,L5_T1P_T2P,5,1,1,7,12,6,3,15,Human skull,Did you see the Human skull,0.22,0,resources/,pics/peach01.jpg,pics/proboscismonkey.jpg,pics/hose.jpg,pics/laptop01a.jpg,pics/hammerheadshark.jpg,pics/nutcracker01.jpg,pics/humanskull.jpg,pics/table01.jpg,pics/icecube01.jpg,pics/boot02b.jpg,pics/calendar.jpg,pics/stapler03a.jpg,pics/ashtray01.jpg,pics/giraffe.jpg,pics/dromedary.jpg,blankImage,blankImage,humanskull,12,0.217,0.216,0.217,,,,,,,,,,,,,,,,,,,,,,,,,,,,,,,,,,,,,,,,,,,,,,,,,,,,,,,,,,,,,,,,,,,,,,,,,,,,,,,,,,,,,,,,,,,,,,,,,
,,,,,5f44ee515cff5c02f09c17be,6682b41eeb79ab8215dff63d,6682b9a9f4182cad72f96761,29,Female,English,2024-07-01_15h15.09.753,ABmemTask3,2023.2.3,MacIntel,58.82352941,,,,,,,,,,,,,,,,,,,,,,,,,,,,,,,110.705,111.704,111.704,12,112.204,114.205,0.002,114.404,0.199,0.199,0.201,0.2,0.2,0.2,0.2,0.2,0.2,0.2,,114.405,115.17,left,0.751,,115.17,115.439,right,0.261,,10,0,10,115.439,116.438,0,4,4,4,1,prac_AB,L1_T1A_T2P,1,0,1,7,8,6,3,11,dog,Did you see the dog,0.21,0,resources/,pics/ball02.jpg,pics/binder03b.jpg,pics/dromedary.jpg,pics/shipinabottle.jpg,pics/proboscismonkey.jpg,pics/laptop01a.jpg,pics/chainsaw.jpg,pics/stapler13.jpg,pics/nutcracker01.jpg,pics/carrot01.jpg,pics/calendar.jpg,blankImage,blankImage,blankImage,blankImage,blankImage,blankImage,saintbernard,7,,,,,,,,,,,,,,,,,,,,,,,,,,,,,,,,,,,,,,,,,,,,,,,,,,,,,,,,,,,,,,,,,,,,,,,,,,,,,,,,,,,,,,,,,,,,,,,,,,,,
,,,,,5f44ee515cff5c02f09c17be,6682b41eeb79ab8215dff63d,6682b9a9f4182cad72f96761,29,Female,English,2024-07-01_15h15.09.753,ABmemTask3,2023.2.3,MacIntel,58.82352941,,,,,,,,,,,,,,,,,,,,,,,,,,,,,,,116.438,117.438,117.438,12,117.938,120.738,0.001,120.938,0.199,0.2,0.2,0.201,0.199,0.201,0.199,0.2,0.2,0.199,0.201,120.938,121.438,right,0.482,,121.438,121.687,right,0.237,,12,0,12,121.687,122.688,0,5,5,5,1,prac_AB,L5_T1P_T2P,5,1,1,5,10,4,5,15,grater,Did you see the grater,0.2,0,resources/,pics/pencil01.jpg,pics/laptop01a.jpg,pics/hammerheadshark.jpg,pics/cork02.jpg,pics/grater01a.jpg,pics/shipinabottle.jpg,pics/binder03b.jpg,pics/dromedary.jpg,pics/pictureframe04.jpg,pics/stapler04b.jpg,pics/fanblades.jpg,pics/aquarium.jpg,pics/hairdryer02a.jpg,pics/lightswitch01.jpg,pics/piggybank.jpg,blankImage,blankImage,grater01a,11,0.2,0.2,0.2,,,,,,,,,,,,,,,,,,,,,,,,,,,,,,,,,,,,,,,,,,,,,,,,,,,,,,,,,,,,,,,,,,,,,,,,,,,,,,,,,,,,,,,,,,,,,,,,,
,,,,,5f44ee515cff5c02f09c17be,6682b41eeb79ab8215dff63d,6682b9a9f4182cad72f96761,29,Female,English,2024-07-01_15h15.09.753,ABmemTask3,2023.2.3,MacIntel,58.82352941,,,,,,,,,,,,,,,,,,,,,,,,,,,,,,,122.689,123.688,123.688,11,124.188,125.655,0.002,125.838,0.181,0.184,0.184,0.183,0.183,0.184,0.183,0.183,,,,125.838,126.788,left,0.93,,126.788,127.071,left,0.272,,12,0,14,127.071,128.072,0,6,6,6,1,prac_AB,L1_T1P_T2A,1,1,0,4,5,3,4,9,chalk,Did you see the chalk,0.19,0,resources/,pics/necklace.jpg,pics/starfish01.jpg,pics/safetypin.jpg,pics/chalk.jpg,pics/candleholder01.jpg,pics/bowtie.jpg,pics/match.jpg,pics/candle01.jpg,pics/pencilsharpener02a.jpg,blankImage,blankImage,blankImage,blankImage,blankImage,blankImage,blankImage,blankImage,chalk,9,,,,,,,,,,,,,,,,,,,,,,,,,,,,,,,,,,,,,,,,,,,,,,,,,,,,,,,,,,,,,,,,,,,,,,,,,,,,,,,,,,,,,,,,,,,,,,,,,,,,
,,,,,5f44ee515cff5c02f09c17be,6682b41eeb79ab8215dff63d,6682b9a9f4182cad72f96761,29,Female,English,2024-07-01_15h15.09.753,ABmemTask3,2023.2.3,MacIntel,58.82352941,,,,,,,,,,,,,,,,,,,,,,,,,,,,,,,128.072,129.072,129.072,11,129.571,131.222,0.001,131.405,0.183,0.182,0.184,0.183,0.183,0.184,0.184,0.183,0.183,,,131.405,131.972,right,0.548,,131.972,132.187,right,0.207,,14,0,16,132.187,133.188,0,7,7,7,1,prac_AB,L1_T1P_T2P,1,1,1,5,6,4,4,10,pants,Did you see the pants,0.18,0,resources/,pics/kangaroo.jpg,pics/safetypin.jpg,pics/salmon.jpg,pics/sandbarshark.jpg,pics/pants.jpg,pics/stapler03a.jpg,pics/sink.jpg,pics/calendar.jpg,pics/butterfly.jpg,pics/fanblades.jpg,blankImage,blankImage,blankImage,blankImage,blankImage,blankImage,blankImage,pants,2,,,,,,,,,,,,,,,,,,,,,,,,,,,,,,,,,,,,,,,,,,,,,,,,,,,,,,,,,,,,,,,,,,,,,,,,,,,,,,,,,,,,,,,,,,,,,,,,,,,,
,,,,,5f44ee515cff5c02f09c17be,6682b41eeb79ab8215dff63d,6682b9a9f4182cad72f96761,29,Female,English,2024-07-01_15h15.09.753,ABmemTask3,2023.2.3,MacIntel,58.82352941,,,,,,,,,,,,,,,,,,,,,,,,,,,,,,,133.189,134.188,134.188,10,134.688,137.022,0.002,137.188,0.165,0.167,0.167,0.166,0.167,0.167,0.166,0.167,0.167,0.167,0.166,137.189,137.989,left,0.78,,137.989,138.288,right,0.289,,16,0,18,138.288,139.289,0,8,8,8,1,prac_AB,L5_T1A_T2P,5,0,1,7,12,6,3,15,shirt,Did you see the shirt,0.17,0,resources/,pics/banjo.jpg,pics/chainsaw.jpg,pics/sailboat.jpg,pics/shipinabottle.jpg,pics/lightswitch01.jpg,pics/starfish01.jpg,pics/hen.jpg,pics/ball02.jpg,pics/bowlingpin.jpg,pics/hammerheadshark.jpg,pics/footballhelmet.jpg,pics/stapler10.jpg,pics/laptop01a.jpg,pics/cannon.jpg,pics/golfball.jpg,blankImage,blankImage,shirt02,13,0.167,0.166,0.167,,,,,,,,,,,,,,,,,,,,,,,,,,,,,,,,,,,,,,,,,,,,,,,,,,,,,,,,,,,,,,,,,,,,,,,,,,,,,,,,,,,,,,,,,,,,,,,,,
,,,,,5f44ee515cff5c02f09c17be,6682b41eeb79ab8215dff63d,6682b9a9f4182cad72f96761,29,Female,English,2024-07-01_15h15.09.753,ABmemTask3,2023.2.3,MacIntel,58.82352941,,,,,,,,,,,,,,,,,,,,,,,,,,,,,,,139.289,140.288,140.289,9,140.789,142.289,0.001,142.439,0.149,0.15,0.15,0.15,0.15,0.15,0.15,0.15,0.15,0.15,,142.439,143.088,right,0.629,,143.088,143.338,right,0.234,,18,0,20,143.338,144.339,0,9,9,9,1,prac_AB,L1_T1P_T2P,1,1,1,7,8,6,3,11,tongs,Did you see the tongs,0.16,0,resources/,pics/sewingmachine01a.jpg,pics/shovel01.jpg,pics/football.jpg,pics/hen.jpg,pics/banjo.jpg,pics/zebra.jpg,pics/tongs01b.jpg,pics/stapler11.jpg,pics/shipinabottle.jpg,pics/match.jpg,pics/candle01.jpg,blankImage,blankImage,blankImage,blankImage,blankImage,blankImage,tongs01b,5,,,,,,,,,,,,,,,,,,,,,,,,,,,,,,,,,,,,,,,,,,,,,,,,,,,,,,,,,,,,,,,,,,,,,,,,,,,,,,,,,,,,,,,,,,,,,,,,,,,,
,,,,,5f44ee515cff5c02f09c17be,6682b41eeb79ab8215dff63d,6682b9a9f4182cad72f96761,29,Female,English,2024-07-01_15h15.09.753,ABmemTask3,2023.2.3,MacIntel,58.82352941,,,,,,,,,,,,,,,,,,,,,,,,,,,,,,,144.339,145.339,145.339,9,145.839,147.489,0.001,147.639,0.149,0.15,0.15,0.15,0.15,0.15,0.15,0.149,0.151,0.15,0.15,147.639,148.24,left,0.589,,148.24,148.505,left,0.251,,20,0,22,148.505,149.505,0,10,10,10,1,prac_AB,L1_T1A_T2A,1,0,0,7,8,6,4,12,camera,Did you see the camera,0.15,0,resources/,pics/lightswitch01.jpg,pics/table01.jpg,pics/aquarium.jpg,pics/boot02b.jpg,pics/butterfly.jpg,pics/chainsaw.jpg,pics/binoculars01b.jpg,pics/giraffe.jpg,pics/triangle.jpg,pics/microscope.jpg,pics/mummy.jpg,pics/icecube01.jpg,blankImage,blankImage,blankImage,blankImage,blankImage,camera01a,10,,,,,,,,,,,,,,,,,,,,,,,,,,,,,,,,,,,,,,,,,,,,,,,,,,,,,,,,,,,,,,,,,,,,,,,,,,,,,,,,,,,,,,,,,,,,,,,,,,,,
,,,,,5f44ee515cff5c02f09c17be,6682b41eeb79ab8215dff63d,6682b9a9f4182cad72f96761,29,Female,English,2024-07-01_15h15.09.753,ABmemTask3,2023.2.3,MacIntel,58.82352941,,,,,,,,,,,,,,,,,,,,,,,,,,,,,,,149.506,150.505,150.506,8,151.005,152.206,0.002,152.339,0.132,0.134,0.133,0.133,0.134,0.132,0.134,0.134,0.133,,,152.339,152.805,right,0.447,,152.805,153.055,right,0.234,,22,0,24,153.055,154.056,0,11,11,11,1,prac_AB,L1_T1P_T2P,1,1,1,6,7,5,3,10,shorts,Did you see the shorts,0.14,0,resources/,pics/snowshoe.jpg,pics/chainsaw.jpg,pics/sailboat.jpg,pics/ball02.jpg,pics/candleholder01.jpg,pics/shorts01.jpg,pics/stapler07.jpg,pics/peach01.jpg,pics/proboscismonkey.jpg,pics/hen.jpg,blankImage,blankImage,blankImage,blankImage,blankImage,blankImage,blankImage,shorts01,4,,,,,,,,,,,,,,,,,,,,,,,,,,,,,,,,,,,,,,,,,,,,,,,,,,,,,,,,,,,,,,,,,,,,,,,,,,,,,,,,,,,,,,,,,,,,,,,,,,,,
,,,,,5f44ee515cff5c02f09c17be,6682b41eeb79ab8215dff63d,6682b9a9f4182cad72f96761,29,Female,English,2024-07-01_15h15.09.753,ABmemTask3,2023.2.3,MacIntel,58.82352941,,,,,,,,,,,,,,,,,,,,,,,,,,,,,,,154.056,155.055,155.055,8,155.556,157.156,0.001,157.289,0.132,0.134,0.133,0.134,0.133,0.133,0.133,0.134,0.133,0.133,0.134,157.289,158.089,left,0.785,,158.089,158.422,right,0.318,,18,0,26,158.422,159.422,0,12,12,12,1,prac_AB,L5_T1P_T2A,5,1,0,5,10,4,3,13,fish,Did you see the fish,0.13,0,resources/,pics/football.jpg,pics/safetypin.jpg,pics/shovel01.jpg,pics/sink.jpg,pics/holdfast.jpg,pics/nutcracker01.jpg,pics/starfish01.jpg,pics/onion.jpg,pics/footballhelmet.jpg,pics/boot02b.jpg,pics/sewingmachine01a.jpg,pics/kangaroo.jpg,pics/banjo.jpg,blankImage,blankImage,blankImage,blankImage,holdfast,14,0.133,,,,,,,,,,,,,,,,,,,,,,,,,,,,,,,,,,,,,,,,,,,,,,,,,,,,,,,,,,,,,,,,,,,,,,,,,,,,,,,,,,,,,,,,,,,,,,,,,,,
,,,,,5f44ee515cff5c02f09c17be,6682b41eeb79ab8215dff63d,6682b9a9f4182cad72f96761,29,Female,English,2024-07-01_15h15.09.753,ABmemTask3,2023.2.3,MacIntel,58.82352941,,,,,,,,,,,,,,,,,,,,,,,,,,,,,,,159.423,160.422,160.423,7,160.922,161.973,0.002,162.089,0.116,0.116,0.117,0.117,0.116,0.117,0.117,0.116,0.117,,,162.089,162.789,right,0.684,,162.789,163.039,right,0.235,,20,0,28,163.039,164.039,0,13,13,13,1,prac_AB,L1_T1P_T2P,1,1,1,5,6,4,4,10,fish,Did you see the fish,0.12,0,resources/,pics/butterfly.jpg,pics/banjo.jpg,pics/leaf02a.jpg,pics/dustpan.jpg,pics/sturgeon.jpg,pics/stapler02.jpg,pics/necklace.jpg,pics/shovel01.jpg,pics/starfish01.jpg,pics/chainsaw.jpg,blankImage,blankImage,blankImage,blankImage,blankImage,blankImage,blankImage,sturgeon,3,,,,,,,,,,,,,,,,,,,,,,,,,,,,,,,,,,,,,,,,,,,,,,,,,,,,,,,,,,,,,,,,,,,,,,,,,,,,,,,,,,,,,,,,,,,,,,,,,,,,
,,,,,5f44ee515cff5c02f09c17be,6682b41eeb79ab8215dff63d,6682b9a9f4182cad72f96761,29,Female,English,2024-07-01_15h15.09.753,ABmemTask3,2023.2.3,MacIntel,58.82352941,,,,,,,,,,,,,,,,,,,,,,,,,,,,,,,,,,,,,,,,,,,,,,,,,,,,,,,,,,,,,,,,,,,,,,,,,,,,,,,,,,,,,,,,,,,,,,,,,,,,,,,,,,,164.04,167.324,space,3.261,,,,,,,,,,,,,,,,,,,,,,,,,,,,,,,,,,,,,,,,,,,,,,,,,,,,,,,,,,,,,,,,,,,,,,,,,,,,,,,,,,,,,,,,,,,,,
,,,,,5f44ee515cff5c02f09c17be,6682b41eeb79ab8215dff63d,6682b9a9f4182cad72f96761,29,Female,English,2024-07-01_15h15.09.753,ABmemTask3,2023.2.3,MacIntel,58.82352941,,,,,,,,,,,,,,,,,,,,,,,,,,,,,,,,,,,,,,,,,,,,,,,,,,,,,,,,,,,,,,,,,,,,,,,,,,,,,,,,,,,,,,,,,,,,,,,,,,,,,,,,,,,167.327,167.329,,,,,,,,,,,,,,,,,,,,,,,,,,,,,,,,,,,,,,,,,,,,,,,,,,,,,,,,,,,,,,,,,,,,,,,,,,,,,,,,,,,,,,,,,,,,,,,
,,,,,5f44ee515cff5c02f09c17be,6682b41eeb79ab8215dff63d,6682b9a9f4182cad72f96761,29,Female,English,2024-07-01_15h15.09.753,ABmemTask3,2023.2.3,MacIntel,58.82352941,,,,,,,,,,,,,,,,,,,,,,,,,,,,,,,,,,,,,,,,,,,,,,,,,,,,,,,,,,,,,,,,,,,,,,,,,,,,,,,,,,,,,,,,,,,,,,,,,,,,,,,,,,,167.331,167.331,,,,,,,,,,,,,,,,,,,,,,,,,,,,,,,,,,,,,,,,,,,,,,,,,,,,,,,,,,,,,,,,,,,,,,,,,,,,,,,,,,,,,,,,,,,,,,,
,,,,,5f44ee515cff5c02f09c17be,6682b41eeb79ab8215dff63d,6682b9a9f4182cad72f96761,29,Female,English,2024-07-01_15h15.09.753,ABmemTask3,2023.2.3,MacIntel,58.82352941,,,,,,,,,,,,,,,,,,,,,,,,,,,,,,,,,,,,,,,,,,,,,,,,,,,,,,,,,,,,,,,,,,,,,,,,,,,,,,,,,,,,,,,,,,,,,,,,,,,,,,,,,,,167.331,167.332,,,,,,,,,,,,,,,,,,,,,,,,,,,,,,,,,,,,,,,,,,,,,,,,,,,,,,,,,,,,,,,,,,,,,,,,,,,,,,,,,,,,,,,,,,,,,,,
,,,,,5f44ee515cff5c02f09c17be,6682b41eeb79ab8215dff63d,6682b9a9f4182cad72f96761,29,Female,English,2024-07-01_15h15.09.753,ABmemTask3,2023.2.3,MacIntel,58.82352941,,,,,,,,,,,,,,,,,,,,,,,,,,,,,,,,,,,,,,,,,,,,,,,,,,,,,,,,,,,,,,,,,,,,,,,,,,,,,,,,,,,,,,,,,,,,,,,,,,,,,,,,,,,167.332,167.332,,,,,,,,,,,,,,,,,,,,,,,,,,,,,,,,,,,,,,,,,,,,,,,,,,,,,,,,,,,,,,,,,,,,,,,,,,,,,,,,,,,,,,,,,,,,,,,
,,,,,5f44ee515cff5c02f09c17be,6682b41eeb79ab8215dff63d,6682b9a9f4182cad72f96761,29,Female,English,2024-07-01_15h15.09.753,ABmemTask3,2023.2.3,MacIntel,58.82352941,,,,,,,,,,,,,,,,,,,,,,,,,,,,,,,,,,,,,,,,,,,,,,,,,,,,,,,,,,,,,,,,,,,,,,,,,,,,,,,,,,,,,,,,,,,,,,,,,,,,,,,,,,,167.333,167.333,,,,,,,,,,,,,,,,,,,,,,,,,,,,,,,,,,,,,,,,,,,,,,,,,,,,,,,,,,,,,,,,,,,,,,,,,,,,,,,,,,,,,,,,,,,,,,,
,,,,,5f44ee515cff5c02f09c17be,6682b41eeb79ab8215dff63d,6682b9a9f4182cad72f96761,29,Female,English,2024-07-01_15h15.09.753,ABmemTask3,2023.2.3,MacIntel,58.82352941,,,,,,,,,,,,,,,,,,,,,,,,,,,,,,,,,,,,,,,,,,,,,,,,,,,,,,,,,,,,,,,,,,,,,,,,,,,,,,,,,,,,,,,,,,,,,,,,,,,,,,,,,,,167.333,167.334,,,,,,,,,,,,,,,,,,,,,,,,,,,,,,,,,,,,,,,,,,,,,,,,,,,,,,,,,,,,,,,,,,,,,,,,,,,,,,,,,,,,,,,,,,,,,,,
,,,,,5f44ee515cff5c02f09c17be,6682b41eeb79ab8215dff63d,6682b9a9f4182cad72f96761,29,Female,English,2024-07-01_15h15.09.753,ABmemTask3,2023.2.3,MacIntel,58.82352941,,,,,,,,,,,,,,,,,,,,,,,,,,,,,,,,,,,,,,,,,,,,,,,,,,,,,,,,,,,,,,,,,,,,,,,,,,,,,,,,,,,,,,,,,,,,,,,,,,,,,,,,,,,167.334,167.334,,,,,,,,,,,,,,,,,,,,,,,,,,,,,,,,,,,,,,,,,,,,,,,,,,,,,,,,,,,,,,,,,,,,,,,,,,,,,,,,,,,,,,,,,,,,,,,
,,,,,5f44ee515cff5c02f09c17be,6682b41eeb79ab8215dff63d,6682b9a9f4182cad72f96761,29,Female,English,2024-07-01_15h15.09.753,ABmemTask3,2023.2.3,MacIntel,58.82352941,,,,,,,,,,,,,,,,,,,,,,,,,,,,,,,,,,,,,,,,,,,,,,,,,,,,,,,,,,,,,,,,,,,,,,,,,,,,,,,,,,,,,,,,,,,,,,,,,,,,,,,,,,,167.335,167.335,,,,,,,,,,,,,,,,,,,,,,,,,,,,,,,,,,,,,,,,,,,,,,,,,,,,,,,,,,,,,,,,,,,,,,,,,,,,,,,,,,,,,,,,,,,,,,,
,,,,,5f44ee515cff5c02f09c17be,6682b41eeb79ab8215dff63d,6682b9a9f4182cad72f96761,29,Female,English,2024-07-01_15h15.09.753,ABmemTask3,2023.2.3,MacIntel,58.82352941,,,,,,,,,,,,,,,,,,,,,,,,,,,,,,,,,,,,,,,,,,,,,,,,,,,,,,,,,,,,,,,,,,,,,,,,,,,,,,,,,,,,,,,,,,,,,,,,,,,,,,,,,,,167.336,167.336,,,,,,,,,,,,,,,,,,,,,,,,,,,,,,,,,,,,,,,,,,,,,,,,,,,,,,,,,,,,,,,,,,,,,,,,,,,,,,,,,,,,,,,,,,,,,,,
,,,,,5f44ee515cff5c02f09c17be,6682b41eeb79ab8215dff63d,6682b9a9f4182cad72f96761,29,Female,English,2024-07-01_15h15.09.753,ABmemTask3,2023.2.3,MacIntel,58.82352941,,,,,,,,,,,,,,,,,,,,,,,,,,,,,,,,,,,,,,,,,,,,,,,,,,,,,,,,,,,,,,,,,,,,,,,,,,,,,,,,,,,,,,,,,,,,,,,,,,,,,,,,,,,167.336,167.336,,,,,,,,,,,,,,,,,,,,,,,,,,,,,,,,,,,,,,,,,,,,,,,,,,,,,,,,,,,,,,,,,,,,,,,,,,,,,,,,,,,,,,,,,,,,,,,
,,,,,5f44ee515cff5c02f09c17be,6682b41eeb79ab8215dff63d,6682b9a9f4182cad72f96761,29,Female,English,2024-07-01_15h15.09.753,ABmemTask3,2023.2.3,MacIntel,58.82352941,,,,,,,,,,,,,,,,,,,,,,,,,,,,,,,,,,,,,,,,,,,,,,,,,,,,,,,,,,,,,,,,,,,,,,,,,,,,,,,,,,,,,,,,,,,,,,,,,,,,,,,,,,,167.337,167.337,,,,,,,,,,,,,,,,,,,,,,,,,,,,,,,,,,,,,,,,,,,,,,,,,,,,,,,,,,,,,,,,,,,,,,,,,,,,,,,,,,,,,,,,,,,,,,,
,,,,,5f44ee515cff5c02f09c17be,6682b41eeb79ab8215dff63d,6682b9a9f4182cad72f96761,29,Female,English,2024-07-01_15h15.09.753,ABmemTask3,2023.2.3,MacIntel,58.82352941,,,,,,,,,,,,,,,,,,,,,,,,,,,,,,,,,,,,,,,,,,,,,,,,,,,,,,,,,,,,,,,,,,,,,,,,,,,,,,,,,,,,,,,,,,,,,,,,,,,,,,,,,,,167.337,167.337,,,,,,,,,,,,,,,,,,,,,,,,,,,,,,,,,,,,,,,,,,,,,,,,,,,,,,,,,,,,,,,,,,,,,,,,,,,,,,,,,,,,,,,,,,,,,,,
,,,,,5f44ee515cff5c02f09c17be,6682b41eeb79ab8215dff63d,6682b9a9f4182cad72f96761,29,Female,English,2024-07-01_15h15.09.753,ABmemTask3,2023.2.3,MacIntel,58.82352941,,,,,,,,,,,,,,,,,,,,,,,,,,,,,,,,,,,,,,,,,,,,,,,,,,,,,,,,,,,,,,,,,,,,,,,,,,,,,,,,,,,,,,,,,,,,,,,,,,,,,,,,,,,167.338,167.338,,,,,,,,,,,,,,,,,,,,,,,,,,,,,,,,,,,,,,,,,,,,,,,,,,,,,,,,,,,,,,,,,,,,,,,,,,,,,,,,,,,,,,,,,,,,,,,
,,,,,5f44ee515cff5c02f09c17be,6682b41eeb79ab8215dff63d,6682b9a9f4182cad72f96761,29,Female,English,2024-07-01_15h15.09.753,ABmemTask3,2023.2.3,MacIntel,58.82352941,,,,,,,,,,,,,,,,,,,,,,,,,,,,,,,,,,,,,,,,,,,,,,,,,,,,,,,,,,,,,,,,,,,,,,,,,,,,,,,,,,,,,,,,,,,,,,,,,,,,,,,,,,,167.338,167.338,,,,,,,,,,,,,,,,,,,,,,,,,,,,,,,,,,,,,,,,,,,,,,,,,,,,,,,,,,,,,,,,,,,,,,,,,,,,,,,,,,,,,,,,,,,,,,,
,,,,,5f44ee515cff5c02f09c17be,6682b41eeb79ab8215dff63d,6682b9a9f4182cad72f96761,29,Female,English,2024-07-01_15h15.09.753,ABmemTask3,2023.2.3,MacIntel,58.82352941,,,,,,,,,,,,,,,,,,,,,,,,,,,,,,,,,,,,,,,,,,,,,,,,,,,,,,,,,,,,,,,,,,,,,,,,,,,,,,,,,,,,,,,,,,,,,,,,,,,,,,,,,,,167.339,167.339,,,,,,,,,,,,,,,,,,,,,,,,,,,,,,,,,,,,,,,,,,,,,,,,,,,,,,,,,,,,,,,,,,,,,,,,,,,,,,,,,,,,,,,,,,,,,,,
,,,,,5f44ee515cff5c02f09c17be,6682b41eeb79ab8215dff63d,6682b9a9f4182cad72f96761,29,Female,English,2024-07-01_15h15.09.753,ABmemTask3,2023.2.3,MacIntel,58.82352941,,,,,,,,,,,,,,,,,,,,,,,,,,,,,,,,,,,,,,,,,,,,,,,,,,,,,,,,,,,,,,,,,,,,,,,,,,,,,,,,,,,,,,,,,,,,,,,,,,,,,,,,,,,167.339,167.339,,,,,,,,,,,,,,,,,,,,,,,,,,,,,,,,,,,,,,,,,,,,,,,,,,,,,,,,,,,,,,,,,,,,,,,,,,,,,,,,,,,,,,,,,,,,,,,
,,,,,5f44ee515cff5c02f09c17be,6682b41eeb79ab8215dff63d,6682b9a9f4182cad72f96761,29,Female,English,2024-07-01_15h15.09.753,ABmemTask3,2023.2.3,MacIntel,58.82352941,,,,,,,,,,,,,,,,,,,,,,,,,,,,,,,,,,,,,,,,,,,,,,,,,,,,,,,,,,,,,,,,,,,,,,,,,,,,,,,,,,,,,,,,,,,,,,,,,,,,,,,,,,,167.34,167.34,,,,,,,,,,,,,,,,,,,,,,,,,,,,,,,,,,,,,,,,,,,,,,,,,,,,,,,,,,,,,,,,,,,,,,,,,,,,,,,,,,,,,,,,,,,,,,,
,,,,,5f44ee515cff5c02f09c17be,6682b41eeb79ab8215dff63d,6682b9a9f4182cad72f96761,29,Female,English,2024-07-01_15h15.09.753,ABmemTask3,2023.2.3,MacIntel,58.82352941,,,,,,,,,,,,,,,,,,,,,,,,,,,,,,,,,,,,,,,,,,,,,,,,,,,,,,,,,,,,,,,,,,,,,,,,,,,,,,,,,,,,,,,,,,,,,,,,,,,,,,,,,,,167.34,167.34,,,,,,,,,,,,,,,,,,,,,,,,,,,,,,,,,,,,,,,,,,,,,,,,,,,,,,,,,,,,,,,,,,,,,,,,,,,,,,,,,,,,,,,,,,,,,,,
,,,,,5f44ee515cff5c02f09c17be,6682b41eeb79ab8215dff63d,6682b9a9f4182cad72f96761,29,Female,English,2024-07-01_15h15.09.753,ABmemTask3,2023.2.3,MacIntel,58.82352941,,,,,,,,,,,,,,,,,,,,,,,,,,,,,,,,,,,,,,,,,,,,,,,,,,,,,,,,,,,,,,,,,,,,,,,,,,,,,,,,,,,,,,,,,,,,,,,,,,,,,,,,,,,167.341,167.341,,,,,,,,,,,,,,,,,,,,,,,,,,,,,,,,,,,,,,,,,,,,,,,,,,,,,,,,,,,,,,,,,,,,,,,,,,,,,,,,,,,,,,,,,,,,,,,
,,,,,5f44ee515cff5c02f09c17be,6682b41eeb79ab8215dff63d,6682b9a9f4182cad72f96761,29,Female,English,2024-07-01_15h15.09.753,ABmemTask3,2023.2.3,MacIntel,58.82352941,,,,,,,,,,,,,,,,,,,,,,,,,,,,,,,,,,,,,,,,,,,,,,,,,,,,,,,,,,,,,,,,,,,,,,,,,,,,,,,,,,,,,,,,,,,,,,,,,,,,,,,,,,,167.342,167.342,,,,,,,,,,,,,,,,,,,,,,,,,,,,,,,,,,,,,,,,,,,,,,,,,,,,,,,,,,,,,,,,,,,,,,,,,,,,,,,,,,,,,,,,,,,,,,,
,,,,,5f44ee515cff5c02f09c17be,6682b41eeb79ab8215dff63d,6682b9a9f4182cad72f96761,29,Female,English,2024-07-01_15h15.09.753,ABmemTask3,2023.2.3,MacIntel,58.82352941,,,,,,,,,,,,,,,,,,,,,,,,,,,,,,,,,,,,,,,,,,,,,,,,,,,,,,,,,,,,,,,,,,,,,,,,,,,,,,,,,,,,,,,,,,,,,,,,,,,,,,,,,,,167.342,167.342,,,,,,,,,,,,,,,,,,,,,,,,,,,,,,,,,,,,,,,,,,,,,,,,,,,,,,,,,,,,,,,,,,,,,,,,,,,,,,,,,,,,,,,,,,,,,,,
,,,,,5f44ee515cff5c02f09c17be,6682b41eeb79ab8215dff63d,6682b9a9f4182cad72f96761,29,Female,English,2024-07-01_15h15.09.753,ABmemTask3,2023.2.3,MacIntel,58.82352941,,,,,,,,,,,,,,,,,,,,,,,,,,,,,,,,,,,,,,,,,,,,,,,,,,,,,,,,,,,,,,,,,,,,,,,,,,,,,,,,,,,,,,,,,,,,,,,,,,,,,,,,,,,,,,,,167.344,181.473,space,14.101,,,,,,,,,,,,,,,,,,,,,,,,,,,,,,,,,,,,,,,,,,,,,,,,,,,,,,,,,,,,,,,,,,,,,,,,,,,,,,,,,,,,,,,,
,,,,,5f44ee515cff5c02f09c17be,6682b41eeb79ab8215dff63d,6682b9a9f4182cad72f96761,29,Female,English,2024-07-01_15h15.09.753,ABmemTask3,2023.2.3,MacIntel,58.82352941,,,,,,,,,,,,,,,,,,,,,,,,,,,,,,,,,181.479,588,181.973,,,,,,,,,,,,,,,,,,,,,,,,,,0,,,,,,,,,prac_MEM,new,,,,,,,,,,,10,,,,,,,,,,,,,,,,,,,,,,,,,,,,,,,,,,,181.974,184.474,-9,6,2.475,,184.474,185.473,0,0,0,9,1,999,999,pics/moth.jpg,,,,,,,,,,,,,,,,,,,,,,,,,,,,,,,,,,,,,,,,,,,,,,,,,,,,,,,,,,,,,,,,,,,,,,,
,,,,,5f44ee515cff5c02f09c17be,6682b41eeb79ab8215dff63d,6682b9a9f4182cad72f96761,29,Female,English,2024-07-01_15h15.09.753,ABmemTask3,2023.2.3,MacIntel,58.82352941,,,,,,,,,,,,,,,,,,,,,,,,,,,,,,,,,185.474,588,185.973,,,,,,,,,,,,,,,,,,,,,,,,,,0,,,,,,,,,prac_MEM,old,,,,,,,,,,,10,,,,,,,,,,,,,,,,,,,,,,,,,,,,,,,,,,,185.973,188.357,-6,6,2.364,,188.357,189.357,0,1,1,0,1,1,1,pics/tree.jpg,,,,,,,,,,,,,,,,,,,,,,,,,,,,,,,,,,,,,,,,,,,,,,,,,,,,,,,,,,,,,,,,,,,,,,,
,,,,,5f44ee515cff5c02f09c17be,6682b41eeb79ab8215dff63d,6682b9a9f4182cad72f96761,29,Female,English,2024-07-01_15h15.09.753,ABmemTask3,2023.2.3,MacIntel,58.82352941,,,,,,,,,,,,,,,,,,,,,,,,,,,,,,,,,189.358,588,189.857,,,,,,,,,,,,,,,,,,,,,,,,,,0,,,,,,,,,prac_MEM,new,,,,,,,,,,,10,,,,,,,,,,,,,,,,,,,,,,,,,,,,,,,,,,,189.857,192.056,-4,2,2.186,,192.057,193.057,0,2,2,8,1,999,999,pics/thread02.jpg,,,,,,,,,,,,,,,,,,,,,,,,,,,,,,,,,,,,,,,,,,,,,,,,,,,,,,,,,,,,,,,,,,,,,,,
,,,,,5f44ee515cff5c02f09c17be,6682b41eeb79ab8215dff63d,6682b9a9f4182cad72f96761,29,Female,English,2024-07-01_15h15.09.753,ABmemTask3,2023.2.3,MacIntel,58.82352941,,,,,,,,,,,,,,,,,,,,,,,,,,,,,,,,,193.057,588,193.557,,,,,,,,,,,,,,,,,,,,,,,,,,0,,,,,,,,,prac_MEM,old,,,,,,,,,,,10,,,,,,,,,,,,,,,,,,,,,,,,,,,,,,,,,,,193.557,194.956,-1,6,1.382,,194.956,195.957,0,3,3,2,1,3,1,pics/sturgeon.jpg,,,,,,,,,,,,,,,,,,,,,,,,,,,,,,,,,,,,,,,,,,,,,,,,,,,,,,,,,,,,,,,,,,,,,,,
,,,,,5f44ee515cff5c02f09c17be,6682b41eeb79ab8215dff63d,6682b9a9f4182cad72f96761,29,Female,English,2024-07-01_15h15.09.753,ABmemTask3,2023.2.3,MacIntel,58.82352941,,,,,,,,,,,,,,,,,,,,,,,,,,,,,,,,,195.958,588,196.457,,,,,,,,,,,,,,,,,,,,,,,,,,0,,,,,,,,,prac_MEM,old,,,,,,,,,,,10,,,,,,,,,,,,,,,,,,,,,,,,,,,,,,,,,,,196.457,197.323,2,6,0.85,,197.323,198.324,0,4,4,3,1,4,1,pics/shorts01.jpg,,,,,,,,,,,,,,,,,,,,,,,,,,,,,,,,,,,,,,,,,,,,,,,,,,,,,,,,,,,,,,,,,,,,,,,
,,,,,5f44ee515cff5c02f09c17be,6682b41eeb79ab8215dff63d,6682b9a9f4182cad72f96761,29,Female,English,2024-07-01_15h15.09.753,ABmemTask3,2023.2.3,MacIntel,58.82352941,,,,,,,,,,,,,,,,,,,,,,,,,,,,,,,,,198.324,588,198.823,,,,,,,,,,,,,,,,,,,,,,,,,,0,,,,,,,,,prac_MEM,new,,,,,,,,,,,10,,,,,,,,,,,,,,,,,,,,,,,,,,,,,,,,,,,198.824,200.373,4,2,1.53,,200.373,201.373,0,5,5,7,1,999,999,pics/cherry01.jpg,,,,,,,,,,,,,,,,,,,,,,,,,,,,,,,,,,,,,,,,,,,,,,,,,,,,,,,,,,,,,,,,,,,,,,,
,,,,,5f44ee515cff5c02f09c17be,6682b41eeb79ab8215dff63d,6682b9a9f4182cad72f96761,29,Female,English,2024-07-01_15h15.09.753,ABmemTask3,2023.2.3,MacIntel,58.82352941,,,,,,,,,,,,,,,,,,,,,,,,,,,,,,,,,201.373,588,201.874,,,,,,,,,,,,,,,,,,,,,,,,,,0,,,,,,,,,prac_MEM,old,,,,,,,,,,,10,,,,,,,,,,,,,,,,,,,,,,,,,,,,,,,,,,,201.874,202.723,7,6,0.832,,202.723,203.724,0,6,6,5,1,11,5,pics/grater01a.jpg,,,,,,,,,,,,,,,,,,,,,,,,,,,,,,,,,,,,,,,,,,,,,,,,,,,,,,,,,,,,,,,,,,,,,,,
,,,,,5f44ee515cff5c02f09c17be,6682b41eeb79ab8215dff63d,6682b9a9f4182cad72f96761,29,Female,English,2024-07-01_15h15.09.753,ABmemTask3,2023.2.3,MacIntel,58.82352941,,,,,,,,,,,,,,,,,,,,,,,,,,,,,,,,,203.725,588,204.224,,,,,,,,,,,,,,,,,,,,,,,,,,0,,,,,,,,,prac_MEM,new,,,,,,,,,,,10,,,,,,,,,,,,,,,,,,,,,,,,,,,,,,,,,,,204.224,205.857,8,3,1.622,,205.857,206.857,0,7,7,10,1,999,999,pics/tomato01.jpg,,,,,,,,,,,,,,,,,,,,,,,,,,,,,,,,,,,,,,,,,,,,,,,,,,,,,,,,,,,,,,,,,,,,,,,
,,,,,5f44ee515cff5c02f09c17be,6682b41eeb79ab8215dff63d,6682b9a9f4182cad72f96761,29,Female,English,2024-07-01_15h15.09.753,ABmemTask3,2023.2.3,MacIntel,58.82352941,,,,,,,,,,,,,,,,,,,,,,,,,,,,,,,,,206.858,588,207.357,,,,,,,,,,,,,,,,,,,,,,,,,,0,,,,,,,,,prac_MEM,old,,,,,,,,,,,10,,,,,,,,,,,,,,,,,,,,,,,,,,,,,,,,,,,207.357,209.724,10,5,2.35,,209.724,210.724,0,8,8,4,1,5,1,pics/tongs01b.jpg,,,,,,,,,,,,,,,,,,,,,,,,,,,,,,,,,,,,,,,,,,,,,,,,,,,,,,,,,,,,,,,,,,,,,,,
,,,,,5f44ee515cff5c02f09c17be,6682b41eeb79ab8215dff63d,6682b9a9f4182cad72f96761,29,Female,English,2024-07-01_15h15.09.753,ABmemTask3,2023.2.3,MacIntel,58.82352941,,,,,,,,,,,,,,,,,,,,,,,,,,,,,,,,,210.725,588,211.224,,,,,,,,,,,,,,,,,,,,,,,,,,0,,,,,,,,,prac_MEM,old,,,,,,,,,,,10,,,,,,,,,,,,,,,,,,,,,,,,,,,,,,,,,,,211.224,212.074,13,6,0.832,,212.074,213.074,0,9,9,1,1,2,1,pics/pants.jpg,,,,,,,,,,,,,,,,,,,,,,,,,,,,,,,,,,,,,,,,,,,,,,,,,,,,,,,,,,,,,,,,,,,,,,,
,,,,,5f44ee515cff5c02f09c17be,6682b41eeb79ab8215dff63d,6682b9a9f4182cad72f96761,29,Female,English,2024-07-01_15h15.09.753,ABmemTask3,2023.2.3,MacIntel,58.82352941,,,,,,,,,,,,,,,,,,,,,,,,,,,,,,,,,213.074,588,213.574,,,,,,,,,,,,,,,,,,,,,,,,,,0,,,,,,,,,prac_MEM,old,,,,,,,,,,,10,,,,,,,,,,,,,,,,,,,,,,,,,,,,,,,,,,,213.574,214.574,16,6,0.98,,214.574,215.574,0,10,10,6,1,12,5,pics/humanskull.jpg,,,,,,,,,,,,,,,,,,,,,,,,,,,,,,,,,,,,,,,,,,,,,,,,,,,,,,,,,,,,,,,,,,,,,,,
,,,,,5f44ee515cff5c02f09c17be,6682b41eeb79ab8215dff63d,6682b9a9f4182cad72f96761,29,Female,English,2024-07-01_15h15.09.753,ABmemTask3,2023.2.3,MacIntel,58.82352941,,,,,,,,,,,,,,,,,,,,,,,,,,,,,,,,,,,,,,,,,,,,,,,,,,,,,,,,,,,,,,,,,,,,,,,,,,,,,,,,,,,,,,,,,,,,,,,,,,,,,,,,,,,,,,,,,,,,,,,,,,,,,,,,,,,,,215.576,217.257,217.257,217.258,,,,,,,,,,,,,,,,,,,,,,,,,,,,,,,,,,,,,,,,,,,,,,,,,,,,,,,,,,,,,,,,,,,
,,,,,5f44ee515cff5c02f09c17be,6682b41eeb79ab8215dff63d,6682b9a9f4182cad72f96761,29,Female,English,2024-07-01_15h15.09.753,ABmemTask3,2023.2.3,MacIntel,58.82352941,,,,,,,,,,,,,,,,,,space,17.076,,,,,,,,,,,,,,,,,,,,,,,,,,,,,,,,,,,,,,,,,,,,,,,,,,,,,,,,,,,,,,,,,,,,,,,,,,,,,,,,,,,,,,,,,,,,,,,,,,,,,,,,,,,,,,,,,,,,,,217.258,234.359,,,,,,,,,,,,,,,,,,,,,,,,,,,,,,,,,,,,,,,,,,,,,,,,,,,,,,,,,,,,,,,,,
,,,,,5f44ee515cff5c02f09c17be,6682b41eeb79ab8215dff63d,6682b9a9f4182cad72f96761,29,Female,English,2024-07-01_15h15.09.753,ABmemTask3,2023.2.3,MacIntel,58.82352941,,,,,,,,,,,,,,,,,,,,,,,,,,,,,,,,,,,,,,,,,,,,,,,,,,,,,,,,,,,,,,,,,,,,,,,,,,,,,,,,,,,,,,,,,,,,,,,,,,,,,,,,,,,,,,,,,,,,,,,,,,,,,,,,,,,,,,,,,,,234.359,251.244,space,16.854,,,,,,,,,,,,,,,,,,,,,,,,,,,,,,,,,,,,,,,,,,,,,,,,,,,,,,,,,,,,,
,,,,,5f44ee515cff5c02f09c17be,6682b41eeb79ab8215dff63d,6682b9a9f4182cad72f96761,29,Female,English,2024-07-01_15h15.09.753,ABmemTask3,2023.2.3,MacIntel,58.82352941,,,,,,,,,,,,,,,,,,,,,,,,,,,,,,,251.247,252.242,252.242,7,252.742,254.492,0.002,254.608,0.116,0.116,0.116,0.117,0.117,0.116,0.117,0.117,0.116,0.117,0.117,254.608,255.109,right,0.479,,255.109,255.325,right,0.207,,2,0,2,255.325,256.326,,,,,,1_AB,L5_T1P_T2P,5,1,1,6,11,5,5,16,cruise ship,Did you see the cruise ship,0.12,0,resources/,pics/seaturtle.jpg,pics/ashtray01.jpg,pics/pencil01.jpg,pics/fanblades.jpg,pics/triangle.jpg,pics/cruiseship.jpg,pics/wheel01.jpg,pics/dustpan.jpg,pics/starfish01.jpg,pics/banjo.jpg,pics/stapler12.jpg,pics/match.jpg,pics/cannon.jpg,pics/sandbarshark.jpg,pics/sink.jpg,pics/zebra.jpg,blankImage,cruiseship,51,0.117,0.116,0.117,,,,,,,,,,,,,,,,,,,,,,,,,,,,,,,,,,,,,,0.116,0,0,0,50,1,,,,,,,,,,,,,,,,,,,,,,,,,,,,,,,,,,,,,,,,,,,,,,,,,,,,,,
,,,,,5f44ee515cff5c02f09c17be,6682b41eeb79ab8215dff63d,6682b9a9f4182cad72f96761,29,Female,English,2024-07-01_15h15.09.753,ABmemTask3,2023.2.3,MacIntel,58.82352941,,,,,,,,,,,,,,,,,,,,,,,,,,,,,,,256.327,257.325,257.325,7,257.825,258.992,0.002,259.109,0.116,0.116,0.117,0.116,0.118,0.116,0.117,0.116,0.117,0.117,,259.109,259.925,left,0.803,,259.925,260.176,right,0.243,,-2,0,4,260.176,261.176,,,,,,1_AB,L1_T1P_T2A,1,1,0,6,7,5,4,11,lamp,Did you see the lamp,0.12,0,resources/,pics/chainsaw.jpg,pics/fanblades.jpg,pics/salmon.jpg,pics/proboscismonkey.jpg,pics/boot02b.jpg,pics/lamp04a.jpg,pics/blender.jpg,pics/sink.jpg,pics/pencil01.jpg,pics/floortile02.jpg,pics/shovel01.jpg,blankImage,blankImage,blankImage,blankImage,blankImage,blankImage,lamp04a,37,,,,,,,,,,,,,,,,,,,,,,,,,,,,,,,,,,,,,,,,,,0,1,1,36,1,,,,,,,,,,,,,,,,,,,,,,,,,,,,,,,,,,,,,,,,,,,,,,,,,,,,,,
,,,,,5f44ee515cff5c02f09c17be,6682b41eeb79ab8215dff63d,6682b9a9f4182cad72f96761,29,Female,English,2024-07-01_15h15.09.753,ABmemTask3,2023.2.3,MacIntel,58.82352941,,,,,,,,,,,,,,,,,,,,,,,,,,,,,,,261.176,262.175,262.176,7,262.675,263.726,0.002,263.842,0.116,0.116,0.117,0.117,0.116,0.117,0.117,0.117,0.116,,,263.842,264.476,right,0.614,,264.476,264.742,right,0.255,,0,0,6,264.742,265.742,,,,,,1_AB,L1_T1P_T2P,1,1,1,4,5,3,5,10,vacuum,Did you see the vacuum,0.12,0,resources/,pics/birdhouse.jpg,pics/floortile02.jpg,pics/toiletpaper01a.jpg,pics/vacuumcleaner01.jpg,pics/stapler02.jpg,pics/spoon01.jpg,pics/banjo.jpg,pics/binder03b.jpg,pics/leaf02a.jpg,pics/aquarium.jpg,blankImage,blankImage,blankImage,blankImage,blankImage,blankImage,blankImage,vacuumcleaner01,5,,,,,,,,,,,,,,,,,,,,,,,,,,,,,,,,,,,,,,,,,,0,2,2,4,1,,,,,,,,,,,,,,,,,,,,,,,,,,,,,,,,,,,,,,,,,,,,,,,,,,,,,,
,,,,,5f44ee515cff5c02f09c17be,6682b41eeb79ab8215dff63d,6682b9a9f4182cad72f96761,29,Female,English,2024-07-01_15h15.09.753,ABmemTask3,2023.2.3,MacIntel,58.82352941,,,,,,,,,,,,,,,,,,,,,,,,,,,,,,,265.743,266.742,266.742,7,267.243,268.643,0.001,268.759,0.115,0.117,0.117,0.117,0.116,0.117,0.116,0.117,0.117,0.117,0.116,268.759,269.742,left,0.964,,269.742,270.242,right,0.487,,2,0,8,270.242,271.243,,,,,,1_AB,L1_T1A_T2P,1,0,1,7,8,6,5,13,Basketball,Did you see the Basketball,0.12,0,resources/,pics/cork02.jpg,pics/table01.jpg,pics/christmaslights.jpg,pics/nutcracker01.jpg,pics/golfball.jpg,pics/hammerheadshark.jpg,pics/seaturtle.jpg,pics/stapler04b.jpg,pics/lock03a.jpg,pics/snowshoe.jpg,pics/sewingmachine01a.jpg,pics/peach01.jpg,pics/hose.jpg,blankImage,blankImage,blankImage,blankImage,basketball01,24,0.117,,,,,,,,,,,,,,,,,,,,,,,,,,,,,,,,,,,,,,,,,0,3,3,23,1,,,,,,,,,,,,,,,,,,,,,,,,,,,,,,,,,,,,,,,,,,,,,,,,,,,,,,
,,,,,5f44ee515cff5c02f09c17be,6682b41eeb79ab8215dff63d,6682b9a9f4182cad72f96761,29,Female,English,2024-07-01_15h15.09.753,ABmemTask3,2023.2.3,MacIntel,58.82352941,,,,,,,,,,,,,,,,,,,,,,,,,,,,,,,271.243,272.242,272.243,7,272.743,273.559,0.002,273.676,0.115,0.117,0.117,0.116,0.117,0.117,0.116,,,,,273.676,275.109,left,1.414,,275.109,275.459,right,0.34,,2,0,10,275.459,276.459,,,,,,1_AB,L1_T1P_T2P,1,1,1,4,5,3,3,8,Recycling bin,Did you see the Recycling bin,0.12,0,resources/,pics/microscope.jpg,pics/dustpan.jpg,pics/seagull.jpg,pics/recyclingbin.jpg,pics/stapler06.jpg,pics/bowtie.jpg,pics/dromedary.jpg,pics/salmon.jpg,blankImage,blankImage,blankImage,blankImage,blankImage,blankImage,blankImage,blankImage,blankImage,recyclingbin,16,,,,,,,,,,,,,,,,,,,,,,,,,,,,,,,,,,,,,,,,,,0,4,4,15,1,,,,,,,,,,,,,,,,,,,,,,,,,,,,,,,,,,,,,,,,,,,,,,,,,,,,,,
,,,,,5f44ee515cff5c02f09c17be,6682b41eeb79ab8215dff63d,6682b9a9f4182cad72f96761,29,Female,English,2024-07-01_15h15.09.753,ABmemTask3,2023.2.3,MacIntel,58.82352941,,,,,,,,,,,,,,,,,,,,,,,,,,,,,,,276.46,277.459,277.459,7,277.959,279.01,0.002,279.126,0.115,0.117,0.117,0.116,0.117,0.117,0.116,0.116,0.117,,,279.126,279.559,right,0.413,,279.559,279.743,right,0.167,,4,0,12,279.743,280.743,,,,,,1_AB,L1_T1P_T2P,1,1,1,4,5,3,5,10,chair,Did you see the chair,0.12,0,resources/,pics/zebra.jpg,pics/floortile02.jpg,pics/cork02.jpg,pics/chair.jpg,pics/stapler07.jpg,pics/sealion.jpg,pics/shovel01.jpg,pics/piggybank.jpg,pics/candleholder01.jpg,pics/laptop01a.jpg,blankImage,blankImage,blankImage,blankImage,blankImage,blankImage,blankImage,chair,3,,,,,,,,,,,,,,,,,,,,,,,,,,,,,,,,,,,,,,,,,,0,5,5,2,1,,,,,,,,,,,,,,,,,,,,,,,,,,,,,,,,,,,,,,,,,,,,,,,,,,,,,,
,,,,,5f44ee515cff5c02f09c17be,6682b41eeb79ab8215dff63d,6682b9a9f4182cad72f96761,29,Female,English,2024-07-01_15h15.09.753,ABmemTask3,2023.2.3,MacIntel,58.82352941,,,,,,,,,,,,,,,,,,,,,,,,,,,,,,,280.743,281.743,281.743,7,282.243,283.76,0.002,283.876,0.115,0.117,0.116,0.117,0.117,0.116,0.117,0.117,0.116,0.117,0.116,283.876,284.459,right,0.563,,284.459,284.693,right,0.218,,6,0,14,284.693,285.693,,,,,,1_AB,L5_T1P_T2P,5,1,1,4,9,3,5,14,pliers,Did you see the pliers,0.12,0,resources/,pics/calendar.jpg,pics/footballhelmet.jpg,pics/seaturtle.jpg,pics/pliers02b.jpg,pics/wheel01.jpg,pics/cannon.jpg,pics/proboscismonkey.jpg,pics/shovel01.jpg,pics/stapler06.jpg,pics/football.jpg,pics/hose.jpg,pics/dustpan.jpg,pics/spiderweb.jpg,pics/golfball.jpg,blankImage,blankImage,blankImage,pliers02b,48,0.117,0.117,,,,,,,,,,,,,,,,,,,,,,,,,,,,,,,,,,,,,,,,0,6,6,47,1,,,,,,,,,,,,,,,,,,,,,,,,,,,,,,,,,,,,,,,,,,,,,,,,,,,,,,
,,,,,5f44ee515cff5c02f09c17be,6682b41eeb79ab8215dff63d,6682b9a9f4182cad72f96761,29,Female,English,2024-07-01_15h15.09.753,ABmemTask3,2023.2.3,MacIntel,58.82352941,,,,,,,,,,,,,,,,,,,,,,,,,,,,,,,285.694,286.693,286.693,7,287.193,288.127,0.001,288.243,0.116,0.117,0.117,0.115,0.118,0.117,0.116,0.117,,,,288.243,289.226,right,0.964,,289.226,289.559,left,0.32,,6,0,16,289.559,290.56,,,,,,1_AB,L1_T1P_T2P,1,1,1,5,6,4,3,9,Ant,Did you see the Ant,0.12,0,resources/,pics/kangaroo.jpg,pics/giraffe.jpg,pics/footballhelmet.jpg,pics/onion.jpg,pics/ant.jpg,pics/stapler04b.jpg,pics/banjo.jpg,pics/zebra.jpg,pics/dromedary.jpg,blankImage,blankImage,blankImage,blankImage,blankImage,blankImage,blankImage,blankImage,ant,15,,,,,,,,,,,,,,,,,,,,,,,,,,,,,,,,,,,,,,,,,,0,7,7,14,1,,,,,,,,,,,,,,,,,,,,,,,,,,,,,,,,,,,,,,,,,,,,,,,,,,,,,,
,,,,,5f44ee515cff5c02f09c17be,6682b41eeb79ab8215dff63d,6682b9a9f4182cad72f96761,29,Female,English,2024-07-01_15h15.09.753,ABmemTask3,2023.2.3,MacIntel,58.82352941,,,,,,,,,,,,,,,,,,,,,,,,,,,,,,,290.561,291.56,291.56,7,292.059,293.343,0.001,293.46,0.117,0.117,0.116,0.117,0.117,0.116,0.117,0.117,0.116,0.117,0.117,293.46,294.043,right,0.567,,294.043,294.26,right,0.202,,8,0,18,294.26,295.26,,,,,,1_AB,L1_T1P_T2P,1,1,1,6,7,5,5,12,Bear,Did you see the Bear,0.12,0,resources/,pics/necklace.jpg,pics/hen.jpg,pics/dromedary.jpg,pics/piggybank.jpg,pics/sandbarshark.jpg,pics/grizzly.jpg,pics/stapler12.jpg,pics/bowlingpin.jpg,pics/christmaslights.jpg,pics/icecube01.jpg,pics/match.jpg,pics/lock03a.jpg,blankImage,blankImage,blankImage,blankImage,blankImage,grizzly,18,,,,,,,,,,,,,,,,,,,,,,,,,,,,,,,,,,,,,,,,,,0,8,8,17,1,,,,,,,,,,,,,,,,,,,,,,,,,,,,,,,,,,,,,,,,,,,,,,,,,,,,,,
,,,,,5f44ee515cff5c02f09c17be,6682b41eeb79ab8215dff63d,6682b9a9f4182cad72f96761,29,Female,English,2024-07-01_15h15.09.753,ABmemTask3,2023.2.3,MacIntel,58.82352941,,,,,,,,,,,,,,,,,,,,,,,,,,,,,,,295.261,296.26,296.26,7,296.76,297.81,0.001,297.927,0.116,0.117,0.117,0.116,0.117,0.117,0.116,0.117,0.117,,,297.927,299.027,right,1.08,,299.027,299.293,left,0.255,,10,0,20,299.293,300.293,,,,,,1_AB,L1_T1P_T2A,1,1,0,6,7,5,3,10,Electric toothbrush,Did you see the Electric toothbrush,0.12,0,resources/,pics/football.jpg,pics/sailboat.jpg,pics/cymbal.jpg,pics/hen.jpg,pics/pencil01.jpg,pics/electrictoothbrush01c.jpg,pics/bowlingpin.jpg,pics/wheel01.jpg,pics/birdhouse.jpg,pics/leaf02a.jpg,blankImage,blankImage,blankImage,blankImage,blankImage,blankImage,blankImage,electrictoothbrush01c,34,,,,,,,,,,,,,,,,,,,,,,,,,,,,,,,,,,,,,,,,,,0,9,9,33,1,,,,,,,,,,,,,,,,,,,,,,,,,,,,,,,,,,,,,,,,,,,,,,,,,,,,,,
,,,,,5f44ee515cff5c02f09c17be,6682b41eeb79ab8215dff63d,6682b9a9f4182cad72f96761,29,Female,English,2024-07-01_15h15.09.753,ABmemTask3,2023.2.3,MacIntel,58.82352941,,,,,,,,,,,,,,,,,,,,,,,,,,,,,,,300.294,301.293,301.293,7,301.793,303.076,0.002,303.193,0.116,0.116,0.117,0.117,0.116,0.117,0.117,0.116,0.117,0.117,0.116,303.194,303.711,right,0.505,,303.711,303.926,right,0.205,,12,0,22,303.927,304.927,,,,,,1_AB,L1_T1P_T2P,1,1,1,7,8,6,4,12,Turnstile,Did you see the Turnstile,0.12,0,resources/,pics/golfball.jpg,pics/hose.jpg,pics/siamesecat.jpg,pics/binoculars01b.jpg,pics/hen.jpg,pics/candleholder01.jpg,pics/turnstile.jpg,pics/stapler03a.jpg,pics/giraffe.jpg,pics/pictureframe04.jpg,pics/sandbarshark.jpg,pics/spoon01.jpg,blankImage,blankImage,blankImage,blankImage,blankImage,turnstile,13,,,,,,,,,,,,,,,,,,,,,,,,,,,,,,,,,,,,,,,,,,0,10,10,12,1,,,,,,,,,,,,,,,,,,,,,,,,,,,,,,,,,,,,,,,,,,,,,,,,,,,,,,
,,,,,5f44ee515cff5c02f09c17be,6682b41eeb79ab8215dff63d,6682b9a9f4182cad72f96761,29,Female,English,2024-07-01_15h15.09.753,ABmemTask3,2023.2.3,MacIntel,58.82352941,,,,,,,,,,,,,,,,,,,,,,,,,,,,,,,304.928,305.926,305.926,7,306.427,307.477,0.001,307.593,0.115,0.118,0.117,0.116,0.117,0.116,0.117,0.117,0.116,,,307.594,308.093,right,0.48,,308.094,308.327,right,0.223,,14,0,24,308.327,309.327,,,,,,1_AB,L1_T1P_T2P,1,1,1,5,6,4,4,10,thermometer,Did you see the thermometer,0.12,0,resources/,pics/triangle.jpg,pics/shovel01.jpg,pics/mummy.jpg,pics/noparkingsign.jpg,pics/thermometer02b.jpg,pics/stapler04.jpg,pics/piggybank.jpg,pics/golfball.jpg,pics/laptop01a.jpg,pics/aquarium.jpg,blankImage,blankImage,blankImage,blankImage,blankImage,blankImage,blankImage,thermometer02b,8,,,,,,,,,,,,,,,,,,,,,,,,,,,,,,,,,,,,,,,,,,0,11,11,7,1,,,,,,,,,,,,,,,,,,,,,,,,,,,,,,,,,,,,,,,,,,,,,,,,,,,,,,
,,,,,5f44ee515cff5c02f09c17be,6682b41eeb79ab8215dff63d,6682b9a9f4182cad72f96761,29,Female,English,2024-07-01_15h15.09.753,ABmemTask3,2023.2.3,MacIntel,58.82352941,,,,,,,,,,,,,,,,,,,,,,,,,,,,,,,309.328,310.327,310.327,7,310.827,312.694,0.002,312.81,0.115,0.117,0.116,0.117,0.116,0.118,0.116,0.117,0.117,0.116,0.117,312.811,313.377,left,0.548,,313.377,313.793,left,0.407,,16,0,26,313.793,314.794,,,,,,1_AB,L5_T1A_T2A,5,0,0,7,12,6,5,17,Bib,Did you see the Bib,0.12,0,resources/,pics/hammerheadshark.jpg,pics/wheel01.jpg,pics/binder03b.jpg,pics/hairdryer02a.jpg,pics/christmaslights.jpg,pics/sandbarshark.jpg,pics/binoculars01b.jpg,pics/piggybank.jpg,pics/aquarium.jpg,pics/candleholder01.jpg,pics/sink.jpg,pics/calendar.jpg,pics/birdhouse.jpg,pics/bowtie.jpg,pics/onion.jpg,pics/golfball.jpg,pics/sailboat.jpg,bib,62,0.117,0.116,0.117,,,,,,,,,,,,,,,,,,,,,,,,,,,,,,,,,,,,,,0.116,0,12,12,61,1,0.117,,,,,,,,,,,,,,,,,,,,,,,,,,,,,,,,,,,,,,,,,,,,,,,,,,,,,
,,,,,5f44ee515cff5c02f09c17be,6682b41eeb79ab8215dff63d,6682b9a9f4182cad72f96761,29,Female,English,2024-07-01_15h15.09.753,ABmemTask3,2023.2.3,MacIntel,58.82352941,,,,,,,,,,,,,,,,,,,,,,,,,,,,,,,314.794,315.793,315.793,7,316.294,317.461,0.001,317.577,0.116,0.117,0.116,0.117,0.116,0.117,0.116,0.118,0.116,0.117,,317.578,318.094,right,0.496,,318.094,318.31,right,0.201,,18,0,28,318.31,319.311,,,,,,1_AB,L1_T1P_T2P,1,1,1,7,8,6,3,11,Eiffel tower,Did you see the Eiffel tower,0.12,0,resources/,pics/seagull.jpg,pics/cymbal.jpg,pics/match.jpg,pics/binoculars01b.jpg,pics/ball02.jpg,pics/onion.jpg,pics/eiffeltower.jpg,pics/stapler11.jpg,pics/peach01.jpg,pics/sandbarshark.jpg,pics/boot02b.jpg,blankImage,blankImage,blankImage,blankImage,blankImage,blankImage,eiffeltower,1,,,,,,,,,,,,,,,,,,,,,,,,,,,,,,,,,,,,,,,,,,0,13,13,0,1,,,,,,,,,,,,,,,,,,,,,,,,,,,,,,,,,,,,,,,,,,,,,,,,,,,,,,
,,,,,5f44ee515cff5c02f09c17be,6682b41eeb79ab8215dff63d,6682b9a9f4182cad72f96761,29,Female,English,2024-07-01_15h15.09.753,ABmemTask3,2023.2.3,MacIntel,58.82352941,,,,,,,,,,,,,,,,,,,,,,,,,,,,,,,319.311,320.311,320.311,7,320.81,322.444,0.001,322.561,0.117,0.116,0.117,0.117,0.116,0.117,0.117,0.116,0.116,0.117,0.117,322.561,323.394,left,0.815,,323.394,323.644,right,0.235,,20,0,30,323.644,324.644,,,,,,1_AB,L5_T1A_T2P,5,0,1,5,10,4,5,15,scorpion,Did you see the scorpion,0.12,0,resources/,pics/pictureframe04.jpg,pics/binder03b.jpg,pics/pencil01.jpg,pics/leaf02a.jpg,pics/icecube01.jpg,pics/dromedary.jpg,pics/toiletpaper01a.jpg,pics/peanut01.jpg,pics/golfball.jpg,pics/stapler03.jpg,pics/carrot01.jpg,pics/peach01.jpg,pics/sealion.jpg,pics/football.jpg,pics/zebra.jpg,blankImage,blankImage,scorpion,54,0.116,0.117,0.116,,,,,,,,,,,,,,,,,,,,,,,,,,,,,,,,,,,,,,,0,14,14,53,1,,,,,,,,,,,,,,,,,,,,,,,,,,,,,,,,,,,,,,,,,,,,,,,,,,,,,,
,,,,,5f44ee515cff5c02f09c17be,6682b41eeb79ab8215dff63d,6682b9a9f4182cad72f96761,29,Female,English,2024-07-01_15h15.09.753,ABmemTask3,2023.2.3,MacIntel,58.82352941,,,,,,,,,,,,,,,,,,,,,,,,,,,,,,,324.645,325.644,325.644,7,326.144,327.661,0.001,327.777,0.116,0.117,0.117,0.116,0.117,0.117,0.116,0.117,0.117,0.116,0.117,327.778,328.377,left,0.585,,328.377,328.594,right,0.202,,22,0,32,328.594,329.594,,,,,,1_AB,L5_T1A_T2P,5,0,1,4,9,3,5,14,lemon,Did you see the lemon,0.12,0,resources/,pics/seaturtle.jpg,pics/lightswitch01.jpg,pics/candle01.jpg,pics/cannon.jpg,pics/seagull.jpg,pics/spoon01.jpg,pics/spiderweb.jpg,pics/sewingmachine01a.jpg,pics/stapler05.jpg,pics/binoculars01b.jpg,pics/zebra.jpg,pics/sealion.jpg,pics/shovel01.jpg,pics/wheel01.jpg,blankImage,blankImage,blankImage,lemon02,56,0.117,0.116,,,,,,,,,,,,,,,,,,,,,,,,,,,,,,,,,,,,,,,,0,15,15,55,1,,,,,,,,,,,,,,,,,,,,,,,,,,,,,,,,,,,,,,,,,,,,,,,,,,,,,,
,,,,,5f44ee515cff5c02f09c17be,6682b41eeb79ab8215dff63d,6682b9a9f4182cad72f96761,29,Female,English,2024-07-01_15h15.09.753,ABmemTask3,2023.2.3,MacIntel,58.82352941,,,,,,,,,,,,,,,,,,,,,,,,,,,,,,,329.595,330.595,330.595,7,331.093,332.028,0.002,332.144,0.117,0.116,0.117,0.117,0.116,0.117,0.117,0.116,,,,332.145,332.911,left,0.746,,332.911,333.113,right,0.193,,22,0,34,333.113,334.111,,,,,,1_AB,L1_T1P_T2P,1,1,1,4,5,3,4,9,Chefs hat,Did you see the Chefs hat,0.12,0,resources/,pics/sewingmachine01a.jpg,pics/icecube01.jpg,pics/fanblades.jpg,pics/chefshat.jpg,pics/stapler06.jpg,pics/ashtray01.jpg,pics/blender.jpg,pics/sandbarshark.jpg,pics/lock03a.jpg,blankImage,blankImage,blankImage,blankImage,blankImage,blankImage,blankImage,blankImage,chefshat,12,,,,,,,,,,,,,,,,,,,,,,,,,,,,,,,,,,,,,,,,,,0,16,16,11,1,,,,,,,,,,,,,,,,,,,,,,,,,,,,,,,,,,,,,,,,,,,,,,,,,,,,,,
,,,,,5f44ee515cff5c02f09c17be,6682b41eeb79ab8215dff63d,6682b9a9f4182cad72f96761,29,Female,English,2024-07-01_15h15.09.753,ABmemTask3,2023.2.3,MacIntel,58.82352941,,,,,,,,,,,,,,,,,,,,,,,,,,,,,,,334.112,335.11,335.11,7,335.611,336.778,0.002,336.894,0.116,0.117,0.116,0.117,0.117,0.117,0.116,0.117,0.117,0.116,,336.895,337.863,left,0.957,,337.863,338.461,right,0.589,,18,0,36,338.461,339.461,,,,,,1_AB,L1_T1P_T2A,1,1,0,7,8,6,3,11,garlic,Did you see the garlic,0.12,0,resources/,pics/zebra.jpg,pics/banjo.jpg,pics/pencilsharpener02a.jpg,pics/football.jpg,pics/candle01.jpg,pics/footballhelmet.jpg,pics/garlic01a.jpg,pics/birdhouse.jpg,pics/peach01.jpg,pics/pictureframe04.jpg,pics/binder03b.jpg,blankImage,blankImage,blankImage,blankImage,blankImage,blankImage,garlic01a,33,,,,,,,,,,,,,,,,,,,,,,,,,,,,,,,,,,,,,,,,,,0,17,17,32,1,,,,,,,,,,,,,,,,,,,,,,,,,,,,,,,,,,,,,,,,,,,,,,,,,,,,,,
,,,,,5f44ee515cff5c02f09c17be,6682b41eeb79ab8215dff63d,6682b9a9f4182cad72f96761,29,Female,English,2024-07-01_15h15.09.753,ABmemTask3,2023.2.3,MacIntel,58.82352941,,,,,,,,,,,,,,,,,,,,,,,,,,,,,,,339.462,340.461,340.461,7,340.961,342.712,0.002,342.828,0.115,0.117,0.117,0.116,0.117,0.117,0.116,0.117,0.117,0.116,0.117,342.828,343.378,left,0.538,,343.379,343.794,left,0.401,,18,0,38,343.794,344.795,,,,,,1_AB,L5_T1P_T2A,5,1,0,6,11,5,5,16,belt,Did you see the belt,0.12,0,resources/,pics/banjo.jpg,pics/birdhouse.jpg,pics/spoon01.jpg,pics/table01.jpg,pics/candle01.jpg,pics/belt02a.jpg,pics/peach01.jpg,pics/chainsaw.jpg,pics/toiletpaper01a.jpg,pics/proboscismonkey.jpg,pics/cymbal.jpg,pics/binoculars01b.jpg,pics/cannon.jpg,pics/noparkingsign.jpg,pics/sailboat.jpg,pics/carrot01.jpg,blankImage,belt02a,61,0.117,0.117,0.116,,,,,,,,,,,,,,,,,,,,,,,,,,,,,,,,,,,,,,0.117,0,18,18,60,1,,,,,,,,,,,,,,,,,,,,,,,,,,,,,,,,,,,,,,,,,,,,,,,,,,,,,,
,,,,,5f44ee515cff5c02f09c17be,6682b41eeb79ab8215dff63d,6682b9a9f4182cad72f96761,29,Female,English,2024-07-01_15h15.09.753,ABmemTask3,2023.2.3,MacIntel,58.82352941,,,,,,,,,,,,,,,,,,,,,,,,,,,,,,,344.796,345.795,345.795,7,346.295,347.228,0.001,347.345,0.116,0.117,0.116,0.117,0.117,0.116,0.117,0.117,,,,347.345,348.445,right,1.085,,348.445,348.794,left,0.341,,20,0,40,348.795,349.795,,,,,,1_AB,L1_T1P_T2A,1,1,0,4,5,3,4,9,blueberry,Did you see the blueberry,0.12,0,resources/,pics/sealion.jpg,pics/piggybank.jpg,pics/sink.jpg,pics/blueberry01.jpg,pics/onion.jpg,pics/sailboat.jpg,pics/seaturtle.jpg,pics/hen.jpg,pics/fanblades.jpg,blankImage,blankImage,blankImage,blankImage,blankImage,blankImage,blankImage,blankImage,blueberry01,35,,,,,,,,,,,,,,,,,,,,,,,,,,,,,,,,,,,,,,,,,,0,19,19,34,1,,,,,,,,,,,,,,,,,,,,,,,,,,,,,,,,,,,,,,,,,,,,,,,,,,,,,,
,,,,,5f44ee515cff5c02f09c17be,6682b41eeb79ab8215dff63d,6682b9a9f4182cad72f96761,29,Female,English,2024-07-01_15h15.09.753,ABmemTask3,2023.2.3,MacIntel,58.82352941,,,,,,,,,,,,,,,,,,,,,,,,,,,,,,,349.796,350.795,350.795,7,351.295,352.929,0.001,353.045,0.116,0.117,0.116,0.117,0.116,0.117,0.117,0.117,0.116,0.117,0.117,353.045,353.678,left,0.619,,353.678,353.894,right,0.201,,22,0,42,353.894,354.895,,,,,,1_AB,L5_T1A_T2P,5,0,1,7,12,6,3,15,scissors,Did you see the scissors,0.12,0,resources/,pics/cannon.jpg,pics/mummy.jpg,pics/shovel01.jpg,pics/christmaslights.jpg,pics/snowshoe.jpg,pics/candle01.jpg,pics/bowtie.jpg,pics/giraffe.jpg,pics/carrot01.jpg,pics/spoon01.jpg,pics/seaturtle.jpg,pics/stapler10.jpg,pics/footballhelmet.jpg,pics/onion.jpg,pics/wheel01.jpg,blankImage,blankImage,scissors01,57,0.117,0.116,0.117,,,,,,,,,,,,,,,,,,,,,,,,,,,,,,,,,,,,,,,0,20,20,56,1,,,,,,,,,,,,,,,,,,,,,,,,,,,,,,,,,,,,,,,,,,,,,,,,,,,,,,
,,,,,5f44ee515cff5c02f09c17be,6682b41eeb79ab8215dff63d,6682b9a9f4182cad72f96761,29,Female,English,2024-07-01_15h15.09.753,ABmemTask3,2023.2.3,MacIntel,58.82352941,,,,,,,,,,,,,,,,,,,,,,,,,,,,,,,354.896,355.895,355.895,7,356.395,357.562,0.002,357.678,0.115,0.117,0.117,0.116,0.117,0.117,0.116,0.116,0.118,0.116,,357.679,358.478,left,0.779,,358.479,358.661,right,0.173,,24,0,44,358.661,359.662,,,,,,1_AB,L1_T1A_T2P,1,0,1,5,6,4,5,11,Recorder,Did you see the Recorder,0.12,0,resources/,pics/bowtie.jpg,pics/nutcracker01.jpg,pics/hairdryer02a.jpg,pics/shovel01.jpg,pics/onion.jpg,pics/stapler13.jpg,pics/safetypin.jpg,pics/spiderweb.jpg,pics/seagull.jpg,pics/dustpan.jpg,pics/icecube01.jpg,blankImage,blankImage,blankImage,blankImage,blankImage,blankImage,recorder04,28,,,,,,,,,,,,,,,,,,,,,,,,,,,,,,,,,,,,,,,,,,0,21,21,27,1,,,,,,,,,,,,,,,,,,,,,,,,,,,,,,,,,,,,,,,,,,,,,,,,,,,,,,
,,,,,5f44ee515cff5c02f09c17be,6682b41eeb79ab8215dff63d,6682b9a9f4182cad72f96761,29,Female,English,2024-07-01_15h15.09.753,ABmemTask3,2023.2.3,MacIntel,58.82352941,,,,,,,,,,,,,,,,,,,,,,,,,,,,,,,359.662,360.662,360.662,7,361.162,362.446,0.002,362.562,0.115,0.117,0.116,0.117,0.117,0.116,0.117,0.117,0.116,0.117,0.117,362.562,362.962,right,0.38,,362.962,363.178,right,0.201,,26,0,46,363.178,364.179,,,,,,1_AB,L5_T1P_T2P,5,1,1,4,9,3,3,12,Sheep,Did you see the Sheep,0.12,0,resources/,pics/icecube01.jpg,pics/cymbal.jpg,pics/wheel01.jpg,pics/sheep.jpg,pics/starfish01.jpg,pics/safetypin.jpg,pics/siamesecat.jpg,pics/lock03a.jpg,pics/stapler01.jpg,pics/sink.jpg,pics/fanblades.jpg,pics/bowlingpin.jpg,blankImage,blankImage,blankImage,blankImage,blankImage,sheep,52,,,,,,,,,,,,,,,,,,,,,,,,,,,,,,,,,,,,,,,,,,0,22,22,51,1,,,,,,,,,,,,,,,,,,,,,,,,,,,,,,,,,,,,,,,,,,,,,,,,,,,,,,
,,,,,5f44ee515cff5c02f09c17be,6682b41eeb79ab8215dff63d,6682b9a9f4182cad72f96761,29,Female,English,2024-07-01_15h15.09.753,ABmemTask3,2023.2.3,MacIntel,58.82352941,,,,,,,,,,,,,,,,,,,,,,,,,,,,,,,364.18,365.179,365.179,7,365.679,367.079,0.001,367.195,0.116,0.116,0.117,0.117,0.117,0.116,0.117,0.116,0.117,0.117,0.116,367.196,367.578,right,0.369,,367.578,367.797,right,0.21,,28,0,48,367.797,368.795,,,,,,1_AB,L1_T1P_T2P,1,1,1,7,8,6,5,13,strawberry,Did you see the strawberry,0.12,0,resources/,pics/sealion.jpg,pics/backpack01a.jpg,pics/binoculars01b.jpg,pics/ball02.jpg,pics/proboscismonkey.jpg,pics/pictureframe04.jpg,pics/strawberry.jpg,pics/stapler12.jpg,pics/seaturtle.jpg,pics/dustpan.jpg,pics/bowlingpin.jpg,pics/hammerheadshark.jpg,pics/hen.jpg,blankImage,blankImage,blankImage,blankImage,strawberry,10,0.117,,,,,,,,,,,,,,,,,,,,,,,,,,,,,,,,,,,,,,,,,0,23,23,9,1,,,,,,,,,,,,,,,,,,,,,,,,,,,,,,,,,,,,,,,,,,,,,,,,,,,,,,
,,,,,5f44ee515cff5c02f09c17be,6682b41eeb79ab8215dff63d,6682b9a9f4182cad72f96761,29,Female,English,2024-07-01_15h15.09.753,ABmemTask3,2023.2.3,MacIntel,58.82352941,,,,,,,,,,,,,,,,,,,,,,,,,,,,,,,368.796,369.796,369.796,7,370.295,371.929,0.002,372.046,0.116,0.117,0.116,0.116,0.117,0.117,0.117,0.116,0.117,0.117,0.116,372.046,372.562,right,0.501,,372.562,372.795,right,0.225,,30,0,50,372.795,373.796,,,,,,1_AB,L5_T1P_T2P,5,1,1,5,10,4,5,15,ribbon,Did you see the ribbon,0.12,0,resources/,pics/giraffe.jpg,pics/boot02b.jpg,pics/cymbal.jpg,pics/leaf02a.jpg,pics/ribbon04.jpg,pics/lightswitch01.jpg,pics/necklace.jpg,pics/calendar.jpg,pics/kangaroo.jpg,pics/stapler12.jpg,pics/hose.jpg,pics/carrot01.jpg,pics/match.jpg,pics/sink.jpg,pics/candleholder01.jpg,blankImage,blankImage,ribbon04,53,0.117,0.117,0.116,,,,,,,,,,,,,,,,,,,,,,,,,,,,,,,,,,,,,,,0,24,24,52,1,,,,,,,,,,,,,,,,,,,,,,,,,,,,,,,,,,,,,,,,,,,,,,,,,,,,,,
,,,,,5f44ee515cff5c02f09c17be,6682b41eeb79ab8215dff63d,6682b9a9f4182cad72f96761,29,Female,English,2024-07-01_15h15.09.753,ABmemTask3,2023.2.3,MacIntel,58.82352941,,,,,,,,,,,,,,,,,,,,,,,,,,,,,,,373.796,374.796,374.796,7,375.296,376.929,0.001,377.046,0.116,0.117,0.116,0.117,0.117,0.116,0.117,0.116,0.117,0.117,0.116,377.046,377.429,right,0.366,,377.429,377.645,right,0.202,,32,0,52,377.645,378.646,,,,,,1_AB,L5_T1P_T2P,5,1,1,6,11,5,4,15,toast,Did you see the toast,0.12,0,resources/,pics/piggybank.jpg,pics/leaf02a.jpg,pics/carrot01.jpg,pics/birdhouse.jpg,pics/bowlingpin.jpg,pics/toast.jpg,pics/spiderweb.jpg,pics/cork02.jpg,pics/sink.jpg,pics/nutcracker01.jpg,pics/stapler02.jpg,pics/ashtray01.jpg,pics/fanblades.jpg,pics/pencil01.jpg,pics/lightswitch01.jpg,blankImage,blankImage,toast,46,0.117,0.117,0.116,,,,,,,,,,,,,,,,,,,,,,,,,,,,,,,,,,,,,,,0,25,25,45,1,,,,,,,,,,,,,,,,,,,,,,,,,,,,,,,,,,,,,,,,,,,,,,,,,,,,,,
,,,,,5f44ee515cff5c02f09c17be,6682b41eeb79ab8215dff63d,6682b9a9f4182cad72f96761,29,Female,English,2024-07-01_15h15.09.753,ABmemTask3,2023.2.3,MacIntel,58.82352941,,,,,,,,,,,,,,,,,,,,,,,,,,,,,,,378.646,379.646,379.646,7,380.146,381.313,0.001,381.429,0.116,0.117,0.116,0.117,0.117,0.116,0.117,0.117,0.116,0.117,,381.429,382.313,left,0.865,,382.313,382.863,left,0.534,,34,0,54,382.863,383.863,,,,,,1_AB,L1_T1A_T2A,1,0,0,7,8,6,3,11,Poker chips,Did you see the Poker chips,0.12,0,resources/,pics/candle01.jpg,pics/proboscismonkey.jpg,pics/fanblades.jpg,pics/dromedary.jpg,pics/aquarium.jpg,pics/salmon.jpg,pics/hose.jpg,pics/kangaroo.jpg,pics/noparkingsign.jpg,pics/carrot01.jpg,pics/leaf02a.jpg,blankImage,blankImage,blankImage,blankImage,blankImage,blankImage,pokerchips,41,,,,,,,,,,,,,,,,,,,,,,,,,,,,,,,,,,,,,,,,,,0,26,26,40,1,,,,,,,,,,,,,,,,,,,,,,,,,,,,,,,,,,,,,,,,,,,,,,,,,,,,,,
,,,,,5f44ee515cff5c02f09c17be,6682b41eeb79ab8215dff63d,6682b9a9f4182cad72f96761,29,Female,English,2024-07-01_15h15.09.753,ABmemTask3,2023.2.3,MacIntel,58.82352941,,,,,,,,,,,,,,,,,,,,,,,,,,,,,,,383.863,384.863,384.863,7,385.363,386.646,0.001,386.763,0.115,0.118,0.116,0.117,0.116,0.117,0.117,0.116,0.117,0.117,0.116,386.763,387.829,right,1.047,,387.83,388.279,right,0.442,,32,0,56,388.279,389.279,,,,,,1_AB,L1_T1P_T2A,1,1,0,7,8,6,4,12,Tennis racket,Did you see the Tennis racket,0.12,0,resources/,pics/banjo.jpg,pics/leaf02a.jpg,pics/shovel01.jpg,pics/microscope.jpg,pics/cork02.jpg,pics/seagull.jpg,pics/tennisracket.jpg,pics/binder03b.jpg,pics/floortile02.jpg,pics/carrot01.jpg,pics/candle01.jpg,pics/siamesecat.jpg,blankImage,blankImage,blankImage,blankImage,blankImage,tennisracket,38,,,,,,,,,,,,,,,,,,,,,,,,,,,,,,,,,,,,,,,,,,0,27,27,37,1,,,,,,,,,,,,,,,,,,,,,,,,,,,,,,,,,,,,,,,,,,,,,,,,,,,,,,
,,,,,5f44ee515cff5c02f09c17be,6682b41eeb79ab8215dff63d,6682b9a9f4182cad72f96761,29,Female,English,2024-07-01_15h15.09.753,ABmemTask3,2023.2.3,MacIntel,58.82352941,,,,,,,,,,,,,,,,,,,,,,,,,,,,,,,389.28,390.279,390.279,7,390.779,392.297,0.002,392.413,0.116,0.116,0.117,0.117,0.116,0.117,0.117,0.116,0.117,0.117,0.116,392.413,392.796,right,0.362,,392.796,392.996,right,0.187,,34,0,58,392.996,393.996,,,,,,1_AB,L5_T1P_T2P,5,1,1,4,9,3,5,14,asparagus,Did you see the asparagus,0.12,0,resources/,pics/siamesecat.jpg,pics/starfish01.jpg,pics/aquarium.jpg,pics/asparagus.jpg,pics/salmon.jpg,pics/binoculars01b.jpg,pics/ball02.jpg,pics/calendar.jpg,pics/stapler10.jpg,pics/giraffe.jpg,pics/dromedary.jpg,pics/seaturtle.jpg,pics/sandbarshark.jpg,pics/shipinabottle.jpg,blankImage,blankImage,blankImage,asparagus,44,0.117,0.117,,,,,,,,,,,,,,,,,,,,,,,,,,,,,,,,,,,,,,,,0,28,28,43,1,,,,,,,,,,,,,,,,,,,,,,,,,,,,,,,,,,,,,,,,,,,,,,,,,,,,,,
,,,,,5f44ee515cff5c02f09c17be,6682b41eeb79ab8215dff63d,6682b9a9f4182cad72f96761,29,Female,English,2024-07-01_15h15.09.753,ABmemTask3,2023.2.3,MacIntel,58.82352941,,,,,,,,,,,,,,,,,,,,,,,,,,,,,,,393.997,394.995,394.996,7,395.496,396.43,0.002,396.546,0.116,0.116,0.117,0.117,0.116,0.117,0.117,0.116,,,,396.546,397.246,left,0.685,,397.246,397.446,right,0.186,,34,0,60,397.446,398.446,,,,,,1_AB,L1_T1P_T2P,1,1,1,4,5,3,4,9,antenna,Did you see the antenna,0.12,0,resources/,pics/microscope.jpg,pics/spoon01.jpg,pics/dromedary.jpg,pics/antenna.jpg,pics/stapler03.jpg,pics/hen.jpg,pics/leaf02a.jpg,pics/candle01.jpg,pics/sealion.jpg,blankImage,blankImage,blankImage,blankImage,blankImage,blankImage,blankImage,blankImage,antenna,9,,,,,,,,,,,,,,,,,,,,,,,,,,,,,,,,,,,,,,,,,,0,29,29,8,1,,,,,,,,,,,,,,,,,,,,,,,,,,,,,,,,,,,,,,,,,,,,,,,,,,,,,,
,,,,,5f44ee515cff5c02f09c17be,6682b41eeb79ab8215dff63d,6682b9a9f4182cad72f96761,29,Female,English,2024-07-01_15h15.09.753,ABmemTask3,2023.2.3,MacIntel,58.82352941,,,,,,,,,,,,,,,,,,,,,,,,,,,,,,,398.447,399.446,399.447,7,399.946,401.23,0.002,401.346,0.116,0.116,0.117,0.117,0.116,0.117,0.116,0.117,0.117,0.117,0.117,401.347,401.813,right,0.45,,401.813,402.013,right,0.192,,36,0,62,402.013,403.013,,,,,,1_AB,L1_T1P_T2P,1,1,1,7,8,6,4,12,hammer,Did you see the hammer,0.12,0,resources/,pics/microscope.jpg,pics/blender.jpg,pics/dustpan.jpg,pics/snowshoe.jpg,pics/mummy.jpg,pics/bowtie.jpg,pics/hammer01.jpg,pics/stapler04b.jpg,pics/seaturtle.jpg,pics/candle01.jpg,pics/necklace.jpg,pics/cannon.jpg,blankImage,blankImage,blankImage,blankImage,blankImage,hammer01,21,,,,,,,,,,,,,,,,,,,,,,,,,,,,,,,,,,,,,,,,,,0,30,30,20,1,,,,,,,,,,,,,,,,,,,,,,,,,,,,,,,,,,,,,,,,,,,,,,,,,,,,,,
,,,,,5f44ee515cff5c02f09c17be,6682b41eeb79ab8215dff63d,6682b9a9f4182cad72f96761,29,Female,English,2024-07-01_15h15.09.753,ABmemTask3,2023.2.3,MacIntel,58.82352941,,,,,,,,,,,,,,,,,,,,,,,,,,,,,,,403.014,404.013,404.013,7,404.513,405.68,0.001,405.796,0.116,0.117,0.117,0.116,0.117,0.117,0.116,0.117,0.117,0.116,,405.797,406.18,right,0.364,,406.18,406.38,right,0.189,,38,0,64,406.38,407.38,,,,,,1_AB,L1_T1P_T2P,1,1,1,7,8,6,3,11,bird,Did you see the bird,0.12,0,resources/,pics/sealion.jpg,pics/backpack01a.jpg,pics/hose.jpg,pics/table01.jpg,pics/wheel01.jpg,pics/seaturtle.jpg,pics/americangoldfinch.jpg,pics/stapler08.jpg,pics/siamesecat.jpg,pics/hammerheadshark.jpg,pics/ashtray01.jpg,blankImage,blankImage,blankImage,blankImage,blankImage,blankImage,americangoldfinch,23,,,,,,,,,,,,,,,,,,,,,,,,,,,,,,,,,,,,,,,,,,0,31,31,22,1,,,,,,,,,,,,,,,,,,,,,,,,,,,,,,,,,,,,,,,,,,,,,,,,,,,,,,
,,,,,5f44ee515cff5c02f09c17be,6682b41eeb79ab8215dff63d,6682b9a9f4182cad72f96761,29,Female,English,2024-07-01_15h15.09.753,ABmemTask3,2023.2.3,MacIntel,58.82352941,,,,,,,,,,,,,,,,,,,,,,,,,,,,,,,407.381,408.38,408.38,7,408.88,410.397,0.001,410.514,0.116,0.117,0.116,0.117,0.117,0.116,0.117,0.117,0.117,0.116,0.117,410.514,410.98,right,0.454,,410.98,411.249,right,0.261,,36,0,66,411.249,412.247,,,,,,1_AB,L5_T1P_T2A,5,1,0,6,11,5,3,14,Kiwi,Did you see the Kiwi,0.12,0,resources/,pics/candleholder01.jpg,pics/kangaroo.jpg,pics/banjo.jpg,pics/binoculars01b.jpg,pics/microscope.jpg,pics/kiwi03.jpg,pics/bowtie.jpg,pics/peanut01.jpg,pics/backpack01a.jpg,pics/zebra.jpg,pics/toiletpaper01a.jpg,pics/hen.jpg,pics/spoon01.jpg,pics/calendar.jpg,blankImage,blankImage,blankImage,kiwi03,59,0.116,0.117,,,,,,,,,,,,,,,,,,,,,,,,,,,,,,,,,,,,,,,,0,32,32,58,1,,,,,,,,,,,,,,,,,,,,,,,,,,,,,,,,,,,,,,,,,,,,,,,,,,,,,,
,,,,,5f44ee515cff5c02f09c17be,6682b41eeb79ab8215dff63d,6682b9a9f4182cad72f96761,29,Female,English,2024-07-01_15h15.09.753,ABmemTask3,2023.2.3,MacIntel,58.82352941,,,,,,,,,,,,,,,,,,,,,,,,,,,,,,,412.247,413.247,413.247,7,413.747,414.914,0.002,415.03,0.115,0.117,0.116,0.117,0.117,0.116,0.117,0.117,0.117,0.116,,415.03,415.447,right,0.404,,415.447,415.647,right,0.192,,38,0,68,415.647,416.647,,,,,,1_AB,L1_T1P_T2P,1,1,1,7,8,6,3,11,sock,Did you see the sock,0.12,0,resources/,pics/hen.jpg,pics/christmaslights.jpg,pics/salmon.jpg,pics/sealion.jpg,pics/seaturtle.jpg,pics/giraffe.jpg,pics/athleticsock.jpg,pics/stapler01.jpg,pics/shovel01.jpg,pics/leaf02a.jpg,pics/backpack01a.jpg,blankImage,blankImage,blankImage,blankImage,blankImage,blankImage,athleticsock,11,,,,,,,,,,,,,,,,,,,,,,,,,,,,,,,,,,,,,,,,,,0,33,33,10,1,,,,,,,,,,,,,,,,,,,,,,,,,,,,,,,,,,,,,,,,,,,,,,,,,,,,,,
,,,,,5f44ee515cff5c02f09c17be,6682b41eeb79ab8215dff63d,6682b9a9f4182cad72f96761,29,Female,English,2024-07-01_15h15.09.753,ABmemTask3,2023.2.3,MacIntel,58.82352941,,,,,,,,,,,,,,,,,,,,,,,,,,,,,,,416.648,417.647,417.647,7,418.147,419.663,0.001,419.78,0.116,0.116,0.116,0.118,0.117,0.116,0.117,0.117,0.116,0.117,0.117,419.78,420.063,right,0.272,,420.063,420.296,right,0.223,,40,0,70,420.297,421.297,,,,,,1_AB,L5_T1P_T2P,5,1,1,6,11,5,3,14,truck,Did you see the truck,0.12,0,resources/,pics/calendar.jpg,pics/mummy.jpg,pics/ashtray01.jpg,pics/pencilsharpener02a.jpg,pics/dustpan.jpg,pics/boxtruck.jpg,pics/lightswitch01.jpg,pics/pictureframe04.jpg,pics/starfish01.jpg,pics/zebra.jpg,pics/stapler12.jpg,pics/bowtie.jpg,pics/candleholder01.jpg,pics/candle01.jpg,blankImage,blankImage,blankImage,boxtruck,50,0.117,0.116,,,,,,,,,,,,,,,,,,,,,,,,,,,,,,,,,,,,,,,,0,34,34,49,1,,,,,,,,,,,,,,,,,,,,,,,,,,,,,,,,,,,,,,,,,,,,,,,,,,,,,,
,,,,,5f44ee515cff5c02f09c17be,6682b41eeb79ab8215dff63d,6682b9a9f4182cad72f96761,29,Female,English,2024-07-01_15h15.09.753,ABmemTask3,2023.2.3,MacIntel,58.82352941,,,,,,,,,,,,,,,,,,,,,,,,,,,,,,,421.298,422.297,422.297,7,422.797,424.197,0.002,424.314,0.115,0.117,0.117,0.116,0.117,0.117,0.116,0.117,0.117,0.116,0.116,424.314,424.93,left,0.598,,424.93,425.147,left,0.202,,42,0,72,425.147,426.147,,,,,,1_AB,L1_T1A_T2A,1,0,0,7,8,6,5,13,fan,Did you see the fan,0.12,0,resources/,pics/leaf02a.jpg,pics/dustpan.jpg,pics/pencil01.jpg,pics/kangaroo.jpg,pics/golfball.jpg,pics/lightswitch01.jpg,pics/nutcracker01.jpg,pics/calendar.jpg,pics/hose.jpg,pics/starfish01.jpg,pics/siamesecat.jpg,pics/bowlingpin.jpg,pics/necklace.jpg,blankImage,blankImage,blankImage,blankImage,fan,42,0.118,,,,,,,,,,,,,,,,,,,,,,,,,,,,,,,,,,,,,,,,,0,35,35,41,1,,,,,,,,,,,,,,,,,,,,,,,,,,,,,,,,,,,,,,,,,,,,,,,,,,,,,,
,,,,,5f44ee515cff5c02f09c17be,6682b41eeb79ab8215dff63d,6682b9a9f4182cad72f96761,29,Female,English,2024-07-01_15h15.09.753,ABmemTask3,2023.2.3,MacIntel,58.82352941,,,,,,,,,,,,,,,,,,,,,,,,,,,,,,,426.147,427.147,427.147,7,427.647,429.163,0.001,429.281,0.117,0.116,0.116,0.118,0.116,0.117,0.116,0.117,0.117,0.116,0.117,429.281,430.014,left,0.713,,430.014,430.197,right,0.175,,38,0,74,430.197,431.197,,,,,,1_AB,L5_T1P_T2A,5,1,0,4,9,3,5,14,Frisbee,Did you see the Frisbee,0.12,0,resources/,pics/giraffe.jpg,pics/christmaslights.jpg,pics/bowtie.jpg,pics/frisbee.jpg,pics/banjo.jpg,pics/calendar.jpg,pics/butterfly.jpg,pics/onion.jpg,pics/starfish01.jpg,pics/footballhelmet.jpg,pics/blender.jpg,pics/candleholder01.jpg,pics/hairdryer02a.jpg,pics/dromedary.jpg,blankImage,blankImage,blankImage,frisbee,58,0.117,0.116,,,,,,,,,,,,,,,,,,,,,,,,,,,,,,,,,,,,,,,,0,36,36,57,1,,,,,,,,,,,,,,,,,,,,,,,,,,,,,,,,,,,,,,,,,,,,,,,,,,,,,,
,,,,,5f44ee515cff5c02f09c17be,6682b41eeb79ab8215dff63d,6682b9a9f4182cad72f96761,29,Female,English,2024-07-01_15h15.09.753,ABmemTask3,2023.2.3,MacIntel,58.82352941,,,,,,,,,,,,,,,,,,,,,,,,,,,,,,,431.198,432.197,432.197,7,432.697,433.63,0.002,433.747,0.116,0.116,0.117,0.116,0.117,0.117,0.117,0.115,,,,433.748,434.497,left,0.731,,434.497,434.815,right,0.309,,40,0,76,434.815,435.813,,,,,,1_AB,L1_T1A_T2P,1,0,1,5,6,4,3,9,Trailer,Did you see the Trailer,0.12,0,resources/,pics/pencil01.jpg,pics/football.jpg,pics/hairdryer02a.jpg,pics/wheel01.jpg,pics/chainsaw.jpg,pics/stapler10.jpg,pics/peanut01.jpg,pics/triangle.jpg,pics/sink.jpg,blankImage,blankImage,blankImage,blankImage,blankImage,blankImage,blankImage,blankImage,boxtrailer,29,,,,,,,,,,,,,,,,,,,,,,,,,,,,,,,,,,,,,,,,,,0,37,37,28,1,,,,,,,,,,,,,,,,,,,,,,,,,,,,,,,,,,,,,,,,,,,,,,,,,,,,,,
,,,,,5f44ee515cff5c02f09c17be,6682b41eeb79ab8215dff63d,6682b9a9f4182cad72f96761,29,Female,English,2024-07-01_15h15.09.753,ABmemTask3,2023.2.3,MacIntel,58.82352941,,,,,,,,,,,,,,,,,,,,,,,,,,,,,,,435.814,436.814,436.814,7,437.314,438.364,0.002,438.481,0.116,0.116,0.117,0.116,0.117,0.116,0.118,0.115,0.118,,,438.481,439.381,left,0.886,,439.381,439.614,right,0.219,,42,0,78,439.614,440.614,,,,,,1_AB,L1_T1A_T2P,1,0,1,5,6,4,4,10,button,Did you see the button,0.12,0,resources/,pics/pencil01.jpg,pics/necklace.jpg,pics/sink.jpg,pics/noparkingsign.jpg,pics/banjo.jpg,pics/stapler03b.jpg,pics/candle01.jpg,pics/icecube01.jpg,pics/shovel01.jpg,pics/pencilsharpener02a.jpg,blankImage,blankImage,blankImage,blankImage,blankImage,blankImage,blankImage,button01,25,,,,,,,,,,,,,,,,,,,,,,,,,,,,,,,,,,,,,,,,,,0,38,38,24,1,,,,,,,,,,,,,,,,,,,,,,,,,,,,,,,,,,,,,,,,,,,,,,,,,,,,,,
,,,,,5f44ee515cff5c02f09c17be,6682b41eeb79ab8215dff63d,6682b9a9f4182cad72f96761,29,Female,English,2024-07-01_15h15.09.753,ABmemTask3,2023.2.3,MacIntel,58.82352941,,,,,,,,,,,,,,,,,,,,,,,,,,,,,,,440.615,441.614,441.614,7,442.114,443.048,0.002,443.164,0.116,0.116,0.117,0.117,0.116,0.117,0.117,0.116,,,,443.165,443.664,right,0.485,,443.664,443.931,right,0.251,,44,0,80,443.931,444.931,,,,,,1_AB,L1_T1P_T2P,1,1,1,5,6,4,3,9,cabbage,Did you see the cabbage,0.12,0,resources/,pics/match.jpg,pics/icecube01.jpg,pics/noparkingsign.jpg,pics/christmaslights.jpg,pics/cabbage.jpg,pics/stapler03a.jpg,pics/carrot01.jpg,pics/dustpan.jpg,pics/cannon.jpg,blankImage,blankImage,blankImage,blankImage,blankImage,blankImage,blankImage,blankImage,cabbage,14,,,,,,,,,,,,,,,,,,,,,,,,,,,,,,,,,,,,,,,,,,0,39,39,13,1,,,,,,,,,,,,,,,,,,,,,,,,,,,,,,,,,,,,,,,,,,,,,,,,,,,,,,
,,,,,5f44ee515cff5c02f09c17be,6682b41eeb79ab8215dff63d,6682b9a9f4182cad72f96761,29,Female,English,2024-07-01_15h15.09.753,ABmemTask3,2023.2.3,MacIntel,58.82352941,,,,,,,,,,,,,,,,,,,,,,,,,,,,,,,444.932,445.931,445.931,7,446.431,447.598,0.001,447.714,0.116,0.117,0.117,0.116,0.117,0.116,0.118,0.116,0.117,0.116,,447.714,448.098,right,0.365,,448.098,448.298,right,0.19,,46,0,82,448.298,449.298,,,,,,1_AB,L1_T1P_T2P,1,1,1,7,8,6,3,11,pliers,Did you see the pliers,0.12,0,resources/,pics/mummy.jpg,pics/binder03b.jpg,pics/bowtie.jpg,pics/toiletpaper01a.jpg,pics/football.jpg,pics/blender.jpg,pics/needlenosepliers01.jpg,pics/stapler13.jpg,pics/zebra.jpg,pics/hammerheadshark.jpg,pics/sealion.jpg,blankImage,blankImage,blankImage,blankImage,blankImage,blankImage,needlenosepliers01,6,,,,,,,,,,,,,,,,,,,,,,,,,,,,,,,,,,,,,,,,,,0,40,40,5,1,,,,,,,,,,,,,,,,,,,,,,,,,,,,,,,,,,,,,,,,,,,,,,,,,,,,,,
,,,,,5f44ee515cff5c02f09c17be,6682b41eeb79ab8215dff63d,6682b9a9f4182cad72f96761,29,Female,English,2024-07-01_15h15.09.753,ABmemTask3,2023.2.3,MacIntel,58.82352941,,,,,,,,,,,,,,,,,,,,,,,,,,,,,,,449.298,450.298,450.298,7,450.797,452.548,0.002,452.665,0.115,0.118,0.116,0.117,0.117,0.116,0.117,0.117,0.116,0.117,0.117,452.665,453.464,right,0.784,,453.465,453.716,left,0.243,,48,0,84,453.716,454.715,,,,,,1_AB,L5_T1P_T2A,5,1,0,7,12,6,4,16,boat,Did you see the boat,0.12,0,resources/,pics/butterfly.jpg,pics/onion.jpg,pics/hose.jpg,pics/ball02.jpg,pics/ashtray01.jpg,pics/bowtie.jpg,pics/boat.jpg,pics/seaturtle.jpg,pics/blender.jpg,pics/zebra.jpg,pics/pictureframe04.jpg,pics/shovel01.jpg,pics/spoon01.jpg,pics/peanut01.jpg,pics/nutcracker01.jpg,pics/aquarium.jpg,blankImage,boat,60,0.117,0.116,0.117,,,,,,,,,,,,,,,,,,,,,,,,,,,,,,,,,,,,,,0.116,0,41,41,59,1,,,,,,,,,,,,,,,,,,,,,,,,,,,,,,,,,,,,,,,,,,,,,,,,,,,,,,
,,,,,5f44ee515cff5c02f09c17be,6682b41eeb79ab8215dff63d,6682b9a9f4182cad72f96761,29,Female,English,2024-07-01_15h15.09.753,ABmemTask3,2023.2.3,MacIntel,58.82352941,,,,,,,,,,,,,,,,,,,,,,,,,,,,,,,454.715,455.715,455.715,7,456.214,457.732,0.001,457.848,0.117,0.116,0.117,0.117,0.117,0.116,0.117,0.117,0.116,0.117,0.117,457.848,458.215,right,0.355,,458.215,458.449,right,0.218,,50,0,86,458.449,459.448,,,,,,1_AB,L5_T1P_T2P,5,1,1,5,10,4,4,14,Fox,Did you see the Fox,0.12,0,resources/,pics/hammerheadshark.jpg,pics/bowlingpin.jpg,pics/pictureframe04.jpg,pics/peanut01.jpg,pics/redfox.jpg,pics/cymbal.jpg,pics/spoon01.jpg,pics/banjo.jpg,pics/butterfly.jpg,pics/stapler11.jpg,pics/football.jpg,pics/safetypin.jpg,pics/triangle.jpg,pics/onion.jpg,blankImage,blankImage,blankImage,redfox,45,0.116,0.117,,,,,,,,,,,,,,,,,,,,,,,,,,,,,,,,,,,,,,,,0,42,42,44,1,,,,,,,,,,,,,,,,,,,,,,,,,,,,,,,,,,,,,,,,,,,,,,,,,,,,,,
,,,,,5f44ee515cff5c02f09c17be,6682b41eeb79ab8215dff63d,6682b9a9f4182cad72f96761,29,Female,English,2024-07-01_15h15.09.753,ABmemTask3,2023.2.3,MacIntel,58.82352941,,,,,,,,,,,,,,,,,,,,,,,,,,,,,,,459.449,460.447,460.448,7,460.948,462.115,0.002,462.232,0.116,0.116,0.117,0.116,0.117,0.116,0.117,0.117,0.117,0.116,,462.232,462.948,left,0.696,,462.948,463.164,right,0.201,,52,0,88,463.165,464.165,,,,,,1_AB,L1_T1A_T2P,1,0,1,7,8,6,3,11,turkey,Did you see the turkey,0.12,0,resources/,pics/proboscismonkey.jpg,pics/blender.jpg,pics/sealion.jpg,pics/snowshoe.jpg,pics/carrot01.jpg,pics/microscope.jpg,pics/piggybank.jpg,pics/stapler12.jpg,pics/peanut01.jpg,pics/dustpan.jpg,pics/footballhelmet.jpg,blankImage,blankImage,blankImage,blankImage,blankImage,blankImage,turkey,26,,,,,,,,,,,,,,,,,,,,,,,,,,,,,,,,,,,,,,,,,,0,43,43,25,1,,,,,,,,,,,,,,,,,,,,,,,,,,,,,,,,,,,,,,,,,,,,,,,,,,,,,,
,,,,,5f44ee515cff5c02f09c17be,6682b41eeb79ab8215dff63d,6682b9a9f4182cad72f96761,29,Female,English,2024-07-01_15h15.09.753,ABmemTask3,2023.2.3,MacIntel,58.82352941,,,,,,,,,,,,,,,,,,,,,,,,,,,,,,,464.166,465.165,465.165,7,465.665,466.832,0.001,466.948,0.116,0.117,0.117,0.116,0.117,0.117,0.116,0.117,0.117,0.116,,466.948,467.914,right,0.948,,467.914,468.132,left,0.203,,54,0,90,468.132,469.132,,,,,,1_AB,L1_T1P_T2A,1,1,0,7,8,6,3,11,eggplant,Did you see the eggplant,0.12,0,resources/,pics/salmon.jpg,pics/fanblades.jpg,pics/hammerheadshark.jpg,pics/wheel01.jpg,pics/snowshoe.jpg,pics/birdhouse.jpg,pics/eggplant.jpg,pics/spiderweb.jpg,pics/zebra.jpg,pics/pencilsharpener02a.jpg,pics/backpack01a.jpg,blankImage,blankImage,blankImage,blankImage,blankImage,blankImage,eggplant,32,,,,,,,,,,,,,,,,,,,,,,,,,,,,,,,,,,,,,,,,,,0,44,44,31,1,,,,,,,,,,,,,,,,,,,,,,,,,,,,,,,,,,,,,,,,,,,,,,,,,,,,,,
,,,,,5f44ee515cff5c02f09c17be,6682b41eeb79ab8215dff63d,6682b9a9f4182cad72f96761,29,Female,English,2024-07-01_15h15.09.753,ABmemTask3,2023.2.3,MacIntel,58.82352941,,,,,,,,,,,,,,,,,,,,,,,,,,,,,,,469.132,470.132,470.132,7,470.632,472.266,0.002,472.382,0.115,0.117,0.117,0.116,0.117,0.117,0.116,0.117,0.117,0.116,0.117,472.382,472.498,right,0.097,,472.498,472.815,right,0.301,,56,0,92,472.815,473.815,,,,,,1_AB,L5_T1P_T2P,5,1,1,5,10,4,5,15,dolphin,Did you see the dolphin,0.12,0,resources/,pics/banjo.jpg,pics/shipinabottle.jpg,pics/laptop01a.jpg,pics/onion.jpg,pics/dolphin01.jpg,pics/sink.jpg,pics/seaturtle.jpg,pics/butterfly.jpg,pics/hen.jpg,pics/stapler10.jpg,pics/proboscismonkey.jpg,pics/starfish01.jpg,pics/salmon.jpg,pics/spiderweb.jpg,pics/cymbal.jpg,blankImage,blankImage,dolphin01,49,0.116,0.117,0.117,,,,,,,,,,,,,,,,,,,,,,,,,,,,,,,,,,,,,,,0,45,45,48,1,,,,,,,,,,,,,,,,,,,,,,,,,,,,,,,,,,,,,,,,,,,,,,,,,,,,,,
,,,,,5f44ee515cff5c02f09c17be,6682b41eeb79ab8215dff63d,6682b9a9f4182cad72f96761,29,Female,English,2024-07-01_15h15.09.753,ABmemTask3,2023.2.3,MacIntel,58.82352941,,,,,,,,,,,,,,,,,,,,,,,,,,,,,,,473.816,474.815,474.815,7,475.315,476.482,0.002,476.599,0.116,0.116,0.117,0.116,0.117,0.117,0.117,0.116,0.117,0.117,,476.599,477.515,right,0.898,,477.515,477.766,left,0.242,,58,0,94,477.766,478.765,,,,,,1_AB,L1_T1P_T2A,1,1,0,7,8,6,3,11,Spear,Did you see the Spear,0.12,0,resources/,pics/butterfly.jpg,pics/banjo.jpg,pics/chainsaw.jpg,pics/christmaslights.jpg,pics/dustpan.jpg,pics/shovel01.jpg,pics/spear02.jpg,pics/table01.jpg,pics/starfish01.jpg,pics/bowlingpin.jpg,pics/carrot01.jpg,blankImage,blankImage,blankImage,blankImage,blankImage,blankImage,spear02,39,,,,,,,,,,,,,,,,,,,,,,,,,,,,,,,,,,,,,,,,,,0,46,46,38,1,,,,,,,,,,,,,,,,,,,,,,,,,,,,,,,,,,,,,,,,,,,,,,,,,,,,,,
,,,,,5f44ee515cff5c02f09c17be,6682b41eeb79ab8215dff63d,6682b9a9f4182cad72f96761,29,Female,English,2024-07-01_15h15.09.753,ABmemTask3,2023.2.3,MacIntel,58.82352941,,,,,,,,,,,,,,,,,,,,,,,,,,,,,,,478.766,479.765,479.766,7,480.265,481.316,0.002,481.432,0.116,0.116,0.117,0.117,0.116,0.117,0.117,0.116,0.117,,,481.432,482.465,left,1.018,,482.465,482.699,right,0.219,,60,0,96,482.699,483.699,,,,,,1_AB,L1_T1A_T2P,1,0,1,5,6,4,4,10,Rabbit,Did you see the Rabbit,0.12,0,resources/,pics/cannon.jpg,pics/proboscismonkey.jpg,pics/salmon.jpg,pics/nutcracker01.jpg,pics/seagull.jpg,pics/stapler02.jpg,pics/table01.jpg,pics/laptop01a.jpg,pics/necklace.jpg,pics/pencilsharpener02a.jpg,blankImage,blankImage,blankImage,blankImage,blankImage,blankImage,blankImage,jackrabbit,31,,,,,,,,,,,,,,,,,,,,,,,,,,,,,,,,,,,,,,,,,,0,47,47,30,1,,,,,,,,,,,,,,,,,,,,,,,,,,,,,,,,,,,,,,,,,,,,,,,,,,,,,,
,,,,,5f44ee515cff5c02f09c17be,6682b41eeb79ab8215dff63d,6682b9a9f4182cad72f96761,29,Female,English,2024-07-01_15h15.09.753,ABmemTask3,2023.2.3,MacIntel,58.82352941,,,,,,,,,,,,,,,,,,,,,,,,,,,,,,,483.7,484.699,484.699,7,485.199,486.249,0.001,486.366,0.116,0.117,0.117,0.116,0.117,0.117,0.116,0.117,0.117,,,486.366,487.382,right,0.996,,487.382,487.665,left,0.268,,62,0,98,487.665,488.666,,,,,,1_AB,L1_T1P_T2A,1,1,0,6,7,5,3,10,Duct tape,Did you see the Duct tape,0.12,0,resources/,pics/butterfly.jpg,pics/noparkingsign.jpg,pics/pictureframe04.jpg,pics/cork02.jpg,pics/fanblades.jpg,pics/ducttape.jpg,pics/icecube01.jpg,pics/siamesecat.jpg,pics/sink.jpg,pics/sandbarshark.jpg,blankImage,blankImage,blankImage,blankImage,blankImage,blankImage,blankImage,ducttape,36,,,,,,,,,,,,,,,,,,,,,,,,,,,,,,,,,,,,,,,,,,0,48,48,35,1,,,,,,,,,,,,,,,,,,,,,,,,,,,,,,,,,,,,,,,,,,,,,,,,,,,,,,
,,,,,5f44ee515cff5c02f09c17be,6682b41eeb79ab8215dff63d,6682b9a9f4182cad72f96761,29,Female,English,2024-07-01_15h15.09.753,ABmemTask3,2023.2.3,MacIntel,58.82352941,,,,,,,,,,,,,,,,,,,,,,,,,,,,,,,488.666,489.666,489.666,7,490.166,491.333,0.001,491.449,0.116,0.117,0.116,0.116,0.118,0.116,0.117,0.117,0.116,0.117,,491.449,491.982,right,0.519,,491.982,492.165,right,0.175,,64,0,100,492.165,493.166,,,,,,1_AB,L1_T1P_T2P,1,1,1,7,8,6,3,11,toothpick,Did you see the toothpick,0.12,0,resources/,pics/candleholder01.jpg,pics/blender.jpg,pics/siamesecat.jpg,pics/peanut01.jpg,pics/spiderweb.jpg,pics/football.jpg,pics/toothpick02.jpg,pics/stapler04b.jpg,pics/seagull.jpg,pics/pictureframe04.jpg,pics/shipinabottle.jpg,blankImage,blankImage,blankImage,blankImage,blankImage,blankImage,toothpick02,17,,,,,,,,,,,,,,,,,,,,,,,,,,,,,,,,,,,,,,,,,,0,49,49,16,1,,,,,,,,,,,,,,,,,,,,,,,,,,,,,,,,,,,,,,,,,,,,,,,,,,,,,,
,,,,,5f44ee515cff5c02f09c17be,6682b41eeb79ab8215dff63d,6682b9a9f4182cad72f96761,29,Female,English,2024-07-01_15h15.09.753,ABmemTask3,2023.2.3,MacIntel,58.82352941,,,,,,,,,,,,,,,,,,,,,,,,,,,,,,,493.166,494.166,494.166,7,494.666,496.066,0.001,496.183,0.116,0.117,0.116,0.117,0.116,0.117,0.117,0.117,0.116,0.117,0.117,496.183,496.999,left,0.802,,496.999,497.217,right,0.211,,66,0,102,497.217,498.216,,,,,,1_AB,L1_T1A_T2P,1,0,1,7,8,6,5,13,statue,Did you see the statue,0.12,0,resources/,pics/giraffe.jpg,pics/seaturtle.jpg,pics/peach01.jpg,pics/boot02b.jpg,pics/backpack01a.jpg,pics/sandbarshark.jpg,pics/microscope.jpg,pics/stapler07.jpg,pics/snowshoe.jpg,pics/laptop01a.jpg,pics/necklace.jpg,pics/zebra.jpg,pics/carrot01.jpg,blankImage,blankImage,blankImage,blankImage,statue,27,0.117,,,,,,,,,,,,,,,,,,,,,,,,,,,,,,,,,,,,,,,,,0,50,50,26,1,,,,,,,,,,,,,,,,,,,,,,,,,,,,,,,,,,,,,,,,,,,,,,,,,,,,,,
,,,,,5f44ee515cff5c02f09c17be,6682b41eeb79ab8215dff63d,6682b9a9f4182cad72f96761,29,Female,English,2024-07-01_15h15.09.753,ABmemTask3,2023.2.3,MacIntel,58.82352941,,,,,,,,,,,,,,,,,,,,,,,,,,,,,,,498.217,499.216,499.216,7,499.716,500.883,0.001,500.999,0.116,0.117,0.117,0.116,0.117,0.117,0.116,0.116,0.118,0.116,,501,501.483,right,0.464,,501.483,501.666,right,0.169,,68,0,104,501.666,502.666,,,,,,1_AB,L1_T1P_T2P,1,1,1,7,8,6,3,11,medal,Did you see the medal,0.12,0,resources/,pics/hen.jpg,pics/starfish01.jpg,pics/nutcracker01.jpg,pics/ball02.jpg,pics/fanblades.jpg,pics/christmaslights.jpg,pics/medal02b.jpg,pics/stapler09.jpg,pics/carrot01.jpg,pics/hammerheadshark.jpg,pics/sailboat.jpg,blankImage,blankImage,blankImage,blankImage,blankImage,blankImage,medal02b,19,,,,,,,,,,,,,,,,,,,,,,,,,,,,,,,,,,,,,,,,,,0,51,51,18,1,,,,,,,,,,,,,,,,,,,,,,,,,,,,,,,,,,,,,,,,,,,,,,,,,,,,,,
,,,,,5f44ee515cff5c02f09c17be,6682b41eeb79ab8215dff63d,6682b9a9f4182cad72f96761,29,Female,English,2024-07-01_15h15.09.753,ABmemTask3,2023.2.3,MacIntel,58.82352941,,,,,,,,,,,,,,,,,,,,,,,,,,,,,,,502.667,503.666,503.666,7,504.166,505.683,0.002,505.8,0.115,0.117,0.117,0.116,0.117,0.116,0.117,0.117,0.117,0.117,0.116,505.8,506.199,right,0.38,,506.199,506.399,right,0.185,,70,0,106,506.399,507.4,,,,,,1_AB,L5_T1P_T2P,5,1,1,6,11,5,3,14,mail box,Did you see the mail box,0.12,0,resources/,pics/pictureframe04.jpg,pics/seaturtle.jpg,pics/blender.jpg,pics/carrot01.jpg,pics/nutcracker01.jpg,pics/mailbox02.jpg,pics/seagull.jpg,pics/sink.jpg,pics/siamesecat.jpg,pics/spiderweb.jpg,pics/stapler08.jpg,pics/safetypin.jpg,pics/candle01.jpg,pics/mummy.jpg,blankImage,blankImage,blankImage,mailbox02,43,0.117,0.116,,,,,,,,,,,,,,,,,,,,,,,,,,,,,,,,,,,,,,,,0,52,52,42,1,,,,,,,,,,,,,,,,,,,,,,,,,,,,,,,,,,,,,,,,,,,,,,,,,,,,,,
,,,,,5f44ee515cff5c02f09c17be,6682b41eeb79ab8215dff63d,6682b9a9f4182cad72f96761,29,Female,English,2024-07-01_15h15.09.753,ABmemTask3,2023.2.3,MacIntel,58.82352941,,,,,,,,,,,,,,,,,,,,,,,,,,,,,,,507.4,508.4,508.4,7,508.899,510.3,0.001,510.416,0.117,0.117,0.116,0.117,0.117,0.116,0.117,0.116,0.117,0.117,0.117,510.417,511.249,left,0.814,,511.249,511.433,right,0.167,,70,0,108,511.433,512.433,,,,,,1_AB,L1_T1P_T2P,1,1,1,7,8,6,5,13,Totem Pole,Did you see the Totem Pole,0.12,0,resources/,pics/laptop01a.jpg,pics/carrot01.jpg,pics/wheel01.jpg,pics/icecube01.jpg,pics/ashtray01.jpg,pics/lock03a.jpg,pics/totempole.jpg,pics/stapler08.jpg,pics/golfball.jpg,pics/pencil01.jpg,pics/banjo.jpg,pics/sandbarshark.jpg,pics/shipinabottle.jpg,blankImage,blankImage,blankImage,blankImage,totempole,22,0.116,,,,,,,,,,,,,,,,,,,,,,,,,,,,,,,,,,,,,,,,,0,53,53,21,1,,,,,,,,,,,,,,,,,,,,,,,,,,,,,,,,,,,,,,,,,,,,,,,,,,,,,,
,,,,,5f44ee515cff5c02f09c17be,6682b41eeb79ab8215dff63d,6682b9a9f4182cad72f96761,29,Female,English,2024-07-01_15h15.09.753,ABmemTask3,2023.2.3,MacIntel,58.82352941,,,,,,,,,,,,,,,,,,,,,,,,,,,,,,,512.434,513.433,513.433,7,513.933,515.333,0.001,515.45,0.116,0.117,0.116,0.118,0.115,0.118,0.116,0.117,0.116,0.117,0.117,515.45,515.833,right,0.365,,515.833,516.033,right,0.185,,72,0,110,516.033,517.033,,,,,,1_AB,L5_T1P_T2P,5,1,1,4,9,3,4,13,Forklift,Did you see the Forklift,0.12,0,resources/,pics/dustpan.jpg,pics/table01.jpg,pics/sink.jpg,pics/forklift.jpg,pics/dromedary.jpg,pics/proboscismonkey.jpg,pics/cymbal.jpg,pics/shovel01.jpg,pics/stapler10.jpg,pics/backpack01a.jpg,pics/binder03b.jpg,pics/banjo.jpg,pics/candleholder01.jpg,blankImage,blankImage,blankImage,blankImage,forklift,47,0.116,,,,,,,,,,,,,,,,,,,,,,,,,,,,,,,,,,,,,,,,,0,54,54,46,1,,,,,,,,,,,,,,,,,,,,,,,,,,,,,,,,,,,,,,,,,,,,,,,,,,,,,,
,,,,,5f44ee515cff5c02f09c17be,6682b41eeb79ab8215dff63d,6682b9a9f4182cad72f96761,29,Female,English,2024-07-01_15h15.09.753,ABmemTask3,2023.2.3,MacIntel,58.82352941,,,,,,,,,,,,,,,,,,,,,,,,,,,,,,,517.034,518.033,518.033,7,518.533,519.584,0.001,519.699,0.116,0.117,0.117,0.117,0.116,0.117,0.116,0.117,0.117,,,519.699,520.1,right,0.38,,520.1,520.317,right,0.203,,74,0,112,520.317,521.317,,,,,,1_AB,L1_T1P_T2P,1,1,1,4,5,3,5,10,flute,Did you see the flute,0.12,0,resources/,pics/peach01.jpg,pics/seaturtle.jpg,pics/dromedary.jpg,pics/recorder01.jpg,pics/stapler08.jpg,pics/giraffe.jpg,pics/blender.jpg,pics/necklace.jpg,pics/sink.jpg,pics/dustpan.jpg,blankImage,blankImage,blankImage,blankImage,blankImage,blankImage,blankImage,recorder01,7,,,,,,,,,,,,,,,,,,,,,,,,,,,,,,,,,,,,,,,,,,0,55,55,6,1,,,,,,,,,,,,,,,,,,,,,,,,,,,,,,,,,,,,,,,,,,,,,,,,,,,,,,
,,,,,5f44ee515cff5c02f09c17be,6682b41eeb79ab8215dff63d,6682b9a9f4182cad72f96761,29,Female,English,2024-07-01_15h15.09.753,ABmemTask3,2023.2.3,MacIntel,58.82352941,,,,,,,,,,,,,,,,,,,,,,,,,,,,,,,521.317,522.317,522.317,7,522.817,524.1,0.001,524.217,0.116,0.117,0.116,0.117,0.116,0.117,0.117,0.116,0.117,0.117,0.117,524.217,524.636,right,0.407,,524.636,524.867,right,0.218,,76,0,114,524.867,525.867,,,,,,1_AB,L1_T1P_T2P,1,1,1,6,7,5,5,12,jeep,Did you see the jeep,0.12,0,resources/,pics/sandbarshark.jpg,pics/laptop01a.jpg,pics/peach01.jpg,pics/binoculars01b.jpg,pics/giraffe.jpg,pics/jeep.jpg,pics/stapler03b.jpg,pics/fanblades.jpg,pics/cannon.jpg,pics/starfish01.jpg,pics/piggybank.jpg,pics/noparkingsign.jpg,blankImage,blankImage,blankImage,blankImage,blankImage,jeep,2,,,,,,,,,,,,,,,,,,,,,,,,,,,,,,,,,,,,,,,,,,0,56,56,1,1,,,,,,,,,,,,,,,,,,,,,,,,,,,,,,,,,,,,,,,,,,,,,,,,,,,,,,
,,,,,5f44ee515cff5c02f09c17be,6682b41eeb79ab8215dff63d,6682b9a9f4182cad72f96761,29,Female,English,2024-07-01_15h15.09.753,ABmemTask3,2023.2.3,MacIntel,58.82352941,,,,,,,,,,,,,,,,,,,,,,,,,,,,,,,525.867,526.867,526.867,7,527.367,528.301,0.001,528.417,0.116,0.117,0.116,0.117,0.116,0.118,0.116,0.117,,,,528.417,529.218,right,0.788,,529.218,529.516,left,0.284,,74,0,116,529.517,530.517,,,,,,1_AB,L1_T1A_T2A,1,0,0,4,5,3,4,9,License Plate,Did you see the License Plate,0.12,0,resources/,pics/snowshoe.jpg,pics/kangaroo.jpg,pics/noparkingsign.jpg,pics/match.jpg,pics/hose.jpg,pics/blender.jpg,pics/ashtray01.jpg,pics/ball02.jpg,pics/sink.jpg,blankImage,blankImage,blankImage,blankImage,blankImage,blankImage,blankImage,blankImage,licenseplate,40,,,,,,,,,,,,,,,,,,,,,,,,,,,,,,,,,,,,,,,,,,0,57,57,39,1,,,,,,,,,,,,,,,,,,,,,,,,,,,,,,,,,,,,,,,,,,,,,,,,,,,,,,
,,,,,5f44ee515cff5c02f09c17be,6682b41eeb79ab8215dff63d,6682b9a9f4182cad72f96761,29,Female,English,2024-07-01_15h15.09.753,ABmemTask3,2023.2.3,MacIntel,58.82352941,,,,,,,,,,,,,,,,,,,,,,,,,,,,,,,530.518,531.516,531.516,7,532.017,533.301,0.002,533.417,0.115,0.117,0.117,0.116,0.117,0.117,0.116,0.117,0.117,0.116,0.117,533.417,534.149,left,0.715,,534.15,534.367,right,0.202,,76,0,118,534.367,535.367,,,,,,1_AB,L5_T1A_T2P,5,0,1,4,9,3,3,12,rooster,Did you see the rooster,0.12,0,resources/,pics/table01.jpg,pics/icecube01.jpg,pics/dustpan.jpg,pics/lock03a.jpg,pics/sailboat.jpg,pics/salmon.jpg,pics/banjo.jpg,pics/zebra.jpg,pics/stapler09.jpg,pics/peach01.jpg,pics/chainsaw.jpg,pics/football.jpg,blankImage,blankImage,blankImage,blankImage,blankImage,rooster,55,,,,,,,,,,,,,,,,,,,,,,,,,,,,,,,,,,,,,,,,,,0,58,58,54,1,,,,,,,,,,,,,,,,,,,,,,,,,,,,,,,,,,,,,,,,,,,,,,,,,,,,,,
,,,,,5f44ee515cff5c02f09c17be,6682b41eeb79ab8215dff63d,6682b9a9f4182cad72f96761,29,Female,English,2024-07-01_15h15.09.753,ABmemTask3,2023.2.3,MacIntel,58.82352941,,,,,,,,,,,,,,,,,,,,,,,,,,,,,,,535.368,536.367,536.367,7,536.867,537.683,0.002,537.801,0.115,0.117,0.117,0.116,0.117,0.117,0.116,,,,,537.801,538.55,left,0.731,,538.55,538.734,right,0.168,,78,0,120,538.734,539.734,,,,,,1_AB,L1_T1A_T2P,1,0,1,4,5,3,3,8,Parking meter,Did you see the Parking meter,0.12,0,resources/,pics/leaf02a.jpg,pics/carrot01.jpg,pics/sink.jpg,pics/butterfly.jpg,pics/stapler10.jpg,pics/pictureframe04.jpg,pics/spiderweb.jpg,pics/icecube01.jpg,blankImage,blankImage,blankImage,blankImage,blankImage,blankImage,blankImage,blankImage,blankImage,parkingmeter,30,,,,,,,,,,,,,,,,,,,,,,,,,,,,,,,,,,,,,,,,,,0,59,59,29,1,,,,,,,,,,,,,,,,,,,,,,,,,,,,,,,,,,,,,,,,,,,,,,,,,,,,,,
,,,,,5f44ee515cff5c02f09c17be,6682b41eeb79ab8215dff63d,6682b9a9f4182cad72f96761,29,Female,English,2024-07-01_15h15.09.753,ABmemTask3,2023.2.3,MacIntel,58.82352941,,,,,,,,,,,,,,,,,,,,,,,,,,,,,,,539.735,540.734,540.734,7,541.233,542.168,0.002,542.284,0.116,0.117,0.117,0.115,0.118,0.117,0.116,0.117,,,,542.284,542.667,right,0.364,,542.667,542.884,right,0.205,,80,0,122,542.884,543.884,,,,,,1_AB,L1_T1P_T2P,1,1,1,5,6,4,3,9,paint brush,Did you see the paint brush,0.12,0,resources/,pics/nutcracker01.jpg,pics/piggybank.jpg,pics/spiderweb.jpg,pics/table01.jpg,pics/paintbrush01.jpg,pics/stapler09.jpg,pics/hose.jpg,pics/cannon.jpg,pics/mummy.jpg,blankImage,blankImage,blankImage,blankImage,blankImage,blankImage,blankImage,blankImage,paintbrush01,20,,,,,,,,,,,,,,,,,,,,,,,,,,,,,,,,,,,,,,,,,,0,60,60,19,1,,,,,,,,,,,,,,,,,,,,,,,,,,,,,,,,,,,,,,,,,,,,,,,,,,,,,,
,,,,,5f44ee515cff5c02f09c17be,6682b41eeb79ab8215dff63d,6682b9a9f4182cad72f96761,29,Female,English,2024-07-01_15h15.09.753,ABmemTask3,2023.2.3,MacIntel,58.82352941,,,,,,,,,,,,,,,,,,,,,,,,,,,,,,,543.885,544.884,544.884,7,545.383,546.668,0.001,546.784,0.117,0.117,0.117,0.116,0.117,0.117,0.116,0.117,0.117,0.117,0.116,546.784,547.251,right,0.452,,547.251,547.468,right,0.203,,82,0,124,547.468,548.468,,,,,,1_AB,L1_T1P_T2P,1,1,1,6,7,5,5,12,rope,Did you see the rope,0.12,0,resources/,pics/toiletpaper01a.jpg,pics/sewingmachine01a.jpg,pics/birdhouse.jpg,pics/sealion.jpg,pics/safetypin.jpg,pics/rope03.jpg,pics/stapler04.jpg,pics/binder03b.jpg,pics/ashtray01.jpg,pics/sandbarshark.jpg,pics/chainsaw.jpg,pics/nutcracker01.jpg,blankImage,blankImage,blankImage,blankImage,blankImage,rope03,4,,,,,,,,,,,,,,,,,,,,,,,,,,,,,,,,,,,,,,,,,,0,61,61,3,1,,,,,,,,,,,,,,,,,,,,,,,,,,,,,,,,,,,,,,,,,,,,,,,,,,,,,,
,,,,,5f44ee515cff5c02f09c17be,6682b41eeb79ab8215dff63d,6682b9a9f4182cad72f96761,29,Female,English,2024-07-01_15h15.09.753,ABmemTask3,2023.2.3,MacIntel,58.82352941,,,,,,,,,,,,,,,,,,,,,,,,,,,,,,,,,,,,,,,,,,,,,,,,,,,,,,,,,,,,,,,,,,,,,,,,,,,,,,,,,,,,,,,,,,,,,,,,,,,,,,,,,,,548.469,554.451,space,5.96,,,,,,,,,,,,,,,,,,,,,,,,,,,,,,,,,,,,,,,,,,,,,,,,,,,,,,,,,,,,,,,,,,,,,,,,,,,,,,,,,,,,,,,,,,,,,
,,,,,5f44ee515cff5c02f09c17be,6682b41eeb79ab8215dff63d,6682b9a9f4182cad72f96761,29,Female,English,2024-07-01_15h15.09.753,ABmemTask3,2023.2.3,MacIntel,58.82352941,,,space,23.709,,,,,,,,,,,,,,,,,,,,,,,,,,,,,,,,,,,,,,,,,,,,,,,,,,,,,,,,,,,,,,,,,,,,,,,,,,,,,,,,,,,,,,,,,,,,,,,,,,,,,,,,,,,,,,,,,,,,,,,,,,,,,,,,,,,,,,,,,,,,,,,,,,,554.452,578.185,,,,,,,,,,,,,,,,,,,,,,,,,,,,,,,,,,,,,,,,,,,,,,,,,,,
,,,,,5f44ee515cff5c02f09c17be,6682b41eeb79ab8215dff63d,6682b9a9f4182cad72f96761,29,Female,English,2024-07-01_15h15.09.753,ABmemTask3,2023.2.3,MacIntel,58.82352941,,,,,,,,,,,,,,,,,,,,,,,,,,,,,,,,,,,,,,,,,,,,,,,,,,,,,,,,,,,,,,,,,,,,,,,,,,,,,,,,,,,,,,,,,,,,,,,,,,,,,,,,,,,,,,,,,,,,,,,,,,,,,,,,,,,,,,,,,,,,,,,,,,,,,,,,,578.185,587.636,space,9.424,,,,,,,,,,,,,,,,,,,,,,,,,,,,,,,,,,,,,,,,,,,,,,,
,,,,,5f44ee515cff5c02f09c17be,6682b41eeb79ab8215dff63d,6682b9a9f4182cad72f96761,29,Female,English,2024-07-01_15h15.09.753,ABmemTask3,2023.2.3,MacIntel,58.82352941,,,,,,,,,,,,,,,,,,,,,,,,,,,,,,,587.641,588.635,588.636,7,589.136,590.769,0.002,590.885,0.115,0.117,0.116,0.117,0.116,0.117,0.117,0.117,0.115,0.118,0.116,590.886,591.519,left,0.613,,,,,,,1,82,2,591.519,592.519,,,,,,2_AB,L5_T1A_T2P,5,0,1,5,10,4,5,15,wedding cake,Did you see the wedding cake,0.12,0,resources/,pics/microscope.jpg,pics/golfball.jpg,pics/kangaroo.jpg,pics/backpack01a.jpg,pics/sewingmachine01a.jpg,pics/christmaslights.jpg,pics/lightswitch01.jpg,pics/carrot01.jpg,pics/dromedary.jpg,pics/stapler09.jpg,pics/candle01.jpg,pics/hammerheadshark.jpg,pics/footballhelmet.jpg,pics/banjo.jpg,pics/binoculars01b.jpg,blankImage,blankImage,weddingcake,57,0.117,0.117,0.116,,,,,,,,,,,,,,,,,,,,,,,,,,,,,,,,,,,,,,,,,,,,,,,,,,,,0,0,0,56,1,,,,,,,,,,,,,,,,,,,,,,,,,,,,,,,,,,,,,,,,,
,,,,,5f44ee515cff5c02f09c17be,6682b41eeb79ab8215dff63d,6682b9a9f4182cad72f96761,29,Female,English,2024-07-01_15h15.09.753,ABmemTask3,2023.2.3,MacIntel,58.82352941,,,,,,,,,,,,,,,,,,,,,,,,,,,,,,,592.52,593.519,593.52,7,594.019,595.069,0.001,595.186,0.116,0.117,0.117,0.115,0.118,0.117,0.116,0.117,0.116,,,595.186,595.552,right,0.347,,,,,,,2,82,4,595.553,596.552,,,,,,2_AB,L1_T1P_T2P,1,1,1,4,5,3,5,10,Tambourine,Did you see the Tambourine,0.12,0,resources/,pics/icecube01.jpg,pics/peach01.jpg,pics/binder03b.jpg,pics/tambourine03.jpg,pics/stapler03.jpg,pics/leaf02a.jpg,pics/butterfly.jpg,pics/spiderweb.jpg,pics/candleholder01.jpg,pics/toiletpaper01a.jpg,blankImage,blankImage,blankImage,blankImage,blankImage,blankImage,blankImage,tambourine03,4,,,,,,,,,,,,,,,,,,,,,,,,,,,,,,,,,,,,,,,,,,,,,,,,,,,,,,,0,1,1,3,1,,,,,,,,,,,,,,,,,,,,,,,,,,,,,,,,,,,,,,,,,
,,,,,5f44ee515cff5c02f09c17be,6682b41eeb79ab8215dff63d,6682b9a9f4182cad72f96761,29,Female,English,2024-07-01_15h15.09.753,ABmemTask3,2023.2.3,MacIntel,58.82352941,,,,,,,,,,,,,,,,,,,,,,,,,,,,,,,596.553,597.552,597.553,7,598.052,599.453,0.002,599.569,0.116,0.116,0.116,0.118,0.116,0.117,0.117,0.116,0.117,0.117,0.116,599.569,599.953,right,0.365,,,,,,,3,82,6,599.953,600.952,,,,,,2_AB,L1_T1P_T2P,1,1,1,7,8,6,5,13,Stool,Did you see the Stool,0.12,0,resources/,pics/boot02b.jpg,pics/sewingmachine01a.jpg,pics/kangaroo.jpg,pics/hairdryer02a.jpg,pics/floortile02.jpg,pics/onion.jpg,pics/stool01.jpg,pics/stapler07.jpg,pics/laptop01a.jpg,pics/zebra.jpg,pics/starfish01.jpg,pics/candleholder01.jpg,pics/hose.jpg,blankImage,blankImage,blankImage,blankImage,stool01,7,0.117,,,,,,,,,,,,,,,,,,,,,,,,,,,,,,,,,,,,,,,,,,,,,,,,,,,,,,0,2,2,6,1,,,,,,,,,,,,,,,,,,,,,,,,,,,,,,,,,,,,,,,,,
,,,,,5f44ee515cff5c02f09c17be,6682b41eeb79ab8215dff63d,6682b9a9f4182cad72f96761,29,Female,English,2024-07-01_15h15.09.753,ABmemTask3,2023.2.3,MacIntel,58.82352941,,,,,,,,,,,,,,,,,,,,,,,,,,,,,,,600.953,601.953,601.953,7,602.452,603.503,0.001,603.619,0.117,0.116,0.117,0.117,0.116,0.117,0.117,0.116,0.117,,,603.619,604.002,right,0.362,,,,,,,4,82,8,604.002,605.003,,,,,,2_AB,L1_T1P_T2P,1,1,1,4,5,3,5,10,church,Did you see the church,0.12,0,resources/,pics/sewingmachine01a.jpg,pics/footballhelmet.jpg,pics/floortile02.jpg,pics/church.jpg,pics/stapler13.jpg,pics/football.jpg,pics/calendar.jpg,pics/ashtray01.jpg,pics/blender.jpg,pics/spoon01.jpg,blankImage,blankImage,blankImage,blankImage,blankImage,blankImage,blankImage,church,15,,,,,,,,,,,,,,,,,,,,,,,,,,,,,,,,,,,,,,,,,,,,,,,,,,,,,,,0,3,3,14,1,,,,,,,,,,,,,,,,,,,,,,,,,,,,,,,,,,,,,,,,,
,,,,,5f44ee515cff5c02f09c17be,6682b41eeb79ab8215dff63d,6682b9a9f4182cad72f96761,29,Female,English,2024-07-01_15h15.09.753,ABmemTask3,2023.2.3,MacIntel,58.82352941,,,,,,,,,,,,,,,,,,,,,,,,,,,,,,,605.003,606.003,606.003,7,606.503,608.253,0.002,608.369,0.115,0.117,0.116,0.117,0.116,0.117,0.117,0.117,0.116,0.117,0.117,608.37,608.686,right,0.302,,,,,,,5,82,10,608.686,609.686,,,,,,2_AB,L5_T1P_T2P,5,1,1,7,12,6,4,16,lawn mower,Did you see the lawn mower,0.12,0,resources/,pics/proboscismonkey.jpg,pics/hammerheadshark.jpg,pics/hairdryer02a.jpg,pics/seaturtle.jpg,pics/birdhouse.jpg,pics/zebra.jpg,pics/lawnmower.jpg,pics/peanut01.jpg,pics/laptop01a.jpg,pics/carrot01.jpg,pics/blender.jpg,pics/stapler03.jpg,pics/triangle.jpg,pics/cannon.jpg,pics/necklace.jpg,pics/shovel01.jpg,blankImage,lawnmower,53,0.116,0.117,0.117,,,,,,,,,,,,,,,,,,,,,,,,,,,,,,,,,,,,,,0.116,,,,,,,,,,,,,,0,4,4,52,1,,,,,,,,,,,,,,,,,,,,,,,,,,,,,,,,,,,,,,,,,
,,,,,5f44ee515cff5c02f09c17be,6682b41eeb79ab8215dff63d,6682b9a9f4182cad72f96761,29,Female,English,2024-07-01_15h15.09.753,ABmemTask3,2023.2.3,MacIntel,58.82352941,,,,,,,,,,,,,,,,,,,,,,,,,,,,,,,609.687,610.686,610.686,7,611.186,612.587,0.001,612.703,0.115,0.117,0.117,0.116,0.117,0.117,0.116,0.117,0.117,0.116,0.117,612.703,612.803,right,0.084,,,,,,,6,82,12,612.803,613.803,,,,,,2_AB,L1_T1P_T2A,1,1,0,7,8,6,5,13,Lighthouse,Did you see the Lighthouse,0.12,0,resources/,pics/christmaslights.jpg,pics/backpack01a.jpg,pics/aquarium.jpg,pics/bowtie.jpg,pics/table01.jpg,pics/sandbarshark.jpg,pics/lighthouse.jpg,pics/lock03a.jpg,pics/calendar.jpg,pics/match.jpg,pics/spiderweb.jpg,pics/fanblades.jpg,pics/butterfly.jpg,blankImage,blankImage,blankImage,blankImage,lighthouse,33,0.117,,,,,,,,,,,,,,,,,,,,,,,,,,,,,,,,,,,,,,,,,,,,,,,,,,,,,,0,5,5,32,1,,,,,,,,,,,,,,,,,,,,,,,,,,,,,,,,,,,,,,,,,
,,,,,5f44ee515cff5c02f09c17be,6682b41eeb79ab8215dff63d,6682b9a9f4182cad72f96761,29,Female,English,2024-07-01_15h15.09.753,ABmemTask3,2023.2.3,MacIntel,58.82352941,,,,,,,,,,,,,,,,,,,,,,,,,,,,,,,613.803,614.803,614.803,7,615.303,616.587,0.002,616.703,0.115,0.116,0.117,0.117,0.117,0.116,0.117,0.117,0.117,0.116,0.117,616.703,617.087,left,0.372,,,,,,,7,82,14,617.087,618.086,,,,,,2_AB,L1_T1A_T2P,1,0,1,7,8,6,4,12,brick,Did you see the brick,0.12,0,resources/,pics/mummy.jpg,pics/fanblades.jpg,pics/butterfly.jpg,pics/kangaroo.jpg,pics/proboscismonkey.jpg,pics/hose.jpg,pics/onion.jpg,pics/stapler04.jpg,pics/peach01.jpg,pics/birdhouse.jpg,pics/footballhelmet.jpg,pics/seaturtle.jpg,blankImage,blankImage,blankImage,blankImage,blankImage,brick,25,,,,,,,,,,,,,,,,,,,,,,,,,,,,,,,,,,,,,,,,,,,,,,,,,,,,,,,0,6,6,24,1,,,,,,,,,,,,,,,,,,,,,,,,,,,,,,,,,,,,,,,,,
,,,,,5f44ee515cff5c02f09c17be,6682b41eeb79ab8215dff63d,6682b9a9f4182cad72f96761,29,Female,English,2024-07-01_15h15.09.753,ABmemTask3,2023.2.3,MacIntel,58.82352941,,,,,,,,,,,,,,,,,,,,,,,,,,,,,,,618.087,619.086,619.087,7,619.587,620.87,0.002,620.986,0.116,0.116,0.117,0.117,0.116,0.117,0.116,0.117,0.117,0.117,0.116,620.987,621.355,right,0.356,,,,,,,8,82,16,621.355,622.353,,,,,,2_AB,L1_T1P_T2A,1,1,0,6,7,5,5,12,Bird feeder,Did you see the Bird feeder,0.12,0,resources/,pics/spiderweb.jpg,pics/carrot01.jpg,pics/ashtray01.jpg,pics/golfball.jpg,pics/piggybank.jpg,pics/birdfeeder.jpg,pics/siamesecat.jpg,pics/seaturtle.jpg,pics/blender.jpg,pics/pencil01.jpg,pics/spoon01.jpg,pics/zebra.jpg,blankImage,blankImage,blankImage,blankImage,blankImage,birdfeeder,37,,,,,,,,,,,,,,,,,,,,,,,,,,,,,,,,,,,,,,,,,,,,,,,,,,,,,,,0,7,7,36,1,,,,,,,,,,,,,,,,,,,,,,,,,,,,,,,,,,,,,,,,,
,,,,,5f44ee515cff5c02f09c17be,6682b41eeb79ab8215dff63d,6682b9a9f4182cad72f96761,29,Female,English,2024-07-01_15h15.09.753,ABmemTask3,2023.2.3,MacIntel,58.82352941,,,,,,,,,,,,,,,,,,,,,,,,,,,,,,,622.354,623.353,623.353,7,623.852,624.904,0.002,625.02,0.116,0.117,0.117,0.116,0.117,0.117,0.116,0.117,0.117,,,625.02,625.37,right,0.338,,,,,,,9,82,18,625.37,626.37,,,,,,2_AB,L1_T1P_T2A,1,1,0,4,5,3,5,10,helmet,Did you see the helmet,0.12,0,resources/,pics/kangaroo.jpg,pics/laptop01a.jpg,pics/carrot01.jpg,pics/skihelmet01.jpg,pics/hammerheadshark.jpg,pics/piggybank.jpg,pics/starfish01.jpg,pics/sailboat.jpg,pics/sewingmachine01a.jpg,pics/cork02.jpg,blankImage,blankImage,blankImage,blankImage,blankImage,blankImage,blankImage,skihelmet01,32,,,,,,,,,,,,,,,,,,,,,,,,,,,,,,,,,,,,,,,,,,,,,,,,,,,,,,,0,8,8,31,1,,,,,,,,,,,,,,,,,,,,,,,,,,,,,,,,,,,,,,,,,
,,,,,5f44ee515cff5c02f09c17be,6682b41eeb79ab8215dff63d,6682b9a9f4182cad72f96761,29,Female,English,2024-07-01_15h15.09.753,ABmemTask3,2023.2.3,MacIntel,58.82352941,,,,,,,,,,,,,,,,,,,,,,,,,,,,,,,626.371,627.37,627.37,7,627.87,628.919,0.001,629.037,0.116,0.117,0.116,0.117,0.117,0.117,0.116,0.116,0.117,,,629.037,629.387,right,0.335,,,,,,,10,82,20,629.387,630.387,,,,,,2_AB,L1_T1P_T2A,1,1,0,6,7,5,3,10,Safe,Did you see the Safe,0.12,0,resources/,pics/match.jpg,pics/ashtray01.jpg,pics/icecube01.jpg,pics/piggybank.jpg,pics/chainsaw.jpg,pics/safe.jpg,pics/siamesecat.jpg,pics/dromedary.jpg,pics/binder03b.jpg,pics/ball02.jpg,blankImage,blankImage,blankImage,blankImage,blankImage,blankImage,blankImage,safe,34,,,,,,,,,,,,,,,,,,,,,,,,,,,,,,,,,,,,,,,,,,,,,,,,,,,,,,,0,9,9,33,1,,,,,,,,,,,,,,,,,,,,,,,,,,,,,,,,,,,,,,,,,
,,,,,5f44ee515cff5c02f09c17be,6682b41eeb79ab8215dff63d,6682b9a9f4182cad72f96761,29,Female,English,2024-07-01_15h15.09.753,ABmemTask3,2023.2.3,MacIntel,58.82352941,,,,,,,,,,,,,,,,,,,,,,,,,,,,,,,630.387,631.387,631.387,7,631.887,633.754,0.002,633.869,0.115,0.117,0.116,0.117,0.117,0.117,0.116,0.117,0.116,0.117,0.117,633.87,634.203,right,0.32,,,,,,,11,82,22,634.203,635.204,,,,,,2_AB,L5_T1P_T2A,5,1,0,7,12,6,5,17,plant,Did you see the plant,0.12,0,resources/,pics/sandbarshark.jpg,pics/banjo.jpg,pics/christmaslights.jpg,pics/shipinabottle.jpg,pics/calendar.jpg,pics/giraffe.jpg,pics/plant01.jpg,pics/toiletpaper01a.jpg,pics/aquarium.jpg,pics/lock03a.jpg,pics/noparkingsign.jpg,pics/birdhouse.jpg,pics/icecube01.jpg,pics/leaf02a.jpg,pics/kangaroo.jpg,pics/lightswitch01.jpg,pics/salmon.jpg,plant01,58,0.116,0.117,0.117,,,,,,,,,,,,,,,,,,,,,,,,,,,,,,,,,,,,,,0.116,,,,,,0.117,,,,,,,,0,10,10,57,1,,,,,,,,,,,,,,,,,,,,,,,,,,,,,,,,,,,,,,,,,
,,,,,5f44ee515cff5c02f09c17be,6682b41eeb79ab8215dff63d,6682b9a9f4182cad72f96761,29,Female,English,2024-07-01_15h15.09.753,ABmemTask3,2023.2.3,MacIntel,58.82352941,,,,,,,,,,,,,,,,,,,,,,,,,,,,,,,635.204,636.203,636.203,7,636.704,638.104,0.001,638.22,0.116,0.116,0.117,0.117,0.116,0.117,0.117,0.116,0.117,0.117,0.117,638.221,638.353,right,0.118,,,,,,,12,82,24,638.353,639.354,,,,,,2_AB,L1_T1P_T2A,1,1,0,7,8,6,5,13,rice,Did you see the rice,0.12,0,resources/,pics/necklace.jpg,pics/floortile02.jpg,pics/cork02.jpg,pics/seagull.jpg,pics/hen.jpg,pics/snowshoe.jpg,pics/rice.jpg,pics/ball02.jpg,pics/peanut01.jpg,pics/boot02b.jpg,pics/spiderweb.jpg,pics/nutcracker01.jpg,pics/bowlingpin.jpg,blankImage,blankImage,blankImage,blankImage,rice,39,0.116,,,,,,,,,,,,,,,,,,,,,,,,,,,,,,,,,,,,,,,,,,,,,,,,,,,,,,0,11,11,38,1,,,,,,,,,,,,,,,,,,,,,,,,,,,,,,,,,,,,,,,,,
