consent1.started,consent1.stopped,key_resp_8.keys,key_resp_8.rt,key_resp_8.duration,PROLIFIC_PID,STUDY_ID,SESSION_ID,age,sex,native language,date,expName,psychopyVersion,OS,frameRate,consent2.started,consent2.stopped,key_resp_9.keys,key_resp_9.rt,key_resp_9.duration,consent3.started,consent3.stopped,key_resp_10.keys,key_resp_10.rt,key_resp_10.duration,consent4.started,consent4.stopped,key_resp_11.keys,key_resp_11.rt,key_resp_11.duration,consent5.started,consent5.stopped,key_resp_12.keys,key_resp_12.rt,key_resp_12.duration,bonusInstruct.started,bonusInstruct.stopped,key_resp_14.keys,key_resp_14.rt,key_resp_14.duration,practiceInstruct.started,practiceInstruct.stopped,key_resp.keys,key_resp.rt,key_resp.duration,cueWord_2.started,cueWord_2.stopped,fix.started,frameTarget,fix.stopped,trial.started,img1Add,trial.stopped,img2Add,img3Add,img4Add,img5Add,img6Add,img7Add,img8Add,img9Add,img10Add,img11Add,img12Add,prompt1.started,prompt1.stopped,key_resp_2.keys,key_resp_2.rt,key_resp_2.duration,prompt2.started,prompt2.stopped,key_resp_3.keys,key_resp_3.rt,key_resp_3.duration,runningAcc_AB,runningTotal,runningCount_AB,feedback.started,feedback.stopped,trials.thisRepN,trials.thisTrialN,trials.thisN,trials.thisIndex,trials.ran,TrialType,CondType,Lag,T1_PA,T2_PA,T1Loc,T2Loc,PreDistractor,PostDistractor,TotalImg,cueWord,T1cue,StimLength,isi,PicFolder,Img1,Img2,Img3,Img4,Img5,Img6,Img7,Img8,Img9,Img10,Img11,Img12,Img13,Img14,Img15,Img16,Img17,T1_Identity,trialID,img13Add,img14Add,img15Add,ABfeedback.started,ABfeedback.stopped,key_resp_13.keys,key_resp_13.rt,key_resp_13.duration,MemPracticeInstruction.started,MemPracticeInstruction.stopped,key_resp_5.keys,key_resp_5.rt,key_resp_5.duration,memTrial.started,memTrial.stopped,Mem_runningPoints,key_resp_4.keys,key_resp_4.rt,key_resp_4.duration,memTrialFeedback.started,memTrialFeedback.stopped,trials_2.thisRepN,trials_2.thisTrialN,trials_2.thisN,trials_2.thisIndex,trials_2.ran,ABtrialID,priorLag,image,memFeedback.started,memFeedback.frame,memFeedback.ended,memFeedback.stopped,bonus.started,bonus.stopped,memoryBlockABInstruct.started,memoryBlockABInstruct.stopped,key_resp_6.keys,key_resp_6.rt,key_resp_6.duration,AB_block_1.thisRepN,AB_block_1.thisTrialN,AB_block_1.thisN,AB_block_1.thisIndex,AB_block_1.ran,img16Add,img17Add,AB_break1.started,AB_break1.stopped,PerceiveBlockABInstruct.started,PerceiveBlockABInstruct.stopped,key_resp_7.keys,key_resp_7.rt,key_resp_7.duration,AB_block_2.thisRepN,AB_block_2.thisTrialN,AB_block_2.thisN,AB_block_2.thisIndex,AB_block_2.ran,AB_break2.started,AB_break2.stopped,AB_block_3.thisRepN,AB_block_3.thisTrialN,AB_block_3.thisN,AB_block_3.thisIndex,AB_block_3.ran,AB_break3.started,AB_break3.stopped,AB_block_4.thisRepN,AB_block_4.thisTrialN,AB_block_4.thisN,AB_block_4.thisIndex,AB_block_4.ran,AB_break4.started,AB_break4.stopped,AB_block_5.thisRepN,AB_block_5.thisTrialN,AB_block_5.thisN,AB_block_5.thisIndex,AB_block_5.ran,AB_break5.started,AB_break5.stopped,AB_block_6.thisRepN,AB_block_6.thisTrialN,AB_block_6.thisN,AB_block_6.thisIndex,AB_block_6.ran,AB_break6.started,AB_break6.stopped,MemInstructionSURPRISE.started,MemInstructionSURPRISE.stopped,MemInstruction.started,MemInstruction.stopped,memBreak.started,memBreak.stopped,Mem_block_1.thisRepN,Mem_block_1.thisTrialN,Mem_block_1.thisN,Mem_block_1.thisIndex,Mem_block_1.ran
0.0005,10.0639,space,10.0422,,5cb201e1fa4b72000183aa9e,6682b41eeb79ab8215dff63d,6682ba481805f49828e8b0db,59,Female,English,2024-07-01_15h17.23.415,ABmemTask3,2023.2.3,Win32,59.88023952,,,,,,,,,,,,,,,,,,,,,,,,,,,,,,,,,,,,,,,,,,,,,,,,,,,,,,,,,,,,,,,,,,,,,,,,,,,,,,,,,,,,,,,,,,,,,,,,,,,,,,,,,,,,,,,,,,,,,,,,,,,,,,,,,,,,,,,,,,,,,,,,,,,,,,,,,,,,,,,,,,,,,,,,,,,,,,,,,,,,,,,,,,,,,,,,,,,,,,,,,,,
,,,,,5cb201e1fa4b72000183aa9e,6682b41eeb79ab8215dff63d,6682ba481805f49828e8b0db,59,Female,English,2024-07-01_15h17.23.415,ABmemTask3,2023.2.3,Win32,59.88023952,10.0642,14.622,space,4.4967,,,,,,,,,,,,,,,,,,,,,,,,,,,,,,,,,,,,,,,,,,,,,,,,,,,,,,,,,,,,,,,,,,,,,,,,,,,,,,,,,,,,,,,,,,,,,,,,,,,,,,,,,,,,,,,,,,,,,,,,,,,,,,,,,,,,,,,,,,,,,,,,,,,,,,,,,,,,,,,,,,,,,,,,,,,,,,,,,,,,,,,,,,,,,,,,,,,,,,,
,,,,,5cb201e1fa4b72000183aa9e,6682b41eeb79ab8215dff63d,6682ba481805f49828e8b0db,59,Female,English,2024-07-01_15h17.23.415,ABmemTask3,2023.2.3,Win32,59.88023952,,,,,,14.6222,18.7561,space,4.1027,,,,,,,,,,,,,,,,,,,,,,,,,,,,,,,,,,,,,,,,,,,,,,,,,,,,,,,,,,,,,,,,,,,,,,,,,,,,,,,,,,,,,,,,,,,,,,,,,,,,,,,,,,,,,,,,,,,,,,,,,,,,,,,,,,,,,,,,,,,,,,,,,,,,,,,,,,,,,,,,,,,,,,,,,,,,,,,,,,,,,,,,,,,,,,,,,,
,,,,,5cb201e1fa4b72000183aa9e,6682b41eeb79ab8215dff63d,6682ba481805f49828e8b0db,59,Female,English,2024-07-01_15h17.23.415,ABmemTask3,2023.2.3,Win32,59.88023952,,,,,,,,,,,18.7563,20.0046,space,1.2016,,,,,,,,,,,,,,,,,,,,,,,,,,,,,,,,,,,,,,,,,,,,,,,,,,,,,,,,,,,,,,,,,,,,,,,,,,,,,,,,,,,,,,,,,,,,,,,,,,,,,,,,,,,,,,,,,,,,,,,,,,,,,,,,,,,,,,,,,,,,,,,,,,,,,,,,,,,,,,,,,,,,,,,,,,,,,,,,,,,,,,,,,,,,,
,,,,,5cb201e1fa4b72000183aa9e,6682b41eeb79ab8215dff63d,6682ba481805f49828e8b0db,59,Female,English,2024-07-01_15h17.23.415,ABmemTask3,2023.2.3,Win32,59.88023952,,,,,,,,,,,,,,,,20.0049,23.1881,space,3.1577,,,,,,,,,,,,,,,,,,,,,,,,,,,,,,,,,,,,,,,,,,,,,,,,,,,,,,,,,,,,,,,,,,,,,,,,,,,,,,,,,,,,,,,,,,,,,,,,,,,,,,,,,,,,,,,,,,,,,,,,,,,,,,,,,,,,,,,,,,,,,,,,,,,,,,,,,,,,,,,,,,,,,,,,,,,,,,,,,,,,,,,,
,,,,,5cb201e1fa4b72000183aa9e,6682b41eeb79ab8215dff63d,6682ba481805f49828e8b0db,59,Female,English,2024-07-01_15h17.23.415,ABmemTask3,2023.2.3,Win32,59.88023952,,,,,,,,,,,,,,,,,,,,,23.1883,46.8519,space,23.6026,,,,,,,,,,,,,,,,,,,,,,,,,,,,,,,,,,,,,,,,,,,,,,,,,,,,,,,,,,,,,,,,,,,,,,,,,,,,,,,,,,,,,,,,,,,,,,,,,,,,,,,,,,,,,,,,,,,,,,,,,,,,,,,,,,,,,,,,,,,,,,,,,,,,,,,,,,,,,,,,,,,,,,,,,,,,,,,,,,,
,,,,,5cb201e1fa4b72000183aa9e,6682b41eeb79ab8215dff63d,6682ba481805f49828e8b0db,59,Female,English,2024-07-01_15h17.23.415,ABmemTask3,2023.2.3,Win32,59.88023952,,,,,,,,,,,,,,,,,,,,,,,,,,46.8521,94.0788,space,47.1938,,,,,,,,,,,,,,,,,,,,,,,,,,,,,,,,,,,,,,,,,,,,,,,,,,,,,,,,,,,,,,,,,,,,,,,,,,,,,,,,,,,,,,,,,,,,,,,,,,,,,,,,,,,,,,,,,,,,,,,,,,,,,,,,,,,,,,,,,,,,,,,,,,,,,,,,,,,,,,,,,,,,,,,,,,,,,,
,,,,,5cb201e1fa4b72000183aa9e,6682b41eeb79ab8215dff63d,6682ba481805f49828e8b0db,59,Female,English,2024-07-01_15h17.23.415,ABmemTask3,2023.2.3,Win32,59.88023952,,,,,,,,,,,,,,,,,,,,,,,,,,,,,,,94.101,95.0946,95.0949,15,95.5941,98.3492,0.0025,98.5934,0.2481,0.2497,0.2499,0.2503,0.25,0.2496,0.2503,0.2508,0.249,0.25,0.2553,98.5948,100.9268,right,2.3097,,100.9271,103.5767,left,2.6164,,2,0,2,103.577,104.5768,0,0,0,0,1,prac_AB,L1_T1P_T2A,1,1,0,6,7,5,5,12,cat,Did you see the cat,0.25,0,resources/,pics/shipinabottle.jpg,pics/table01.jpg,pics/dustpan.jpg,pics/golfball.jpg,pics/giraffe.jpg,pics/cat.jpg,pics/peanut01.jpg,pics/pictureframe04.jpg,pics/fanblades.jpg,pics/laptop01a.jpg,pics/ball02.jpg,pics/blender.jpg,blankImage,blankImage,blankImage,blankImage,blankImage,cat,8,,,,,,,,,,,,,,,,,,,,,,,,,,,,,,,,,,,,,,,,,,,,,,,,,,,,,,,,,,,,,,,,,,,,,,,,,,,,,,,,,,,,,,,,,,,,,,,,,,,,
,,,,,5cb201e1fa4b72000183aa9e,6682b41eeb79ab8215dff63d,6682ba481805f49828e8b0db,59,Female,English,2024-07-01_15h17.23.415,ABmemTask3,2023.2.3,Win32,59.88023952,,,,,,,,,,,,,,,,,,,,,,,,,,,,,,,104.5879,105.5764,105.5764,14,106.0768,108.1759,0.0015,108.4152,0.2316,0.2339,0.2332,0.2335,0.2332,0.2327,0.2332,0.234,0.2326,,,108.4153,109.8976,right,1.4669,,109.8978,110.9586,left,1.0347,,2,0,4,110.9588,111.9638,0,1,1,1,1,prac_AB,L1_T1P_T2P,1,1,1,5,6,4,4,10,tree,Did you see the tree,0.24,0,resources/,pics/carrot01.jpg,pics/hammerheadshark.jpg,pics/kangaroo.jpg,pics/proboscismonkey.jpg,pics/tree.jpg,pics/stapler07.jpg,pics/siamesecat.jpg,pics/ball02.jpg,pics/pictureframe04.jpg,pics/mummy.jpg,blankImage,blankImage,blankImage,blankImage,blankImage,blankImage,blankImage,tree,1,,,,,,,,,,,,,,,,,,,,,,,,,,,,,,,,,,,,,,,,,,,,,,,,,,,,,,,,,,,,,,,,,,,,,,,,,,,,,,,,,,,,,,,,,,,,,,,,,,,,
,,,,,5cb201e1fa4b72000183aa9e,6682b41eeb79ab8215dff63d,6682ba481805f49828e8b0db,59,Female,English,2024-07-01_15h17.23.415,ABmemTask3,2023.2.3,Win32,59.88023952,,,,,,,,,,,,,,,,,,,,,,,,,,,,,,,111.9645,112.9583,112.9584,14,113.4582,116.0254,0.0015,116.2577,0.2327,0.2331,0.2332,0.2342,0.2324,0.234,0.2329,0.2338,0.2325,0.2334,0.2339,116.2579,117.8745,left,1.5882,,117.8747,118.6911,right,0.7891,,4,0,6,118.6913,119.6957,0,2,2,2,1,prac_AB,L1_T1A_T2P,1,0,1,7,8,6,4,12,grapes,Did you see the grapes,0.23,0,resources/,pics/sailboat.jpg,pics/butterfly.jpg,pics/giraffe.jpg,pics/spoon01.jpg,pics/hose.jpg,pics/nutcracker01.jpg,pics/table01.jpg,pics/stapler13.jpg,pics/pencil01.jpg,pics/football.jpg,pics/triangle.jpg,pics/hairdryer02a.jpg,blankImage,blankImage,blankImage,blankImage,blankImage,grape01,6,,,,,,,,,,,,,,,,,,,,,,,,,,,,,,,,,,,,,,,,,,,,,,,,,,,,,,,,,,,,,,,,,,,,,,,,,,,,,,,,,,,,,,,,,,,,,,,,,,,,
,,,,,5cb201e1fa4b72000183aa9e,6682b41eeb79ab8215dff63d,6682ba481805f49828e8b0db,59,Female,English,2024-07-01_15h17.23.415,ABmemTask3,2023.2.3,Win32,59.88023952,,,,,,,,,,,,,,,,,,,,,,,,,,,,,,,119.7067,120.6976,120.6977,13,121.1903,124.2242,0.0014,124.4402,0.2161,0.2167,0.2166,0.2172,0.2159,0.2178,0.2165,0.216,0.2167,0.217,0.2158,124.4403,125.7064,right,1.2426,,125.7065,127.423,right,1.6836,,6,0,8,127.4231,128.4226,0,3,3,3,1,prac_AB,L5_T1P_T2P,5,1,1,7,12,6,3,15,Human skull,Did you see the Human skull,0.22,0,resources/,pics/peach01.jpg,pics/proboscismonkey.jpg,pics/hose.jpg,pics/laptop01a.jpg,pics/hammerheadshark.jpg,pics/nutcracker01.jpg,pics/humanskull.jpg,pics/table01.jpg,pics/icecube01.jpg,pics/boot02b.jpg,pics/calendar.jpg,pics/stapler03a.jpg,pics/ashtray01.jpg,pics/giraffe.jpg,pics/dromedary.jpg,blankImage,blankImage,humanskull,12,0.2174,0.2165,0.2165,,,,,,,,,,,,,,,,,,,,,,,,,,,,,,,,,,,,,,,,,,,,,,,,,,,,,,,,,,,,,,,,,,,,,,,,,,,,,,,,,,,,,,,,,,,,,,,,,
,,,,,5cb201e1fa4b72000183aa9e,6682b41eeb79ab8215dff63d,6682ba481805f49828e8b0db,59,Female,English,2024-07-01_15h17.23.415,ABmemTask3,2023.2.3,Win32,59.88023952,,,,,,,,,,,,,,,,,,,,,,,,,,,,,,,128.4341,129.4225,129.4227,13,129.9224,132.0899,0.0014,132.3056,0.2162,0.22,0.2139,0.2159,0.2165,0.2168,0.2166,0.2166,0.2166,0.2174,,132.3057,133.5389,left,1.2006,,133.539,134.639,left,1.067,,6,0,10,134.6391,135.6383,0,4,4,4,1,prac_AB,L1_T1A_T2P,1,0,1,7,8,6,3,11,dog,Did you see the dog,0.21,0,resources/,pics/ball02.jpg,pics/binder03b.jpg,pics/dromedary.jpg,pics/shipinabottle.jpg,pics/proboscismonkey.jpg,pics/laptop01a.jpg,pics/chainsaw.jpg,pics/stapler13.jpg,pics/nutcracker01.jpg,pics/carrot01.jpg,pics/calendar.jpg,blankImage,blankImage,blankImage,blankImage,blankImage,blankImage,saintbernard,7,,,,,,,,,,,,,,,,,,,,,,,,,,,,,,,,,,,,,,,,,,,,,,,,,,,,,,,,,,,,,,,,,,,,,,,,,,,,,,,,,,,,,,,,,,,,,,,,,,,,
,,,,,5cb201e1fa4b72000183aa9e,6682b41eeb79ab8215dff63d,6682ba481805f49828e8b0db,59,Female,English,2024-07-01_15h17.23.415,ABmemTask3,2023.2.3,Win32,59.88023952,,,,,,,,,,,,,,,,,,,,,,,,,,,,,,,135.6498,136.6435,136.6436,12,137.1382,139.9382,0.0018,140.1377,0.1991,0.1998,0.2002,0.1999,0.2001,0.2006,0.1993,0.1997,0.2006,0.1995,0.2006,140.1378,141.6884,right,1.5185,,141.6885,142.4211,right,0.7101,,8,0,12,142.4211,143.4222,0,5,5,5,1,prac_AB,L5_T1P_T2P,5,1,1,5,10,4,5,15,grater,Did you see the grater,0.2,0,resources/,pics/pencil01.jpg,pics/laptop01a.jpg,pics/hammerheadshark.jpg,pics/cork02.jpg,pics/grater01a.jpg,pics/shipinabottle.jpg,pics/binder03b.jpg,pics/dromedary.jpg,pics/pictureframe04.jpg,pics/stapler04b.jpg,pics/fanblades.jpg,pics/aquarium.jpg,pics/hairdryer02a.jpg,pics/lightswitch01.jpg,pics/piggybank.jpg,blankImage,blankImage,grater01a,11,0.1994,0.2029,0.197,,,,,,,,,,,,,,,,,,,,,,,,,,,,,,,,,,,,,,,,,,,,,,,,,,,,,,,,,,,,,,,,,,,,,,,,,,,,,,,,,,,,,,,,,,,,,,,,,
,,,,,5cb201e1fa4b72000183aa9e,6682b41eeb79ab8215dff63d,6682ba481805f49828e8b0db,59,Female,English,2024-07-01_15h17.23.415,ABmemTask3,2023.2.3,Win32,59.88023952,,,,,,,,,,,,,,,,,,,,,,,,,,,,,,,143.4339,144.4379,144.438,11,144.9378,146.4044,0.0016,146.5876,0.1825,0.1825,0.1833,0.184,0.1826,0.1833,0.1836,0.1834,,,,146.5878,148.1368,right,1.5224,,148.137,148.8034,left,0.6328,,10,0,14,148.8034,149.803,0,6,6,6,1,prac_AB,L1_T1P_T2A,1,1,0,4,5,3,4,9,chalk,Did you see the chalk,0.19,0,resources/,pics/necklace.jpg,pics/starfish01.jpg,pics/safetypin.jpg,pics/chalk.jpg,pics/candleholder01.jpg,pics/bowtie.jpg,pics/match.jpg,pics/candle01.jpg,pics/pencilsharpener02a.jpg,blankImage,blankImage,blankImage,blankImage,blankImage,blankImage,blankImage,blankImage,chalk,9,,,,,,,,,,,,,,,,,,,,,,,,,,,,,,,,,,,,,,,,,,,,,,,,,,,,,,,,,,,,,,,,,,,,,,,,,,,,,,,,,,,,,,,,,,,,,,,,,,,,
,,,,,5cb201e1fa4b72000183aa9e,6682b41eeb79ab8215dff63d,6682ba481805f49828e8b0db,59,Female,English,2024-07-01_15h17.23.415,ABmemTask3,2023.2.3,Win32,59.88023952,,,,,,,,,,,,,,,,,,,,,,,,,,,,,,,149.8038,150.8029,150.803,11,151.3031,152.9531,0.0013,153.136,0.1868,0.1791,0.1833,0.1834,0.1832,0.1833,0.1833,0.1835,0.1832,,,153.1361,154.136,right,0.9701,,154.1361,156.1524,right,1.9902,,12,0,16,156.1526,157.1521,0,7,7,7,1,prac_AB,L1_T1P_T2P,1,1,1,5,6,4,4,10,pants,Did you see the pants,0.18,0,resources/,pics/kangaroo.jpg,pics/safetypin.jpg,pics/salmon.jpg,pics/sandbarshark.jpg,pics/pants.jpg,pics/stapler03a.jpg,pics/sink.jpg,pics/calendar.jpg,pics/butterfly.jpg,pics/fanblades.jpg,blankImage,blankImage,blankImage,blankImage,blankImage,blankImage,blankImage,pants,2,,,,,,,,,,,,,,,,,,,,,,,,,,,,,,,,,,,,,,,,,,,,,,,,,,,,,,,,,,,,,,,,,,,,,,,,,,,,,,,,,,,,,,,,,,,,,,,,,,,,
,,,,,5cb201e1fa4b72000183aa9e,6682b41eeb79ab8215dff63d,6682ba481805f49828e8b0db,59,Female,English,2024-07-01_15h17.23.415,ABmemTask3,2023.2.3,Win32,59.88023952,,,,,,,,,,,,,,,,,,,,,,,,,,,,,,,157.1643,158.1524,158.1525,10,158.6519,160.9854,0.0015,161.1516,0.1665,0.1662,0.1666,0.1671,0.1662,0.1674,0.1701,0.1621,0.1666,0.1669,0.1719,161.1519,162.0351,left,0.8569,,162.0353,162.7014,right,0.6401,,14,0,18,162.7015,163.7078,0,8,8,8,1,prac_AB,L5_T1A_T2P,5,0,1,7,12,6,3,15,shirt,Did you see the shirt,0.17,0,resources/,pics/banjo.jpg,pics/chainsaw.jpg,pics/sailboat.jpg,pics/shipinabottle.jpg,pics/lightswitch01.jpg,pics/starfish01.jpg,pics/hen.jpg,pics/ball02.jpg,pics/bowlingpin.jpg,pics/hammerheadshark.jpg,pics/footballhelmet.jpg,pics/stapler10.jpg,pics/laptop01a.jpg,pics/cannon.jpg,pics/golfball.jpg,blankImage,blankImage,shirt02,13,0.1611,0.167,0.1664,,,,,,,,,,,,,,,,,,,,,,,,,,,,,,,,,,,,,,,,,,,,,,,,,,,,,,,,,,,,,,,,,,,,,,,,,,,,,,,,,,,,,,,,,,,,,,,,,
,,,,,5cb201e1fa4b72000183aa9e,6682b41eeb79ab8215dff63d,6682ba481805f49828e8b0db,59,Female,English,2024-07-01_15h17.23.415,ABmemTask3,2023.2.3,Win32,59.88023952,,,,,,,,,,,,,,,,,,,,,,,,,,,,,,,163.7085,164.7011,164.7012,10,165.201,166.8679,0.0015,167.034,0.1658,0.1668,0.1671,0.1661,0.1666,0.1665,0.1669,0.1665,0.1674,0.1659,,167.0343,168.1516,right,1.0917,,168.1516,169.0008,left,0.8266,,14,0,20,169.0009,170.001,0,9,9,9,1,prac_AB,L1_T1P_T2P,1,1,1,7,8,6,3,11,tongs,Did you see the tongs,0.16,0,resources/,pics/sewingmachine01a.jpg,pics/shovel01.jpg,pics/football.jpg,pics/hen.jpg,pics/banjo.jpg,pics/zebra.jpg,pics/tongs01b.jpg,pics/stapler11.jpg,pics/shipinabottle.jpg,pics/match.jpg,pics/candle01.jpg,blankImage,blankImage,blankImage,blankImage,blankImage,blankImage,tongs01b,5,,,,,,,,,,,,,,,,,,,,,,,,,,,,,,,,,,,,,,,,,,,,,,,,,,,,,,,,,,,,,,,,,,,,,,,,,,,,,,,,,,,,,,,,,,,,,,,,,,,,
,,,,,5cb201e1fa4b72000183aa9e,6682b41eeb79ab8215dff63d,6682ba481805f49828e8b0db,59,Female,English,2024-07-01_15h17.23.415,ABmemTask3,2023.2.3,Win32,59.88023952,,,,,,,,,,,,,,,,,,,,,,,,,,,,,,,170.0018,171.0002,171.0002,9,171.5002,173.1503,0.0016,173.2999,0.1496,0.1495,0.1499,0.151,0.1498,0.1491,0.1501,0.1507,0.1493,0.1499,0.15,173.3,174.4166,left,1.0873,,174.4166,174.9999,left,0.5538,,16,0,22,175,176.0001,0,10,10,10,1,prac_AB,L1_T1A_T2A,1,0,0,7,8,6,4,12,camera,Did you see the camera,0.15,0,resources/,pics/lightswitch01.jpg,pics/table01.jpg,pics/aquarium.jpg,pics/boot02b.jpg,pics/butterfly.jpg,pics/chainsaw.jpg,pics/binoculars01b.jpg,pics/giraffe.jpg,pics/triangle.jpg,pics/microscope.jpg,pics/mummy.jpg,pics/icecube01.jpg,blankImage,blankImage,blankImage,blankImage,blankImage,camera01a,10,,,,,,,,,,,,,,,,,,,,,,,,,,,,,,,,,,,,,,,,,,,,,,,,,,,,,,,,,,,,,,,,,,,,,,,,,,,,,,,,,,,,,,,,,,,,,,,,,,,,
,,,,,5cb201e1fa4b72000183aa9e,6682b41eeb79ab8215dff63d,6682ba481805f49828e8b0db,59,Female,English,2024-07-01_15h17.23.415,ABmemTask3,2023.2.3,Win32,59.88023952,,,,,,,,,,,,,,,,,,,,,,,,,,,,,,,176.0011,177.0035,177.0035,8,177.4997,178.7017,0.0013,178.8325,0.1326,0.1333,0.1335,0.133,0.1333,0.1334,0.1337,0.1327,0.1355,,,178.8326,179.6325,right,0.767,,179.6326,180.1491,right,0.4838,,18,0,24,180.1493,181.1488,0,11,11,11,1,prac_AB,L1_T1P_T2P,1,1,1,6,7,5,3,10,shorts,Did you see the shorts,0.14,0,resources/,pics/snowshoe.jpg,pics/chainsaw.jpg,pics/sailboat.jpg,pics/ball02.jpg,pics/candleholder01.jpg,pics/shorts01.jpg,pics/stapler07.jpg,pics/peach01.jpg,pics/proboscismonkey.jpg,pics/hen.jpg,blankImage,blankImage,blankImage,blankImage,blankImage,blankImage,blankImage,shorts01,4,,,,,,,,,,,,,,,,,,,,,,,,,,,,,,,,,,,,,,,,,,,,,,,,,,,,,,,,,,,,,,,,,,,,,,,,,,,,,,,,,,,,,,,,,,,,,,,,,,,,
,,,,,5cb201e1fa4b72000183aa9e,6682b41eeb79ab8215dff63d,6682ba481805f49828e8b0db,59,Female,English,2024-07-01_15h17.23.415,ABmemTask3,2023.2.3,Win32,59.88023952,,,,,,,,,,,,,,,,,,,,,,,,,,,,,,,181.1496,182.1489,182.149,8,182.6529,184.2489,0.0015,184.3818,0.1285,0.1332,0.134,0.1335,0.1329,0.1334,0.1329,0.1336,0.1334,0.133,0.1332,184.3818,185.2317,right,0.8162,,185.2319,186.2149,left,0.9483,,20,0,26,186.215,187.2155,0,12,12,12,1,prac_AB,L5_T1P_T2A,5,1,0,5,10,4,3,13,fish,Did you see the fish,0.13,0,resources/,pics/football.jpg,pics/safetypin.jpg,pics/shovel01.jpg,pics/sink.jpg,pics/holdfast.jpg,pics/nutcracker01.jpg,pics/starfish01.jpg,pics/onion.jpg,pics/footballhelmet.jpg,pics/boot02b.jpg,pics/sewingmachine01a.jpg,pics/kangaroo.jpg,pics/banjo.jpg,blankImage,blankImage,blankImage,blankImage,holdfast,14,0.1333,,,,,,,,,,,,,,,,,,,,,,,,,,,,,,,,,,,,,,,,,,,,,,,,,,,,,,,,,,,,,,,,,,,,,,,,,,,,,,,,,,,,,,,,,,,,,,,,,,,
,,,,,5cb201e1fa4b72000183aa9e,6682b41eeb79ab8215dff63d,6682ba481805f49828e8b0db,59,Female,English,2024-07-01_15h17.23.415,ABmemTask3,2023.2.3,Win32,59.88023952,,,,,,,,,,,,,,,,,,,,,,,,,,,,,,,187.2278,188.2317,188.2318,7,188.7317,189.7815,0.0013,189.8983,0.1161,0.1163,0.1164,0.1175,0.1163,0.1165,0.1166,0.1167,0.1167,,,189.8985,190.781,right,0.8501,,190.7812,191.431,left,0.6224,,20,0,28,191.4311,192.4366,0,13,13,13,1,prac_AB,L1_T1P_T2P,1,1,1,5,6,4,4,10,fish,Did you see the fish,0.12,0,resources/,pics/butterfly.jpg,pics/banjo.jpg,pics/leaf02a.jpg,pics/dustpan.jpg,pics/sturgeon.jpg,pics/stapler02.jpg,pics/necklace.jpg,pics/shovel01.jpg,pics/starfish01.jpg,pics/chainsaw.jpg,blankImage,blankImage,blankImage,blankImage,blankImage,blankImage,blankImage,sturgeon,3,,,,,,,,,,,,,,,,,,,,,,,,,,,,,,,,,,,,,,,,,,,,,,,,,,,,,,,,,,,,,,,,,,,,,,,,,,,,,,,,,,,,,,,,,,,,,,,,,,,,
,,,,,5cb201e1fa4b72000183aa9e,6682b41eeb79ab8215dff63d,6682ba481805f49828e8b0db,59,Female,English,2024-07-01_15h17.23.415,ABmemTask3,2023.2.3,Win32,59.88023952,,,,,,,,,,,,,,,,,,,,,,,,,,,,,,,,,,,,,,,,,,,,,,,,,,,,,,,,,,,,,,,,,,,,,,,,,,,,,,,,,,,,,,,,,,,,,,,,,,,,,,,,,,,192.4382,197.0152,space,4.5594,,,,,,,,,,,,,,,,,,,,,,,,,,,,,,,,,,,,,,,,,,,,,,,,,,,,,,,,,,,,,,,,,,,,,,,,,,,,,,,,,,,,,,,,,,,,,
,,,,,5cb201e1fa4b72000183aa9e,6682b41eeb79ab8215dff63d,6682ba481805f49828e8b0db,59,Female,English,2024-07-01_15h17.23.415,ABmemTask3,2023.2.3,Win32,59.88023952,,,,,,,,,,,,,,,,,,,,,,,,,,,,,,,,,,,,,,,,,,,,,,,,,,,,,,,,,,,,,,,,,,,,,,,,,,,,,,,,,,,,,,,,,,,,,,,,,,,,,,,,,,,197.0315,197.0359,,,,,,,,,,,,,,,,,,,,,,,,,,,,,,,,,,,,,,,,,,,,,,,,,,,,,,,,,,,,,,,,,,,,,,,,,,,,,,,,,,,,,,,,,,,,,,,
,,,,,5cb201e1fa4b72000183aa9e,6682b41eeb79ab8215dff63d,6682ba481805f49828e8b0db,59,Female,English,2024-07-01_15h17.23.415,ABmemTask3,2023.2.3,Win32,59.88023952,,,,,,,,,,,,,,,,,,,,,,,,,,,,,,,,,,,,,,,,,,,,,,,,,,,,,,,,,,,,,,,,,,,,,,,,,,,,,,,,,,,,,,,,,,,,,,,,,,,,,,,,,,,197.0388,197.0389,,,,,,,,,,,,,,,,,,,,,,,,,,,,,,,,,,,,,,,,,,,,,,,,,,,,,,,,,,,,,,,,,,,,,,,,,,,,,,,,,,,,,,,,,,,,,,,
,,,,,5cb201e1fa4b72000183aa9e,6682b41eeb79ab8215dff63d,6682ba481805f49828e8b0db,59,Female,English,2024-07-01_15h17.23.415,ABmemTask3,2023.2.3,Win32,59.88023952,,,,,,,,,,,,,,,,,,,,,,,,,,,,,,,,,,,,,,,,,,,,,,,,,,,,,,,,,,,,,,,,,,,,,,,,,,,,,,,,,,,,,,,,,,,,,,,,,,,,,,,,,,,197.0422,197.0423,,,,,,,,,,,,,,,,,,,,,,,,,,,,,,,,,,,,,,,,,,,,,,,,,,,,,,,,,,,,,,,,,,,,,,,,,,,,,,,,,,,,,,,,,,,,,,,
,,,,,5cb201e1fa4b72000183aa9e,6682b41eeb79ab8215dff63d,6682ba481805f49828e8b0db,59,Female,English,2024-07-01_15h17.23.415,ABmemTask3,2023.2.3,Win32,59.88023952,,,,,,,,,,,,,,,,,,,,,,,,,,,,,,,,,,,,,,,,,,,,,,,,,,,,,,,,,,,,,,,,,,,,,,,,,,,,,,,,,,,,,,,,,,,,,,,,,,,,,,,,,,,197.0443,197.0445,,,,,,,,,,,,,,,,,,,,,,,,,,,,,,,,,,,,,,,,,,,,,,,,,,,,,,,,,,,,,,,,,,,,,,,,,,,,,,,,,,,,,,,,,,,,,,,
,,,,,5cb201e1fa4b72000183aa9e,6682b41eeb79ab8215dff63d,6682ba481805f49828e8b0db,59,Female,English,2024-07-01_15h17.23.415,ABmemTask3,2023.2.3,Win32,59.88023952,,,,,,,,,,,,,,,,,,,,,,,,,,,,,,,,,,,,,,,,,,,,,,,,,,,,,,,,,,,,,,,,,,,,,,,,,,,,,,,,,,,,,,,,,,,,,,,,,,,,,,,,,,,197.0468,197.0468,,,,,,,,,,,,,,,,,,,,,,,,,,,,,,,,,,,,,,,,,,,,,,,,,,,,,,,,,,,,,,,,,,,,,,,,,,,,,,,,,,,,,,,,,,,,,,,
,,,,,5cb201e1fa4b72000183aa9e,6682b41eeb79ab8215dff63d,6682ba481805f49828e8b0db,59,Female,English,2024-07-01_15h17.23.415,ABmemTask3,2023.2.3,Win32,59.88023952,,,,,,,,,,,,,,,,,,,,,,,,,,,,,,,,,,,,,,,,,,,,,,,,,,,,,,,,,,,,,,,,,,,,,,,,,,,,,,,,,,,,,,,,,,,,,,,,,,,,,,,,,,,197.0485,197.0486,,,,,,,,,,,,,,,,,,,,,,,,,,,,,,,,,,,,,,,,,,,,,,,,,,,,,,,,,,,,,,,,,,,,,,,,,,,,,,,,,,,,,,,,,,,,,,,
,,,,,5cb201e1fa4b72000183aa9e,6682b41eeb79ab8215dff63d,6682ba481805f49828e8b0db,59,Female,English,2024-07-01_15h17.23.415,ABmemTask3,2023.2.3,Win32,59.88023952,,,,,,,,,,,,,,,,,,,,,,,,,,,,,,,,,,,,,,,,,,,,,,,,,,,,,,,,,,,,,,,,,,,,,,,,,,,,,,,,,,,,,,,,,,,,,,,,,,,,,,,,,,,197.051,197.0511,,,,,,,,,,,,,,,,,,,,,,,,,,,,,,,,,,,,,,,,,,,,,,,,,,,,,,,,,,,,,,,,,,,,,,,,,,,,,,,,,,,,,,,,,,,,,,,
,,,,,5cb201e1fa4b72000183aa9e,6682b41eeb79ab8215dff63d,6682ba481805f49828e8b0db,59,Female,English,2024-07-01_15h17.23.415,ABmemTask3,2023.2.3,Win32,59.88023952,,,,,,,,,,,,,,,,,,,,,,,,,,,,,,,,,,,,,,,,,,,,,,,,,,,,,,,,,,,,,,,,,,,,,,,,,,,,,,,,,,,,,,,,,,,,,,,,,,,,,,,,,,,197.0527,197.0528,,,,,,,,,,,,,,,,,,,,,,,,,,,,,,,,,,,,,,,,,,,,,,,,,,,,,,,,,,,,,,,,,,,,,,,,,,,,,,,,,,,,,,,,,,,,,,,
,,,,,5cb201e1fa4b72000183aa9e,6682b41eeb79ab8215dff63d,6682ba481805f49828e8b0db,59,Female,English,2024-07-01_15h17.23.415,ABmemTask3,2023.2.3,Win32,59.88023952,,,,,,,,,,,,,,,,,,,,,,,,,,,,,,,,,,,,,,,,,,,,,,,,,,,,,,,,,,,,,,,,,,,,,,,,,,,,,,,,,,,,,,,,,,,,,,,,,,,,,,,,,,,197.0544,197.0544,,,,,,,,,,,,,,,,,,,,,,,,,,,,,,,,,,,,,,,,,,,,,,,,,,,,,,,,,,,,,,,,,,,,,,,,,,,,,,,,,,,,,,,,,,,,,,,
,,,,,5cb201e1fa4b72000183aa9e,6682b41eeb79ab8215dff63d,6682ba481805f49828e8b0db,59,Female,English,2024-07-01_15h17.23.415,ABmemTask3,2023.2.3,Win32,59.88023952,,,,,,,,,,,,,,,,,,,,,,,,,,,,,,,,,,,,,,,,,,,,,,,,,,,,,,,,,,,,,,,,,,,,,,,,,,,,,,,,,,,,,,,,,,,,,,,,,,,,,,,,,,,197.0577,197.0578,,,,,,,,,,,,,,,,,,,,,,,,,,,,,,,,,,,,,,,,,,,,,,,,,,,,,,,,,,,,,,,,,,,,,,,,,,,,,,,,,,,,,,,,,,,,,,,
,,,,,5cb201e1fa4b72000183aa9e,6682b41eeb79ab8215dff63d,6682ba481805f49828e8b0db,59,Female,English,2024-07-01_15h17.23.415,ABmemTask3,2023.2.3,Win32,59.88023952,,,,,,,,,,,,,,,,,,,,,,,,,,,,,,,,,,,,,,,,,,,,,,,,,,,,,,,,,,,,,,,,,,,,,,,,,,,,,,,,,,,,,,,,,,,,,,,,,,,,,,,,,,,197.0604,197.0604,,,,,,,,,,,,,,,,,,,,,,,,,,,,,,,,,,,,,,,,,,,,,,,,,,,,,,,,,,,,,,,,,,,,,,,,,,,,,,,,,,,,,,,,,,,,,,,
,,,,,5cb201e1fa4b72000183aa9e,6682b41eeb79ab8215dff63d,6682ba481805f49828e8b0db,59,Female,English,2024-07-01_15h17.23.415,ABmemTask3,2023.2.3,Win32,59.88023952,,,,,,,,,,,,,,,,,,,,,,,,,,,,,,,,,,,,,,,,,,,,,,,,,,,,,,,,,,,,,,,,,,,,,,,,,,,,,,,,,,,,,,,,,,,,,,,,,,,,,,,,,,,197.0631,197.0632,,,,,,,,,,,,,,,,,,,,,,,,,,,,,,,,,,,,,,,,,,,,,,,,,,,,,,,,,,,,,,,,,,,,,,,,,,,,,,,,,,,,,,,,,,,,,,,
,,,,,5cb201e1fa4b72000183aa9e,6682b41eeb79ab8215dff63d,6682ba481805f49828e8b0db,59,Female,English,2024-07-01_15h17.23.415,ABmemTask3,2023.2.3,Win32,59.88023952,,,,,,,,,,,,,,,,,,,,,,,,,,,,,,,,,,,,,,,,,,,,,,,,,,,,,,,,,,,,,,,,,,,,,,,,,,,,,,,,,,,,,,,,,,,,,,,,,,,,,,,,,,,197.0659,197.066,,,,,,,,,,,,,,,,,,,,,,,,,,,,,,,,,,,,,,,,,,,,,,,,,,,,,,,,,,,,,,,,,,,,,,,,,,,,,,,,,,,,,,,,,,,,,,,
,,,,,5cb201e1fa4b72000183aa9e,6682b41eeb79ab8215dff63d,6682ba481805f49828e8b0db,59,Female,English,2024-07-01_15h17.23.415,ABmemTask3,2023.2.3,Win32,59.88023952,,,,,,,,,,,,,,,,,,,,,,,,,,,,,,,,,,,,,,,,,,,,,,,,,,,,,,,,,,,,,,,,,,,,,,,,,,,,,,,,,,,,,,,,,,,,,,,,,,,,,,,,,,,197.0694,197.0694,,,,,,,,,,,,,,,,,,,,,,,,,,,,,,,,,,,,,,,,,,,,,,,,,,,,,,,,,,,,,,,,,,,,,,,,,,,,,,,,,,,,,,,,,,,,,,,
,,,,,5cb201e1fa4b72000183aa9e,6682b41eeb79ab8215dff63d,6682ba481805f49828e8b0db,59,Female,English,2024-07-01_15h17.23.415,ABmemTask3,2023.2.3,Win32,59.88023952,,,,,,,,,,,,,,,,,,,,,,,,,,,,,,,,,,,,,,,,,,,,,,,,,,,,,,,,,,,,,,,,,,,,,,,,,,,,,,,,,,,,,,,,,,,,,,,,,,,,,,,,,,,197.071,197.071,,,,,,,,,,,,,,,,,,,,,,,,,,,,,,,,,,,,,,,,,,,,,,,,,,,,,,,,,,,,,,,,,,,,,,,,,,,,,,,,,,,,,,,,,,,,,,,
,,,,,5cb201e1fa4b72000183aa9e,6682b41eeb79ab8215dff63d,6682ba481805f49828e8b0db,59,Female,English,2024-07-01_15h17.23.415,ABmemTask3,2023.2.3,Win32,59.88023952,,,,,,,,,,,,,,,,,,,,,,,,,,,,,,,,,,,,,,,,,,,,,,,,,,,,,,,,,,,,,,,,,,,,,,,,,,,,,,,,,,,,,,,,,,,,,,,,,,,,,,,,,,,197.073,197.0731,,,,,,,,,,,,,,,,,,,,,,,,,,,,,,,,,,,,,,,,,,,,,,,,,,,,,,,,,,,,,,,,,,,,,,,,,,,,,,,,,,,,,,,,,,,,,,,
,,,,,5cb201e1fa4b72000183aa9e,6682b41eeb79ab8215dff63d,6682ba481805f49828e8b0db,59,Female,English,2024-07-01_15h17.23.415,ABmemTask3,2023.2.3,Win32,59.88023952,,,,,,,,,,,,,,,,,,,,,,,,,,,,,,,,,,,,,,,,,,,,,,,,,,,,,,,,,,,,,,,,,,,,,,,,,,,,,,,,,,,,,,,,,,,,,,,,,,,,,,,,,,,197.0746,197.0747,,,,,,,,,,,,,,,,,,,,,,,,,,,,,,,,,,,,,,,,,,,,,,,,,,,,,,,,,,,,,,,,,,,,,,,,,,,,,,,,,,,,,,,,,,,,,,,
,,,,,5cb201e1fa4b72000183aa9e,6682b41eeb79ab8215dff63d,6682ba481805f49828e8b0db,59,Female,English,2024-07-01_15h17.23.415,ABmemTask3,2023.2.3,Win32,59.88023952,,,,,,,,,,,,,,,,,,,,,,,,,,,,,,,,,,,,,,,,,,,,,,,,,,,,,,,,,,,,,,,,,,,,,,,,,,,,,,,,,,,,,,,,,,,,,,,,,,,,,,,,,,,197.0774,197.0775,,,,,,,,,,,,,,,,,,,,,,,,,,,,,,,,,,,,,,,,,,,,,,,,,,,,,,,,,,,,,,,,,,,,,,,,,,,,,,,,,,,,,,,,,,,,,,,
,,,,,5cb201e1fa4b72000183aa9e,6682b41eeb79ab8215dff63d,6682ba481805f49828e8b0db,59,Female,English,2024-07-01_15h17.23.415,ABmemTask3,2023.2.3,Win32,59.88023952,,,,,,,,,,,,,,,,,,,,,,,,,,,,,,,,,,,,,,,,,,,,,,,,,,,,,,,,,,,,,,,,,,,,,,,,,,,,,,,,,,,,,,,,,,,,,,,,,,,,,,,,,,,197.0788,197.0788,,,,,,,,,,,,,,,,,,,,,,,,,,,,,,,,,,,,,,,,,,,,,,,,,,,,,,,,,,,,,,,,,,,,,,,,,,,,,,,,,,,,,,,,,,,,,,,
,,,,,5cb201e1fa4b72000183aa9e,6682b41eeb79ab8215dff63d,6682ba481805f49828e8b0db,59,Female,English,2024-07-01_15h17.23.415,ABmemTask3,2023.2.3,Win32,59.88023952,,,,,,,,,,,,,,,,,,,,,,,,,,,,,,,,,,,,,,,,,,,,,,,,,,,,,,,,,,,,,,,,,,,,,,,,,,,,,,,,,,,,,,,,,,,,,,,,,,,,,,,,,,,197.0803,197.0803,,,,,,,,,,,,,,,,,,,,,,,,,,,,,,,,,,,,,,,,,,,,,,,,,,,,,,,,,,,,,,,,,,,,,,,,,,,,,,,,,,,,,,,,,,,,,,,
,,,,,5cb201e1fa4b72000183aa9e,6682b41eeb79ab8215dff63d,6682ba481805f49828e8b0db,59,Female,English,2024-07-01_15h17.23.415,ABmemTask3,2023.2.3,Win32,59.88023952,,,,,,,,,,,,,,,,,,,,,,,,,,,,,,,,,,,,,,,,,,,,,,,,,,,,,,,,,,,,,,,,,,,,,,,,,,,,,,,,,,,,,,,,,,,,,,,,,,,,,,,,,,,197.0828,197.0829,,,,,,,,,,,,,,,,,,,,,,,,,,,,,,,,,,,,,,,,,,,,,,,,,,,,,,,,,,,,,,,,,,,,,,,,,,,,,,,,,,,,,,,,,,,,,,,
,,,,,5cb201e1fa4b72000183aa9e,6682b41eeb79ab8215dff63d,6682ba481805f49828e8b0db,59,Female,English,2024-07-01_15h17.23.415,ABmemTask3,2023.2.3,Win32,59.88023952,,,,,,,,,,,,,,,,,,,,,,,,,,,,,,,,,,,,,,,,,,,,,,,,,,,,,,,,,,,,,,,,,,,,,,,,,,,,,,,,,,,,,,,,,,,,,,,,,,,,,,,,,,,,,,,,197.0831,236.6429,space,39.5205,,,,,,,,,,,,,,,,,,,,,,,,,,,,,,,,,,,,,,,,,,,,,,,,,,,,,,,,,,,,,,,,,,,,,,,,,,,,,,,,,,,,,,,,
,,,,,5cb201e1fa4b72000183aa9e,6682b41eeb79ab8215dff63d,6682ba481805f49828e8b0db,59,Female,English,2024-07-01_15h17.23.415,ABmemTask3,2023.2.3,Win32,59.88023952,,,,,,,,,,,,,,,,,,,,,,,,,,,,,,,,,236.6593,599,237.158,,,,,,,,,,,,,,,,,,,,,,,,,,0,,,,,,,,,prac_MEM,new,,,,,,,,,,,10,,,,,,,,,,,,,,,,,,,,,,,,,,,,,,,,,,,237.1583,242.6748,3,1,5.4836,,242.6758,243.6738,0,0,0,7,1,999,999,pics/cherry01.jpg,,,,,,,,,,,,,,,,,,,,,,,,,,,,,,,,,,,,,,,,,,,,,,,,,,,,,,,,,,,,,,,,,,,,,,,
,,,,,5cb201e1fa4b72000183aa9e,6682b41eeb79ab8215dff63d,6682ba481805f49828e8b0db,59,Female,English,2024-07-01_15h17.23.415,ABmemTask3,2023.2.3,Win32,59.88023952,,,,,,,,,,,,,,,,,,,,,,,,,,,,,,,,,243.6864,599,244.1909,,,,,,,,,,,,,,,,,,,,,,,,,,0,,,,,,,,,prac_MEM,old,,,,,,,,,,,10,,,,,,,,,,,,,,,,,,,,,,,,,,,,,,,,,,,244.1911,246.8574,6,6,2.6436,,246.8581,247.8564,0,1,1,0,1,1,1,pics/tree.jpg,,,,,,,,,,,,,,,,,,,,,,,,,,,,,,,,,,,,,,,,,,,,,,,,,,,,,,,,,,,,,,,,,,,,,,,
,,,,,5cb201e1fa4b72000183aa9e,6682b41eeb79ab8215dff63d,6682ba481805f49828e8b0db,59,Female,English,2024-07-01_15h17.23.415,ABmemTask3,2023.2.3,Win32,59.88023952,,,,,,,,,,,,,,,,,,,,,,,,,,,,,,,,,247.8688,599,248.3571,,,,,,,,,,,,,,,,,,,,,,,,,,0,,,,,,,,,prac_MEM,new,,,,,,,,,,,10,,,,,,,,,,,,,,,,,,,,,,,,,,,,,,,,,,,248.3571,251.0734,-3,6,2.6936,,251.0741,252.0732,0,2,2,9,1,999,999,pics/moth.jpg,,,,,,,,,,,,,,,,,,,,,,,,,,,,,,,,,,,,,,,,,,,,,,,,,,,,,,,,,,,,,,,,,,,,,,,
,,,,,5cb201e1fa4b72000183aa9e,6682b41eeb79ab8215dff63d,6682ba481805f49828e8b0db,59,Female,English,2024-07-01_15h17.23.415,ABmemTask3,2023.2.3,Win32,59.88023952,,,,,,,,,,,,,,,,,,,,,,,,,,,,,,,,,252.0857,599,252.5891,,,,,,,,,,,,,,,,,,,,,,,,,,0,,,,,,,,,prac_MEM,new,,,,,,,,,,,10,,,,,,,,,,,,,,,,,,,,,,,,,,,,,,,,,,,252.5891,256.0224,-12,6,3.4087,,256.0233,257.0222,0,3,3,8,1,999,999,pics/thread02.jpg,,,,,,,,,,,,,,,,,,,,,,,,,,,,,,,,,,,,,,,,,,,,,,,,,,,,,,,,,,,,,,,,,,,,,,,
,,,,,5cb201e1fa4b72000183aa9e,6682b41eeb79ab8215dff63d,6682ba481805f49828e8b0db,59,Female,English,2024-07-01_15h17.23.415,ABmemTask3,2023.2.3,Win32,59.88023952,,,,,,,,,,,,,,,,,,,,,,,,,,,,,,,,,257.0344,599,257.5384,,,,,,,,,,,,,,,,,,,,,,,,,,0,,,,,,,,,prac_MEM,old,,,,,,,,,,,10,,,,,,,,,,,,,,,,,,,,,,,,,,,,,,,,,,,257.5384,260.8387,-15,1,3.2781,,260.8399,261.8386,0,4,4,6,1,12,5,pics/humanskull.jpg,,,,,,,,,,,,,,,,,,,,,,,,,,,,,,,,,,,,,,,,,,,,,,,,,,,,,,,,,,,,,,,,,,,,,,,
,,,,,5cb201e1fa4b72000183aa9e,6682b41eeb79ab8215dff63d,6682ba481805f49828e8b0db,59,Female,English,2024-07-01_15h17.23.415,ABmemTask3,2023.2.3,Win32,59.88023952,,,,,,,,,,,,,,,,,,,,,,,,,,,,,,,,,261.8509,599,262.3384,,,,,,,,,,,,,,,,,,,,,,,,,,0,,,,,,,,,prac_MEM,old,,,,,,,,,,,10,,,,,,,,,,,,,,,,,,,,,,,,,,,,,,,,,,,262.3385,267.2538,-12,6,4.9006,,267.2547,268.2537,0,5,5,2,1,3,1,pics/sturgeon.jpg,,,,,,,,,,,,,,,,,,,,,,,,,,,,,,,,,,,,,,,,,,,,,,,,,,,,,,,,,,,,,,,,,,,,,,,
,,,,,5cb201e1fa4b72000183aa9e,6682b41eeb79ab8215dff63d,6682ba481805f49828e8b0db,59,Female,English,2024-07-01_15h17.23.415,ABmemTask3,2023.2.3,Win32,59.88023952,,,,,,,,,,,,,,,,,,,,,,,,,,,,,,,,,268.2657,599,268.7539,,,,,,,,,,,,,,,,,,,,,,,,,,0,,,,,,,,,prac_MEM,old,,,,,,,,,,,10,,,,,,,,,,,,,,,,,,,,,,,,,,,,,,,,,,,268.7539,270.8867,-9,6,2.1142,,270.8876,271.8864,0,6,6,1,1,2,1,pics/pants.jpg,,,,,,,,,,,,,,,,,,,,,,,,,,,,,,,,,,,,,,,,,,,,,,,,,,,,,,,,,,,,,,,,,,,,,,,
,,,,,5cb201e1fa4b72000183aa9e,6682b41eeb79ab8215dff63d,6682ba481805f49828e8b0db,59,Female,English,2024-07-01_15h17.23.415,ABmemTask3,2023.2.3,Win32,59.88023952,,,,,,,,,,,,,,,,,,,,,,,,,,,,,,,,,271.887,599,272.3871,,,,,,,,,,,,,,,,,,,,,,,,,,0,,,,,,,,,prac_MEM,new,,,,,,,,,,,10,,,,,,,,,,,,,,,,,,,,,,,,,,,,,,,,,,,272.3872,273.8032,-6,1,1.3989,,273.8035,274.8033,0,7,7,10,1,999,999,pics/tomato01.jpg,,,,,,,,,,,,,,,,,,,,,,,,,,,,,,,,,,,,,,,,,,,,,,,,,,,,,,,,,,,,,,,,,,,,,,,
,,,,,5cb201e1fa4b72000183aa9e,6682b41eeb79ab8215dff63d,6682ba481805f49828e8b0db,59,Female,English,2024-07-01_15h17.23.415,ABmemTask3,2023.2.3,Win32,59.88023952,,,,,,,,,,,,,,,,,,,,,,,,,,,,,,,,,274.8163,599,275.32,,,,,,,,,,,,,,,,,,,,,,,,,,0,,,,,,,,,prac_MEM,old,,,,,,,,,,,10,,,,,,,,,,,,,,,,,,,,,,,,,,,,,,,,,,,275.32,276.3696,-3,6,1.0292,,276.3698,277.3695,0,8,8,3,1,4,1,pics/shorts01.jpg,,,,,,,,,,,,,,,,,,,,,,,,,,,,,,,,,,,,,,,,,,,,,,,,,,,,,,,,,,,,,,,,,,,,,,,
,,,,,5cb201e1fa4b72000183aa9e,6682b41eeb79ab8215dff63d,6682ba481805f49828e8b0db,59,Female,English,2024-07-01_15h17.23.415,ABmemTask3,2023.2.3,Win32,59.88023952,,,,,,,,,,,,,,,,,,,,,,,,,,,,,,,,,277.37,599,277.8694,,,,,,,,,,,,,,,,,,,,,,,,,,0,,,,,,,,,prac_MEM,old,,,,,,,,,,,10,,,,,,,,,,,,,,,,,,,,,,,,,,,,,,,,,,,277.8695,278.7522,0,6,0.8699,,278.7529,279.7521,0,9,9,4,1,5,1,pics/tongs01b.jpg,,,,,,,,,,,,,,,,,,,,,,,,,,,,,,,,,,,,,,,,,,,,,,,,,,,,,,,,,,,,,,,,,,,,,,,
,,,,,5cb201e1fa4b72000183aa9e,6682b41eeb79ab8215dff63d,6682ba481805f49828e8b0db,59,Female,English,2024-07-01_15h17.23.415,ABmemTask3,2023.2.3,Win32,59.88023952,,,,,,,,,,,,,,,,,,,,,,,,,,,,,,,,,279.7527,599,280.2521,,,,,,,,,,,,,,,,,,,,,,,,,,0,,,,,,,,,prac_MEM,old,,,,,,,,,,,10,,,,,,,,,,,,,,,,,,,,,,,,,,,,,,,,,,,280.2521,281.0518,3,6,0.7776,,281.0521,282.0518,0,10,10,5,1,11,5,pics/grater01a.jpg,,,,,,,,,,,,,,,,,,,,,,,,,,,,,,,,,,,,,,,,,,,,,,,,,,,,,,,,,,,,,,,,,,,,,,,
,,,,,5cb201e1fa4b72000183aa9e,6682b41eeb79ab8215dff63d,6682ba481805f49828e8b0db,59,Female,English,2024-07-01_15h17.23.415,ABmemTask3,2023.2.3,Win32,59.88023952,,,,,,,,,,,,,,,,,,,,,,,,,,,,,,,,,,,,,,,,,,,,,,,,,,,,,,,,,,,,,,,,,,,,,,,,,,,,,,,,,,,,,,,,,,,,,,,,,,,,,,,,,,,,,,,,,,,,,,,,,,,,,,,,,,,,,282.0523,283.9015,283.9015,283.9019,,,,,,,,,,,,,,,,,,,,,,,,,,,,,,,,,,,,,,,,,,,,,,,,,,,,,,,,,,,,,,,,,,,
,,,,,5cb201e1fa4b72000183aa9e,6682b41eeb79ab8215dff63d,6682ba481805f49828e8b0db,59,Female,English,2024-07-01_15h17.23.415,ABmemTask3,2023.2.3,Win32,59.88023952,,,,,,,,,,,,,,,,,,space,46.7852,,,,,,,,,,,,,,,,,,,,,,,,,,,,,,,,,,,,,,,,,,,,,,,,,,,,,,,,,,,,,,,,,,,,,,,,,,,,,,,,,,,,,,,,,,,,,,,,,,,,,,,,,,,,,,,,,,,,,,283.9022,330.7305,,,,,,,,,,,,,,,,,,,,,,,,,,,,,,,,,,,,,,,,,,,,,,,,,,,,,,,,,,,,,,,,,
,,,,,5cb201e1fa4b72000183aa9e,6682b41eeb79ab8215dff63d,6682ba481805f49828e8b0db,59,Female,English,2024-07-01_15h17.23.415,ABmemTask3,2023.2.3,Win32,59.88023952,,,,,,,,,,,,,,,,,,,,,,,,,,,,,,,,,,,,,,,,,,,,,,,,,,,,,,,,,,,,,,,,,,,,,,,,,,,,,,,,,,,,,,,,,,,,,,,,,,,,,,,,,,,,,,,,,,,,,,,,,,,,,,,,,,,,,,,,,,,330.7307,355.9763,space,25.2043,,,,,,,,,,,,,,,,,,,,,,,,,,,,,,,,,,,,,,,,,,,,,,,,,,,,,,,,,,,,,
,,,,,5cb201e1fa4b72000183aa9e,6682b41eeb79ab8215dff63d,6682ba481805f49828e8b0db,59,Female,English,2024-07-01_15h17.23.415,ABmemTask3,2023.2.3,Win32,59.88023952,,,,,,,,,,,,,,,,,,,,,,,,,,,,,,,355.9875,356.9915,356.9916,7,357.4914,358.6584,0.0015,358.7747,0.1167,0.1162,0.1173,0.1157,0.1165,0.1175,0.1168,0.1158,0.1168,0.1165,,358.7751,360.3746,left,1.5796,,360.3747,361.9244,right,1.536,,2,0,2,361.9245,362.9248,,,,,,1_AB,L1_T1A_T2P,1,0,1,5,6,4,5,11,Recorder,Did you see the Recorder,0.12,0,resources/,pics/bowtie.jpg,pics/nutcracker01.jpg,pics/hairdryer02a.jpg,pics/shovel01.jpg,pics/onion.jpg,pics/stapler13.jpg,pics/safetypin.jpg,pics/spiderweb.jpg,pics/seagull.jpg,pics/dustpan.jpg,pics/icecube01.jpg,blankImage,blankImage,blankImage,blankImage,blankImage,blankImage,recorder04,28,,,,,,,,,,,,,,,,,,,,,,,,,,,,,,,,,,,,,,,,,0,0,0,27,1,,,,,,,,,,,,,,,,,,,,,,,,,,,,,,,,,,,,,,,,,,,,,,,,,,,,,,,
,,,,,5cb201e1fa4b72000183aa9e,6682b41eeb79ab8215dff63d,6682ba481805f49828e8b0db,59,Female,English,2024-07-01_15h17.23.415,ABmemTask3,2023.2.3,Win32,59.88023952,,,,,,,,,,,,,,,,,,,,,,,,,,,,,,,362.9373,363.9407,363.9407,7,364.4405,365.2576,0.0015,365.3738,0.1168,0.1169,0.1154,0.1169,0.1166,0.1167,0.1166,,,,,365.3738,366.2737,right,0.8747,,366.2738,369.5398,right,3.259,,4,0,4,369.54,370.5406,,,,,,1_AB,L1_T1P_T2P,1,1,1,4,5,3,3,8,Recycling bin,Did you see the Recycling bin,0.12,0,resources/,pics/microscope.jpg,pics/dustpan.jpg,pics/seagull.jpg,pics/recyclingbin.jpg,pics/stapler06.jpg,pics/bowtie.jpg,pics/dromedary.jpg,pics/salmon.jpg,blankImage,blankImage,blankImage,blankImage,blankImage,blankImage,blankImage,blankImage,blankImage,recyclingbin,16,,,,,,,,,,,,,,,,,,,,,,,,,,,,,,,,,,,,,,,,,0,1,1,15,1,,,,,,,,,,,,,,,,,,,,,,,,,,,,,,,,,,,,,,,,,,,,,,,,,,,,,,,
,,,,,5cb201e1fa4b72000183aa9e,6682b41eeb79ab8215dff63d,6682ba481805f49828e8b0db,59,Female,English,2024-07-01_15h17.23.415,ABmemTask3,2023.2.3,Win32,59.88023952,,,,,,,,,,,,,,,,,,,,,,,,,,,,,,,370.5527,371.5562,371.5564,7,372.0562,372.8739,0.0012,372.9894,0.1163,0.1166,0.1173,0.1164,0.1161,0.1167,0.1173,,,,,372.9895,373.7566,left,0.7416,,373.7568,374.906,right,1.1202,,6,0,6,374.9061,375.9057,,,,,,1_AB,L1_T1A_T2P,1,0,1,4,5,3,3,8,Parking meter,Did you see the Parking meter,0.12,0,resources/,pics/leaf02a.jpg,pics/carrot01.jpg,pics/sink.jpg,pics/butterfly.jpg,pics/stapler10.jpg,pics/pictureframe04.jpg,pics/spiderweb.jpg,pics/icecube01.jpg,blankImage,blankImage,blankImage,blankImage,blankImage,blankImage,blankImage,blankImage,blankImage,parkingmeter,30,,,,,,,,,,,,,,,,,,,,,,,,,,,,,,,,,,,,,,,,,0,2,2,29,1,,,,,,,,,,,,,,,,,,,,,,,,,,,,,,,,,,,,,,,,,,,,,,,,,,,,,,,
,,,,,5cb201e1fa4b72000183aa9e,6682b41eeb79ab8215dff63d,6682ba481805f49828e8b0db,59,Female,English,2024-07-01_15h17.23.415,ABmemTask3,2023.2.3,Win32,59.88023952,,,,,,,,,,,,,,,,,,,,,,,,,,,,,,,375.9064,376.9056,376.9056,7,377.4058,378.6891,0.0011,378.8052,0.1163,0.1168,0.1163,0.117,0.1163,0.1173,0.1159,0.1167,0.1173,0.116,0.1167,378.8053,379.5719,right,0.7378,,379.5721,380.7385,right,1.1368,,4,0,8,380.7386,381.7382,,,,,,1_AB,L1_T1P_T2A,1,1,0,7,8,6,4,12,Tennis racket,Did you see the Tennis racket,0.12,0,resources/,pics/banjo.jpg,pics/leaf02a.jpg,pics/shovel01.jpg,pics/microscope.jpg,pics/cork02.jpg,pics/seagull.jpg,pics/tennisracket.jpg,pics/binder03b.jpg,pics/floortile02.jpg,pics/carrot01.jpg,pics/candle01.jpg,pics/siamesecat.jpg,blankImage,blankImage,blankImage,blankImage,blankImage,tennisracket,38,,,,,,,,,,,,,,,,,,,,,,,,,,,,,,,,,,,,,,,,,0,3,3,37,1,,,,,,,,,,,,,,,,,,,,,,,,,,,,,,,,,,,,,,,,,,,,,,,,,,,,,,,
,,,,,5cb201e1fa4b72000183aa9e,6682b41eeb79ab8215dff63d,6682ba481805f49828e8b0db,59,Female,English,2024-07-01_15h17.23.415,ABmemTask3,2023.2.3,Win32,59.88023952,,,,,,,,,,,,,,,,,,,,,,,,,,,,,,,381.7506,382.7547,382.7548,7,383.2556,385.1223,0.0014,385.2384,0.1156,0.1166,0.1162,0.1223,0.1113,0.1166,0.1164,0.1168,0.1167,0.1168,0.1165,385.2385,386.3098,left,1.0482,,386.3098,387.7542,left,1.4165,,6,0,10,387.7544,388.754,,,,,,1_AB,L5_T1A_T2A,5,0,0,7,12,6,5,17,Bib,Did you see the Bib,0.12,0,resources/,pics/hammerheadshark.jpg,pics/wheel01.jpg,pics/binder03b.jpg,pics/hairdryer02a.jpg,pics/christmaslights.jpg,pics/sandbarshark.jpg,pics/binoculars01b.jpg,pics/piggybank.jpg,pics/aquarium.jpg,pics/candleholder01.jpg,pics/sink.jpg,pics/calendar.jpg,pics/birdhouse.jpg,pics/bowtie.jpg,pics/onion.jpg,pics/golfball.jpg,pics/sailboat.jpg,bib,62,0.1173,0.1157,0.1217,,,,,,,,,,,,,,,,,,,,,,,,,,,,,,,,,,,,,,0,4,4,61,1,0.1114,0.1176,,,,,,,,,,,,,,,,,,,,,,,,,,,,,,,,,,,,,,,,,,,,,,,,,,,,,
,,,,,5cb201e1fa4b72000183aa9e,6682b41eeb79ab8215dff63d,6682ba481805f49828e8b0db,59,Female,English,2024-07-01_15h17.23.415,ABmemTask3,2023.2.3,Win32,59.88023952,,,,,,,,,,,,,,,,,,,,,,,,,,,,,,,388.7547,389.7538,389.7539,7,390.2537,392.0048,0.0014,392.1207,0.1165,0.1161,0.1175,0.1166,0.1159,0.1168,0.1171,0.1162,0.1165,0.1169,0.1231,392.1209,393.4757,left,1.3333,,393.4757,394.5198,right,1.0261,,2,0,12,394.52,395.5199,,,,,,1_AB,L5_T1P_T2A,5,1,0,7,12,6,4,16,boat,Did you see the boat,0.12,0,resources/,pics/butterfly.jpg,pics/onion.jpg,pics/hose.jpg,pics/ball02.jpg,pics/ashtray01.jpg,pics/bowtie.jpg,pics/boat.jpg,pics/seaturtle.jpg,pics/blender.jpg,pics/zebra.jpg,pics/pictureframe04.jpg,pics/shovel01.jpg,pics/spoon01.jpg,pics/peanut01.jpg,pics/nutcracker01.jpg,pics/aquarium.jpg,blankImage,boat,60,0.1109,0.1159,0.1173,,,,,,,,,,,,,,,,,,,,,,,,,,,,,,,,,,,,,,0,5,5,59,1,0.1168,,,,,,,,,,,,,,,,,,,,,,,,,,,,,,,,,,,,,,,,,,,,,,,,,,,,,,
,,,,,5cb201e1fa4b72000183aa9e,6682b41eeb79ab8215dff63d,6682ba481805f49828e8b0db,59,Female,English,2024-07-01_15h17.23.415,ABmemTask3,2023.2.3,Win32,59.88023952,,,,,,,,,,,,,,,,,,,,,,,,,,,,,,,395.5321,396.52,396.5201,7,397.0195,398.1864,0.0016,398.3031,0.1166,0.1159,0.1168,0.1164,0.1166,0.1167,0.1176,0.1158,0.117,0.1162,,398.3032,399.236,right,0.8996,,399.236,400.5858,left,1.3214,,2,0,14,400.5859,401.5855,,,,,,1_AB,L1_T1P_T2P,1,1,1,7,8,6,3,11,Eiffel tower,Did you see the Eiffel tower,0.12,0,resources/,pics/seagull.jpg,pics/cymbal.jpg,pics/match.jpg,pics/binoculars01b.jpg,pics/ball02.jpg,pics/onion.jpg,pics/eiffeltower.jpg,pics/stapler11.jpg,pics/peach01.jpg,pics/sandbarshark.jpg,pics/boot02b.jpg,blankImage,blankImage,blankImage,blankImage,blankImage,blankImage,eiffeltower,1,,,,,,,,,,,,,,,,,,,,,,,,,,,,,,,,,,,,,,,,,0,6,6,0,1,,,,,,,,,,,,,,,,,,,,,,,,,,,,,,,,,,,,,,,,,,,,,,,,,,,,,,,
,,,,,5cb201e1fa4b72000183aa9e,6682b41eeb79ab8215dff63d,6682ba481805f49828e8b0db,59,Female,English,2024-07-01_15h17.23.415,ABmemTask3,2023.2.3,Win32,59.88023952,,,,,,,,,,,,,,,,,,,,,,,,,,,,,,,401.5978,402.5856,402.5856,7,403.0853,404.3689,0.0014,404.4859,0.1213,0.1167,0.1113,0.1169,0.1168,0.1172,0.1157,0.1167,0.1173,0.1167,0.1159,404.486,405.8687,right,1.3593,,405.8688,406.5526,right,0.6583,,4,0,16,406.5527,407.5515,,,,,,1_AB,L5_T1P_T2P,5,1,1,4,9,3,3,12,Sheep,Did you see the Sheep,0.12,0,resources/,pics/icecube01.jpg,pics/cymbal.jpg,pics/wheel01.jpg,pics/sheep.jpg,pics/starfish01.jpg,pics/safetypin.jpg,pics/siamesecat.jpg,pics/lock03a.jpg,pics/stapler01.jpg,pics/sink.jpg,pics/fanblades.jpg,pics/bowlingpin.jpg,blankImage,blankImage,blankImage,blankImage,blankImage,sheep,52,,,,,,,,,,,,,,,,,,,,,,,,,,,,,,,,,,,,,,,,,0,7,7,51,1,,,,,,,,,,,,,,,,,,,,,,,,,,,,,,,,,,,,,,,,,,,,,,,,,,,,,,,
,,,,,5cb201e1fa4b72000183aa9e,6682b41eeb79ab8215dff63d,6682ba481805f49828e8b0db,59,Female,English,2024-07-01_15h17.23.415,ABmemTask3,2023.2.3,Win32,59.88023952,,,,,,,,,,,,,,,,,,,,,,,,,,,,,,,407.5637,408.5512,408.5513,7,409.0516,409.9849,0.0014,410.101,0.1164,0.1162,0.1163,0.1164,0.1176,0.1161,0.1169,0.1161,,,,410.1011,411.1844,right,1.0575,,411.1845,411.8842,right,0.667,,2,0,18,411.8843,412.8839,,,,,,1_AB,L1_T1P_T2A,1,1,0,4,5,3,4,9,blueberry,Did you see the blueberry,0.12,0,resources/,pics/sealion.jpg,pics/piggybank.jpg,pics/sink.jpg,pics/blueberry01.jpg,pics/onion.jpg,pics/sailboat.jpg,pics/seaturtle.jpg,pics/hen.jpg,pics/fanblades.jpg,blankImage,blankImage,blankImage,blankImage,blankImage,blankImage,blankImage,blankImage,blueberry01,35,,,,,,,,,,,,,,,,,,,,,,,,,,,,,,,,,,,,,,,,,0,8,8,34,1,,,,,,,,,,,,,,,,,,,,,,,,,,,,,,,,,,,,,,,,,,,,,,,,,,,,,,,
,,,,,5cb201e1fa4b72000183aa9e,6682b41eeb79ab8215dff63d,6682ba481805f49828e8b0db,59,Female,English,2024-07-01_15h17.23.415,ABmemTask3,2023.2.3,Win32,59.88023952,,,,,,,,,,,,,,,,,,,,,,,,,,,,,,,412.8847,413.8844,413.8845,7,414.3845,415.3175,0.0012,415.4336,0.1158,0.1163,0.1166,0.1177,0.1166,0.1158,0.1173,0.116,,,,415.4337,416.2669,left,0.8108,,416.2669,417.5667,right,1.2654,,2,0,20,417.5669,418.5554,,,,,,1_AB,L1_T1P_T2P,1,1,1,4,5,3,4,9,Chefs hat,Did you see the Chefs hat,0.12,0,resources/,pics/sewingmachine01a.jpg,pics/icecube01.jpg,pics/fanblades.jpg,pics/chefshat.jpg,pics/stapler06.jpg,pics/ashtray01.jpg,pics/blender.jpg,pics/sandbarshark.jpg,pics/lock03a.jpg,blankImage,blankImage,blankImage,blankImage,blankImage,blankImage,blankImage,blankImage,chefshat,12,,,,,,,,,,,,,,,,,,,,,,,,,,,,,,,,,,,,,,,,,0,9,9,11,1,,,,,,,,,,,,,,,,,,,,,,,,,,,,,,,,,,,,,,,,,,,,,,,,,,,,,,,
,,,,,5cb201e1fa4b72000183aa9e,6682b41eeb79ab8215dff63d,6682ba481805f49828e8b0db,59,Female,English,2024-07-01_15h17.23.415,ABmemTask3,2023.2.3,Win32,59.88023952,,,,,,,,,,,,,,,,,,,,,,,,,,,,,,,418.5562,419.5506,419.5506,7,420.0497,421.334,0.0015,421.4495,0.1166,0.116,0.117,0.116,0.1175,0.1163,0.1164,0.1164,0.1171,0.1222,0.1114,421.4497,423.4327,left,1.9565,,423.4327,424.3325,right,0.8742,,4,0,22,424.3326,425.3322,,,,,,1_AB,L5_T1A_T2P,5,0,1,4,9,3,3,12,rooster,Did you see the rooster,0.12,0,resources/,pics/table01.jpg,pics/icecube01.jpg,pics/dustpan.jpg,pics/lock03a.jpg,pics/sailboat.jpg,pics/salmon.jpg,pics/banjo.jpg,pics/zebra.jpg,pics/stapler09.jpg,pics/peach01.jpg,pics/chainsaw.jpg,pics/football.jpg,blankImage,blankImage,blankImage,blankImage,blankImage,rooster,55,,,,,,,,,,,,,,,,,,,,,,,,,,,,,,,,,,,,,,,,,0,10,10,54,1,,,,,,,,,,,,,,,,,,,,,,,,,,,,,,,,,,,,,,,,,,,,,,,,,,,,,,,
,,,,,5cb201e1fa4b72000183aa9e,6682b41eeb79ab8215dff63d,6682ba481805f49828e8b0db,59,Female,English,2024-07-01_15h17.23.415,ABmemTask3,2023.2.3,Win32,59.88023952,,,,,,,,,,,,,,,,,,,,,,,,,,,,,,,425.3448,426.3489,426.3489,7,426.8487,427.8993,0.0013,428.016,0.1165,0.1164,0.1171,0.1214,0.1122,0.116,0.1173,0.116,0.1169,,,428.0162,429.1986,right,1.1558,,429.1987,429.7318,right,0.5081,,6,0,24,429.732,430.7319,,,,,,1_AB,L1_T1P_T2P,1,1,1,4,5,3,5,10,chair,Did you see the chair,0.12,0,resources/,pics/zebra.jpg,pics/floortile02.jpg,pics/cork02.jpg,pics/chair.jpg,pics/stapler07.jpg,pics/sealion.jpg,pics/shovel01.jpg,pics/piggybank.jpg,pics/candleholder01.jpg,pics/laptop01a.jpg,blankImage,blankImage,blankImage,blankImage,blankImage,blankImage,blankImage,chair,3,,,,,,,,,,,,,,,,,,,,,,,,,,,,,,,,,,,,,,,,,0,11,11,2,1,,,,,,,,,,,,,,,,,,,,,,,,,,,,,,,,,,,,,,,,,,,,,,,,,,,,,,,
,,,,,5cb201e1fa4b72000183aa9e,6682b41eeb79ab8215dff63d,6682ba481805f49828e8b0db,59,Female,English,2024-07-01_15h17.23.415,ABmemTask3,2023.2.3,Win32,59.88023952,,,,,,,,,,,,,,,,,,,,,,,,,,,,,,,430.7326,431.7314,431.7315,7,432.2313,433.7523,0.0014,433.8656,0.1162,0.1166,0.1166,0.1174,0.1165,0.116,0.1173,0.1161,0.1217,0.1116,0.1167,433.8657,434.3812,right,0.4854,,434.3812,435.0381,right,0.634,,8,0,26,435.0381,436.0308,,,,,,1_AB,L5_T1P_T2P,5,1,1,6,11,5,3,14,truck,Did you see the truck,0.12,0,resources/,pics/calendar.jpg,pics/mummy.jpg,pics/ashtray01.jpg,pics/pencilsharpener02a.jpg,pics/dustpan.jpg,pics/boxtruck.jpg,pics/lightswitch01.jpg,pics/pictureframe04.jpg,pics/starfish01.jpg,pics/zebra.jpg,pics/stapler12.jpg,pics/bowtie.jpg,pics/candleholder01.jpg,pics/candle01.jpg,blankImage,blankImage,blankImage,boxtruck,50,0.1174,0.1199,,,,,,,,,,,,,,,,,,,,,,,,,,,,,,,,,,,,,,,0,12,12,49,1,,,,,,,,,,,,,,,,,,,,,,,,,,,,,,,,,,,,,,,,,,,,,,,,,,,,,,,
,,,,,5cb201e1fa4b72000183aa9e,6682b41eeb79ab8215dff63d,6682ba481805f49828e8b0db,59,Female,English,2024-07-01_15h17.23.415,ABmemTask3,2023.2.3,Win32,59.88023952,,,,,,,,,,,,,,,,,,,,,,,,,,,,,,,436.0316,437.0222,437.0222,7,437.514,439.1475,0.0014,439.2638,0.1158,0.1169,0.1166,0.1176,0.1157,0.1172,0.117,0.1158,0.1167,0.117,0.1163,439.2638,440.1971,left,0.9065,,440.1973,440.8979,right,0.6692,,10,0,28,440.898,441.8967,,,,,,1_AB,L5_T1A_T2P,5,0,1,5,10,4,5,15,scorpion,Did you see the scorpion,0.12,0,resources/,pics/pictureframe04.jpg,pics/binder03b.jpg,pics/pencil01.jpg,pics/leaf02a.jpg,pics/icecube01.jpg,pics/dromedary.jpg,pics/toiletpaper01a.jpg,pics/peanut01.jpg,pics/golfball.jpg,pics/stapler03.jpg,pics/carrot01.jpg,pics/peach01.jpg,pics/sealion.jpg,pics/football.jpg,pics/zebra.jpg,blankImage,blankImage,scorpion,54,0.1168,0.1163,0.1166,,,,,,,,,,,,,,,,,,,,,,,,,,,,,,,,,,,,,,0,13,13,53,1,,,,,,,,,,,,,,,,,,,,,,,,,,,,,,,,,,,,,,,,,,,,,,,,,,,,,,,
,,,,,5cb201e1fa4b72000183aa9e,6682b41eeb79ab8215dff63d,6682ba481805f49828e8b0db,59,Female,English,2024-07-01_15h17.23.415,ABmemTask3,2023.2.3,Win32,59.88023952,,,,,,,,,,,,,,,,,,,,,,,,,,,,,,,441.8975,442.9003,442.9004,7,443.3965,444.6808,0.0013,444.7971,0.1166,0.1163,0.1164,0.1169,0.1168,0.1164,0.1168,0.1167,0.1165,0.1166,0.1175,444.7972,445.5463,right,0.7173,,445.5464,446.1631,right,0.5843,,12,0,30,446.1633,447.1636,,,,,,1_AB,L1_T1P_T2P,1,1,1,6,7,5,5,12,Bear,Did you see the Bear,0.12,0,resources/,pics/necklace.jpg,pics/hen.jpg,pics/dromedary.jpg,pics/piggybank.jpg,pics/sandbarshark.jpg,pics/grizzly.jpg,pics/stapler12.jpg,pics/bowlingpin.jpg,pics/christmaslights.jpg,pics/icecube01.jpg,pics/match.jpg,pics/lock03a.jpg,blankImage,blankImage,blankImage,blankImage,blankImage,grizzly,18,,,,,,,,,,,,,,,,,,,,,,,,,,,,,,,,,,,,,,,,,0,14,14,17,1,,,,,,,,,,,,,,,,,,,,,,,,,,,,,,,,,,,,,,,,,,,,,,,,,,,,,,,
,,,,,5cb201e1fa4b72000183aa9e,6682b41eeb79ab8215dff63d,6682ba481805f49828e8b0db,59,Female,English,2024-07-01_15h17.23.415,ABmemTask3,2023.2.3,Win32,59.88023952,,,,,,,,,,,,,,,,,,,,,,,,,,,,,,,447.1759,448.1792,448.1793,7,448.6799,449.6129,0.0013,449.7293,0.1154,0.1172,0.1161,0.1165,0.1171,0.1162,0.1175,0.116,,,,449.7294,450.3456,right,0.5929,,450.3458,451.5955,left,1.2152,,12,0,32,451.5957,452.5953,,,,,,1_AB,L1_T1P_T2P,1,1,1,5,6,4,3,9,paint brush,Did you see the paint brush,0.12,0,resources/,pics/nutcracker01.jpg,pics/piggybank.jpg,pics/spiderweb.jpg,pics/table01.jpg,pics/paintbrush01.jpg,pics/stapler09.jpg,pics/hose.jpg,pics/cannon.jpg,pics/mummy.jpg,blankImage,blankImage,blankImage,blankImage,blankImage,blankImage,blankImage,blankImage,paintbrush01,20,,,,,,,,,,,,,,,,,,,,,,,,,,,,,,,,,,,,,,,,,0,15,15,19,1,,,,,,,,,,,,,,,,,,,,,,,,,,,,,,,,,,,,,,,,,,,,,,,,,,,,,,,
,,,,,5cb201e1fa4b72000183aa9e,6682b41eeb79ab8215dff63d,6682ba481805f49828e8b0db,59,Female,English,2024-07-01_15h17.23.415,ABmemTask3,2023.2.3,Win32,59.88023952,,,,,,,,,,,,,,,,,,,,,,,,,,,,,,,452.5961,453.5956,453.5956,7,454.0956,455.6119,0.0012,455.7282,0.1162,0.1164,0.1171,0.1162,0.1164,0.1166,0.1167,0.1208,0.1178,0.1122,0.1164,455.7282,456.8173,left,1.0669,,456.8173,457.5281,right,0.6849,,14,0,34,457.5282,458.5278,,,,,,1_AB,L5_T1A_T2P,5,0,1,4,9,3,5,14,lemon,Did you see the lemon,0.12,0,resources/,pics/seaturtle.jpg,pics/lightswitch01.jpg,pics/candle01.jpg,pics/cannon.jpg,pics/seagull.jpg,pics/spoon01.jpg,pics/spiderweb.jpg,pics/sewingmachine01a.jpg,pics/stapler05.jpg,pics/binoculars01b.jpg,pics/zebra.jpg,pics/sealion.jpg,pics/shovel01.jpg,pics/wheel01.jpg,blankImage,blankImage,blankImage,lemon02,56,0.1161,0.1165,,,,,,,,,,,,,,,,,,,,,,,,,,,,,,,,,,,,,,,0,16,16,55,1,,,,,,,,,,,,,,,,,,,,,,,,,,,,,,,,,,,,,,,,,,,,,,,,,,,,,,,
,,,,,5cb201e1fa4b72000183aa9e,6682b41eeb79ab8215dff63d,6682ba481805f49828e8b0db,59,Female,English,2024-07-01_15h17.23.415,ABmemTask3,2023.2.3,Win32,59.88023952,,,,,,,,,,,,,,,,,,,,,,,,,,,,,,,458.5287,459.5277,459.5278,7,460.0287,461.1953,0.0013,461.3107,0.1149,0.1167,0.1168,0.1166,0.1167,0.1167,0.1164,0.117,0.1164,0.1172,,461.3109,462.3272,right,0.9935,,462.3273,462.9781,right,0.6285,,16,0,36,462.9782,463.9771,,,,,,1_AB,L1_T1P_T2P,1,1,1,7,8,6,3,11,toothpick,Did you see the toothpick,0.12,0,resources/,pics/candleholder01.jpg,pics/blender.jpg,pics/siamesecat.jpg,pics/peanut01.jpg,pics/spiderweb.jpg,pics/football.jpg,pics/toothpick02.jpg,pics/stapler04b.jpg,pics/seagull.jpg,pics/pictureframe04.jpg,pics/shipinabottle.jpg,blankImage,blankImage,blankImage,blankImage,blankImage,blankImage,toothpick02,17,,,,,,,,,,,,,,,,,,,,,,,,,,,,,,,,,,,,,,,,,0,17,17,16,1,,,,,,,,,,,,,,,,,,,,,,,,,,,,,,,,,,,,,,,,,,,,,,,,,,,,,,,
,,,,,5cb201e1fa4b72000183aa9e,6682b41eeb79ab8215dff63d,6682ba481805f49828e8b0db,59,Female,English,2024-07-01_15h17.23.415,ABmemTask3,2023.2.3,Win32,59.88023952,,,,,,,,,,,,,,,,,,,,,,,,,,,,,,,463.9778,464.977,464.9771,7,465.4772,466.644,0.0013,466.76,0.1161,0.1172,0.1167,0.1157,0.1167,0.1168,0.1165,0.1166,0.1167,0.1168,,466.7601,467.5433,left,0.7569,,467.5435,468.5107,right,0.9358,,18,0,38,468.5108,469.5096,,,,,,1_AB,L1_T1A_T2P,1,0,1,7,8,6,3,11,turkey,Did you see the turkey,0.12,0,resources/,pics/proboscismonkey.jpg,pics/blender.jpg,pics/sealion.jpg,pics/snowshoe.jpg,pics/carrot01.jpg,pics/microscope.jpg,pics/piggybank.jpg,pics/stapler12.jpg,pics/peanut01.jpg,pics/dustpan.jpg,pics/footballhelmet.jpg,blankImage,blankImage,blankImage,blankImage,blankImage,blankImage,turkey,26,,,,,,,,,,,,,,,,,,,,,,,,,,,,,,,,,,,,,,,,,0,18,18,25,1,,,,,,,,,,,,,,,,,,,,,,,,,,,,,,,,,,,,,,,,,,,,,,,,,,,,,,,
,,,,,5cb201e1fa4b72000183aa9e,6682b41eeb79ab8215dff63d,6682ba481805f49828e8b0db,59,Female,English,2024-07-01_15h17.23.415,ABmemTask3,2023.2.3,Win32,59.88023952,,,,,,,,,,,,,,,,,,,,,,,,,,,,,,,469.5221,470.5262,470.5263,7,471.0261,472.4264,0.0013,472.5432,0.116,0.1168,0.1173,0.1161,0.1211,0.1121,0.1172,0.1161,0.1167,0.1165,0.1168,472.5434,472.9598,right,0.3951,,472.9598,473.6592,right,0.6677,,20,0,40,473.6593,474.6642,,,,,,1_AB,L5_T1P_T2P,5,1,1,4,9,3,4,13,Forklift,Did you see the Forklift,0.12,0,resources/,pics/dustpan.jpg,pics/table01.jpg,pics/sink.jpg,pics/forklift.jpg,pics/dromedary.jpg,pics/proboscismonkey.jpg,pics/cymbal.jpg,pics/shovel01.jpg,pics/stapler10.jpg,pics/backpack01a.jpg,pics/binder03b.jpg,pics/banjo.jpg,pics/candleholder01.jpg,blankImage,blankImage,blankImage,blankImage,forklift,47,0.1166,,,,,,,,,,,,,,,,,,,,,,,,,,,,,,,,,,,,,,,,0,19,19,46,1,,,,,,,,,,,,,,,,,,,,,,,,,,,,,,,,,,,,,,,,,,,,,,,,,,,,,,,
,,,,,5cb201e1fa4b72000183aa9e,6682b41eeb79ab8215dff63d,6682ba481805f49828e8b0db,59,Female,English,2024-07-01_15h17.23.415,ABmemTask3,2023.2.3,Win32,59.88023952,,,,,,,,,,,,,,,,,,,,,,,,,,,,,,,474.6649,475.6587,475.6589,7,476.1588,477.0924,0.0014,477.2085,0.1161,0.1165,0.1167,0.1219,0.1124,0.1164,0.1163,0.1162,,,,477.2087,478.4251,right,1.1925,,478.4253,479.5087,right,1.0538,,14,0,42,479.5088,480.5089,,,,,,1_AB,L1_T1A_T2A,1,0,0,4,5,3,4,9,License Plate,Did you see the License Plate,0.12,0,resources/,pics/snowshoe.jpg,pics/kangaroo.jpg,pics/noparkingsign.jpg,pics/match.jpg,pics/hose.jpg,pics/blender.jpg,pics/ashtray01.jpg,pics/ball02.jpg,pics/sink.jpg,blankImage,blankImage,blankImage,blankImage,blankImage,blankImage,blankImage,blankImage,licenseplate,40,,,,,,,,,,,,,,,,,,,,,,,,,,,,,,,,,,,,,,,,,0,20,20,39,1,,,,,,,,,,,,,,,,,,,,,,,,,,,,,,,,,,,,,,,,,,,,,,,,,,,,,,,
,,,,,5cb201e1fa4b72000183aa9e,6682b41eeb79ab8215dff63d,6682ba481805f49828e8b0db,59,Female,English,2024-07-01_15h17.23.415,ABmemTask3,2023.2.3,Win32,59.88023952,,,,,,,,,,,,,,,,,,,,,,,,,,,,,,,480.5096,481.5081,481.5081,7,482.0081,483.175,0.0016,483.2911,0.1156,0.1166,0.1174,0.1163,0.1169,0.117,0.1164,0.1161,0.1168,0.1164,,483.2911,484.2411,right,0.9171,,484.2412,485.041,right,0.7728,,16,0,44,485.0412,486.0416,,,,,,1_AB,L1_T1P_T2P,1,1,1,7,8,6,3,11,bird,Did you see the bird,0.12,0,resources/,pics/sealion.jpg,pics/backpack01a.jpg,pics/hose.jpg,pics/table01.jpg,pics/wheel01.jpg,pics/seaturtle.jpg,pics/americangoldfinch.jpg,pics/stapler08.jpg,pics/siamesecat.jpg,pics/hammerheadshark.jpg,pics/ashtray01.jpg,blankImage,blankImage,blankImage,blankImage,blankImage,blankImage,americangoldfinch,23,,,,,,,,,,,,,,,,,,,,,,,,,,,,,,,,,,,,,,,,,0,21,21,22,1,,,,,,,,,,,,,,,,,,,,,,,,,,,,,,,,,,,,,,,,,,,,,,,,,,,,,,,
,,,,,5cb201e1fa4b72000183aa9e,6682b41eeb79ab8215dff63d,6682ba481805f49828e8b0db,59,Female,English,2024-07-01_15h17.23.415,ABmemTask3,2023.2.3,Win32,59.88023952,,,,,,,,,,,,,,,,,,,,,,,,,,,,,,,486.0424,487.0406,487.0407,7,487.5406,488.4742,0.0014,488.5904,0.1164,0.1159,0.1168,0.1174,0.1167,0.1211,0.1121,0.1161,,,,488.5906,489.2738,right,0.6546,,489.2739,489.9571,right,0.649,,18,0,46,489.9572,490.9567,,,,,,1_AB,L1_T1P_T2P,1,1,1,5,6,4,3,9,Ant,Did you see the Ant,0.12,0,resources/,pics/kangaroo.jpg,pics/giraffe.jpg,pics/footballhelmet.jpg,pics/onion.jpg,pics/ant.jpg,pics/stapler04b.jpg,pics/banjo.jpg,pics/zebra.jpg,pics/dromedary.jpg,blankImage,blankImage,blankImage,blankImage,blankImage,blankImage,blankImage,blankImage,ant,15,,,,,,,,,,,,,,,,,,,,,,,,,,,,,,,,,,,,,,,,,0,22,22,14,1,,,,,,,,,,,,,,,,,,,,,,,,,,,,,,,,,,,,,,,,,,,,,,,,,,,,,,,
,,,,,5cb201e1fa4b72000183aa9e,6682b41eeb79ab8215dff63d,6682ba481805f49828e8b0db,59,Female,English,2024-07-01_15h17.23.415,ABmemTask3,2023.2.3,Win32,59.88023952,,,,,,,,,,,,,,,,,,,,,,,,,,,,,,,490.9574,491.9566,491.9567,7,492.4565,494.2109,0.0013,494.3282,0.1164,0.1164,0.1168,0.1164,0.1174,0.1159,0.1177,0.116,0.1163,0.1166,0.1172,494.3284,494.8731,right,0.5229,,494.8732,495.4728,right,0.5665,,20,0,48,495.473,496.4731,,,,,,1_AB,L5_T1P_T2P,5,1,1,6,11,5,5,16,cruise ship,Did you see the cruise ship,0.12,0,resources/,pics/seaturtle.jpg,pics/ashtray01.jpg,pics/pencil01.jpg,pics/fanblades.jpg,pics/triangle.jpg,pics/cruiseship.jpg,pics/wheel01.jpg,pics/dustpan.jpg,pics/starfish01.jpg,pics/banjo.jpg,pics/stapler12.jpg,pics/match.jpg,pics/cannon.jpg,pics/sandbarshark.jpg,pics/sink.jpg,pics/zebra.jpg,blankImage,cruiseship,51,0.1164,0.1161,0.1167,,,,,,,,,,,,,,,,,,,,,,,,,,,,,,,,,,,,,,0,23,23,50,1,0.121,,,,,,,,,,,,,,,,,,,,,,,,,,,,,,,,,,,,,,,,,,,,,,,,,,,,,,
,,,,,5cb201e1fa4b72000183aa9e,6682b41eeb79ab8215dff63d,6682ba481805f49828e8b0db,59,Female,English,2024-07-01_15h17.23.415,ABmemTask3,2023.2.3,Win32,59.88023952,,,,,,,,,,,,,,,,,,,,,,,,,,,,,,,496.4738,497.4725,497.4725,7,497.9779,499.4893,0.0012,499.6107,0.111,0.1165,0.1165,0.1168,0.1165,0.1167,0.1167,0.1166,0.1165,0.1172,0.1178,499.6109,500.2056,right,0.5732,,500.2056,500.7222,right,0.4898,,22,0,50,500.7223,501.7219,,,,,,1_AB,L5_T1P_T2P,5,1,1,5,10,4,4,14,Fox,Did you see the Fox,0.12,0,resources/,pics/hammerheadshark.jpg,pics/bowlingpin.jpg,pics/pictureframe04.jpg,pics/peanut01.jpg,pics/redfox.jpg,pics/cymbal.jpg,pics/spoon01.jpg,pics/banjo.jpg,pics/butterfly.jpg,pics/stapler11.jpg,pics/football.jpg,pics/safetypin.jpg,pics/triangle.jpg,pics/onion.jpg,blankImage,blankImage,blankImage,redfox,45,0.1155,0.1162,,,,,,,,,,,,,,,,,,,,,,,,,,,,,,,,,,,,,,,0,24,24,44,1,,,,,,,,,,,,,,,,,,,,,,,,,,,,,,,,,,,,,,,,,,,,,,,,,,,,,,,
,,,,,5cb201e1fa4b72000183aa9e,6682b41eeb79ab8215dff63d,6682ba481805f49828e8b0db,59,Female,English,2024-07-01_15h17.23.415,ABmemTask3,2023.2.3,Win32,59.88023952,,,,,,,,,,,,,,,,,,,,,,,,,,,,,,,501.7227,502.7218,502.7218,7,503.2216,504.5053,0.0016,504.628,0.1166,0.116,0.1173,0.1159,0.1174,0.1165,0.1161,0.1167,0.1165,0.121,0.1125,504.6281,505.3048,right,0.661,,505.3049,505.8881,right,0.5522,,24,0,52,505.8882,506.8878,,,,,,1_AB,L1_T1P_T2P,1,1,1,7,8,6,4,12,hammer,Did you see the hammer,0.12,0,resources/,pics/microscope.jpg,pics/blender.jpg,pics/dustpan.jpg,pics/snowshoe.jpg,pics/mummy.jpg,pics/bowtie.jpg,pics/hammer01.jpg,pics/stapler04b.jpg,pics/seaturtle.jpg,pics/candle01.jpg,pics/necklace.jpg,pics/cannon.jpg,blankImage,blankImage,blankImage,blankImage,blankImage,hammer01,21,,,,,,,,,,,,,,,,,,,,,,,,,,,,,,,,,,,,,,,,,0,25,25,20,1,,,,,,,,,,,,,,,,,,,,,,,,,,,,,,,,,,,,,,,,,,,,,,,,,,,,,,,
,,,,,5cb201e1fa4b72000183aa9e,6682b41eeb79ab8215dff63d,6682ba481805f49828e8b0db,59,Female,English,2024-07-01_15h17.23.415,ABmemTask3,2023.2.3,Win32,59.88023952,,,,,,,,,,,,,,,,,,,,,,,,,,,,,,,506.8885,507.8926,507.8927,7,508.3878,510.0214,0.0015,510.1375,0.1158,0.1167,0.1165,0.1167,0.1166,0.1167,0.1167,0.1167,0.1165,0.1181,0.1153,510.1377,510.7041,right,0.5443,,510.7042,511.304,right,0.5669,,26,0,54,511.3042,512.3045,,,,,,1_AB,L5_T1P_T2P,5,1,1,6,11,5,4,15,toast,Did you see the toast,0.12,0,resources/,pics/piggybank.jpg,pics/leaf02a.jpg,pics/carrot01.jpg,pics/birdhouse.jpg,pics/bowlingpin.jpg,pics/toast.jpg,pics/spiderweb.jpg,pics/cork02.jpg,pics/sink.jpg,pics/nutcracker01.jpg,pics/stapler02.jpg,pics/ashtray01.jpg,pics/fanblades.jpg,pics/pencil01.jpg,pics/lightswitch01.jpg,blankImage,blankImage,toast,46,0.1174,0.1211,0.1117,,,,,,,,,,,,,,,,,,,,,,,,,,,,,,,,,,,,,,0,26,26,45,1,,,,,,,,,,,,,,,,,,,,,,,,,,,,,,,,,,,,,,,,,,,,,,,,,,,,,,,
,,,,,5cb201e1fa4b72000183aa9e,6682b41eeb79ab8215dff63d,6682ba481805f49828e8b0db,59,Female,English,2024-07-01_15h17.23.415,ABmemTask3,2023.2.3,Win32,59.88023952,,,,,,,,,,,,,,,,,,,,,,,,,,,,,,,512.3052,513.3044,513.3045,7,513.7923,515.3039,0.0013,515.42,0.1115,0.1165,0.1165,0.1163,0.1168,0.1165,0.1166,0.1167,0.1175,0.1163,0.1162,515.4201,516.02,right,0.5666,,516.0201,516.904,right,0.8573,,24,0,56,516.9041,517.9034,,,,,,1_AB,L5_T1P_T2A,5,1,0,4,9,3,5,14,Frisbee,Did you see the Frisbee,0.12,0,resources/,pics/giraffe.jpg,pics/christmaslights.jpg,pics/bowtie.jpg,pics/frisbee.jpg,pics/banjo.jpg,pics/calendar.jpg,pics/butterfly.jpg,pics/onion.jpg,pics/starfish01.jpg,pics/footballhelmet.jpg,pics/blender.jpg,pics/candleholder01.jpg,pics/hairdryer02a.jpg,pics/dromedary.jpg,blankImage,blankImage,blankImage,frisbee,58,0.1167,0.1166,,,,,,,,,,,,,,,,,,,,,,,,,,,,,,,,,,,,,,,0,27,27,57,1,,,,,,,,,,,,,,,,,,,,,,,,,,,,,,,,,,,,,,,,,,,,,,,,,,,,,,,
,,,,,5cb201e1fa4b72000183aa9e,6682b41eeb79ab8215dff63d,6682ba481805f49828e8b0db,59,Female,English,2024-07-01_15h17.23.415,ABmemTask3,2023.2.3,Win32,59.88023952,,,,,,,,,,,,,,,,,,,,,,,,,,,,,,,517.9041,518.9029,518.9029,7,519.4035,520.8031,0.0014,520.9198,0.1155,0.1166,0.1165,0.1169,0.1164,0.1175,0.1162,0.1162,0.1168,0.1166,0.1174,520.9199,521.8526,left,0.8995,,521.8528,522.6192,right,0.7337,,26,0,58,522.6194,523.619,,,,,,1_AB,L1_T1A_T2P,1,0,1,7,8,6,5,13,Basketball,Did you see the Basketball,0.12,0,resources/,pics/cork02.jpg,pics/table01.jpg,pics/christmaslights.jpg,pics/nutcracker01.jpg,pics/golfball.jpg,pics/hammerheadshark.jpg,pics/seaturtle.jpg,pics/stapler04b.jpg,pics/lock03a.jpg,pics/snowshoe.jpg,pics/sewingmachine01a.jpg,pics/peach01.jpg,pics/hose.jpg,blankImage,blankImage,blankImage,blankImage,basketball01,24,0.1161,,,,,,,,,,,,,,,,,,,,,,,,,,,,,,,,,,,,,,,,0,28,28,23,1,,,,,,,,,,,,,,,,,,,,,,,,,,,,,,,,,,,,,,,,,,,,,,,,,,,,,,,
,,,,,5cb201e1fa4b72000183aa9e,6682b41eeb79ab8215dff63d,6682ba481805f49828e8b0db,59,Female,English,2024-07-01_15h17.23.415,ABmemTask3,2023.2.3,Win32,59.88023952,,,,,,,,,,,,,,,,,,,,,,,,,,,,,,,523.6319,524.6196,524.6196,7,525.1187,526.1691,0.0015,526.2852,0.116,0.1165,0.1168,0.1167,0.117,0.1161,0.1168,0.1168,0.1166,,,526.2852,527.2853,left,0.9667,,527.2854,528.4524,right,1.1417,,22,0,60,528.4525,529.4515,,,,,,1_AB,L1_T1P_T2A,1,1,0,6,7,5,3,10,Electric toothbrush,Did you see the Electric toothbrush,0.12,0,resources/,pics/football.jpg,pics/sailboat.jpg,pics/cymbal.jpg,pics/hen.jpg,pics/pencil01.jpg,pics/electrictoothbrush01c.jpg,pics/bowlingpin.jpg,pics/wheel01.jpg,pics/birdhouse.jpg,pics/leaf02a.jpg,blankImage,blankImage,blankImage,blankImage,blankImage,blankImage,blankImage,electrictoothbrush01c,34,,,,,,,,,,,,,,,,,,,,,,,,,,,,,,,,,,,,,,,,,0,29,29,33,1,,,,,,,,,,,,,,,,,,,,,,,,,,,,,,,,,,,,,,,,,,,,,,,,,,,,,,,
,,,,,5cb201e1fa4b72000183aa9e,6682b41eeb79ab8215dff63d,6682ba481805f49828e8b0db,59,Female,English,2024-07-01_15h17.23.415,ABmemTask3,2023.2.3,Win32,59.88023952,,,,,,,,,,,,,,,,,,,,,,,,,,,,,,,529.4639,530.468,530.4681,7,530.9583,532.1182,0.0012,532.2344,0.1099,0.1159,0.1166,0.117,0.1165,0.1173,0.1227,0.1098,0.1171,0.1163,,532.2346,533.1068,right,0.8504,,533.1068,533.8345,left,0.7,,24,0,62,533.8347,534.834,,,,,,1_AB,L1_T1P_T2A,1,1,0,6,7,5,4,11,lamp,Did you see the lamp,0.12,0,resources/,pics/chainsaw.jpg,pics/fanblades.jpg,pics/salmon.jpg,pics/proboscismonkey.jpg,pics/boot02b.jpg,pics/lamp04a.jpg,pics/blender.jpg,pics/sink.jpg,pics/pencil01.jpg,pics/floortile02.jpg,pics/shovel01.jpg,blankImage,blankImage,blankImage,blankImage,blankImage,blankImage,lamp04a,37,,,,,,,,,,,,,,,,,,,,,,,,,,,,,,,,,,,,,,,,,0,30,30,36,1,,,,,,,,,,,,,,,,,,,,,,,,,,,,,,,,,,,,,,,,,,,,,,,,,,,,,,,
,,,,,5cb201e1fa4b72000183aa9e,6682b41eeb79ab8215dff63d,6682ba481805f49828e8b0db,59,Female,English,2024-07-01_15h17.23.415,ABmemTask3,2023.2.3,Win32,59.88023952,,,,,,,,,,,,,,,,,,,,,,,,,,,,,,,534.8349,535.8347,535.8348,7,536.334,537.3846,0.0012,537.5012,0.1167,0.1163,0.117,0.1161,0.1171,0.117,0.1159,0.1171,0.1166,,,537.5015,538.5337,left,1.0005,,538.5338,539.4836,left,0.9199,,24,0,64,539.4837,540.4832,,,,,,1_AB,L1_T1A_T2P,1,0,1,5,6,4,4,10,Rabbit,Did you see the Rabbit,0.12,0,resources/,pics/cannon.jpg,pics/proboscismonkey.jpg,pics/salmon.jpg,pics/nutcracker01.jpg,pics/seagull.jpg,pics/stapler02.jpg,pics/table01.jpg,pics/laptop01a.jpg,pics/necklace.jpg,pics/pencilsharpener02a.jpg,blankImage,blankImage,blankImage,blankImage,blankImage,blankImage,blankImage,jackrabbit,31,,,,,,,,,,,,,,,,,,,,,,,,,,,,,,,,,,,,,,,,,0,31,31,30,1,,,,,,,,,,,,,,,,,,,,,,,,,,,,,,,,,,,,,,,,,,,,,,,,,,,,,,,
,,,,,5cb201e1fa4b72000183aa9e,6682b41eeb79ab8215dff63d,6682ba481805f49828e8b0db,59,Female,English,2024-07-01_15h17.23.415,ABmemTask3,2023.2.3,Win32,59.88023952,,,,,,,,,,,,,,,,,,,,,,,,,,,,,,,540.4841,541.4832,541.4833,7,541.9831,543.2668,0.0014,543.383,0.1167,0.1165,0.1161,0.1176,0.1167,0.1166,0.116,0.1175,0.1159,0.1236,0.1095,543.3831,543.9336,right,0.5172,,543.9336,544.7662,right,0.8003,,26,0,66,544.7663,545.766,,,,,,1_AB,L1_T1P_T2P,1,1,1,7,8,6,4,12,Turnstile,Did you see the Turnstile,0.12,0,resources/,pics/golfball.jpg,pics/hose.jpg,pics/siamesecat.jpg,pics/binoculars01b.jpg,pics/hen.jpg,pics/candleholder01.jpg,pics/turnstile.jpg,pics/stapler03a.jpg,pics/giraffe.jpg,pics/pictureframe04.jpg,pics/sandbarshark.jpg,pics/spoon01.jpg,blankImage,blankImage,blankImage,blankImage,blankImage,turnstile,13,,,,,,,,,,,,,,,,,,,,,,,,,,,,,,,,,,,,,,,,,0,32,32,12,1,,,,,,,,,,,,,,,,,,,,,,,,,,,,,,,,,,,,,,,,,,,,,,,,,,,,,,,
,,,,,5cb201e1fa4b72000183aa9e,6682b41eeb79ab8215dff63d,6682ba481805f49828e8b0db,59,Female,English,2024-07-01_15h17.23.415,ABmemTask3,2023.2.3,Win32,59.88023952,,,,,,,,,,,,,,,,,,,,,,,,,,,,,,,545.7668,546.7658,546.7659,7,547.2738,548.7841,0.0012,548.8996,0.1089,0.1164,0.1171,0.1165,0.1159,0.1165,0.1174,0.1169,0.1164,0.1159,0.1167,548.8996,549.4491,right,0.5266,,549.4492,550.1489,right,0.6685,,28,0,68,550.149,551.1485,,,,,,1_AB,L5_T1P_T2P,5,1,1,4,9,3,5,14,pliers,Did you see the pliers,0.12,0,resources/,pics/calendar.jpg,pics/footballhelmet.jpg,pics/seaturtle.jpg,pics/pliers02b.jpg,pics/wheel01.jpg,pics/cannon.jpg,pics/proboscismonkey.jpg,pics/shovel01.jpg,pics/stapler06.jpg,pics/football.jpg,pics/hose.jpg,pics/dustpan.jpg,pics/spiderweb.jpg,pics/golfball.jpg,blankImage,blankImage,blankImage,pliers02b,48,0.1173,0.1173,,,,,,,,,,,,,,,,,,,,,,,,,,,,,,,,,,,,,,,0,33,33,47,1,,,,,,,,,,,,,,,,,,,,,,,,,,,,,,,,,,,,,,,,,,,,,,,,,,,,,,,
,,,,,5cb201e1fa4b72000183aa9e,6682b41eeb79ab8215dff63d,6682ba481805f49828e8b0db,59,Female,English,2024-07-01_15h17.23.415,ABmemTask3,2023.2.3,Win32,59.88023952,,,,,,,,,,,,,,,,,,,,,,,,,,,,,,,551.1491,552.1532,552.1534,7,552.6484,554.0486,0.0013,554.1647,0.1209,0.1118,0.1165,0.1166,0.1169,0.1174,0.1168,0.1155,0.1223,0.1111,0.1165,554.1648,554.7326,right,0.5452,,554.7327,555.2983,right,0.5336,,30,0,70,555.2983,556.2979,,,,,,1_AB,L1_T1P_T2P,1,1,1,7,8,6,5,13,strawberry,Did you see the strawberry,0.12,0,resources/,pics/sealion.jpg,pics/backpack01a.jpg,pics/binoculars01b.jpg,pics/ball02.jpg,pics/proboscismonkey.jpg,pics/pictureframe04.jpg,pics/strawberry.jpg,pics/stapler12.jpg,pics/seaturtle.jpg,pics/dustpan.jpg,pics/bowlingpin.jpg,pics/hammerheadshark.jpg,pics/hen.jpg,blankImage,blankImage,blankImage,blankImage,strawberry,10,0.1169,,,,,,,,,,,,,,,,,,,,,,,,,,,,,,,,,,,,,,,,0,34,34,9,1,,,,,,,,,,,,,,,,,,,,,,,,,,,,,,,,,,,,,,,,,,,,,,,,,,,,,,,
,,,,,5cb201e1fa4b72000183aa9e,6682b41eeb79ab8215dff63d,6682ba481805f49828e8b0db,59,Female,English,2024-07-01_15h17.23.415,ABmemTask3,2023.2.3,Win32,59.88023952,,,,,,,,,,,,,,,,,,,,,,,,,,,,,,,556.2986,557.2977,557.2978,7,557.798,558.848,0.0014,558.9642,0.116,0.1163,0.1175,0.1158,0.1168,0.1167,0.122,0.1112,0.1167,,,558.9643,559.6975,right,0.7003,,559.6976,560.864,right,1.1374,,32,0,72,560.8641,561.8637,,,,,,1_AB,L1_T1P_T2P,1,1,1,4,5,3,5,10,flute,Did you see the flute,0.12,0,resources/,pics/peach01.jpg,pics/seaturtle.jpg,pics/dromedary.jpg,pics/recorder01.jpg,pics/stapler08.jpg,pics/giraffe.jpg,pics/blender.jpg,pics/necklace.jpg,pics/sink.jpg,pics/dustpan.jpg,blankImage,blankImage,blankImage,blankImage,blankImage,blankImage,blankImage,recorder01,7,,,,,,,,,,,,,,,,,,,,,,,,,,,,,,,,,,,,,,,,,0,35,35,6,1,,,,,,,,,,,,,,,,,,,,,,,,,,,,,,,,,,,,,,,,,,,,,,,,,,,,,,,
,,,,,5cb201e1fa4b72000183aa9e,6682b41eeb79ab8215dff63d,6682ba481805f49828e8b0db,59,Female,English,2024-07-01_15h17.23.415,ABmemTask3,2023.2.3,Win32,59.88023952,,,,,,,,,,,,,,,,,,,,,,,,,,,,,,,561.8756,562.8636,562.8637,7,563.3639,564.5304,0.0014,564.6467,0.1166,0.1165,0.1161,0.1174,0.1165,0.116,0.1173,0.1164,0.1165,0.1162,,564.6468,565.6708,left,1.002,,565.6708,566.3131,right,0.6263,,32,0,74,566.3133,567.3131,,,,,,1_AB,L1_T1P_T2P,1,1,1,7,8,6,3,11,sock,Did you see the sock,0.12,0,resources/,pics/hen.jpg,pics/christmaslights.jpg,pics/salmon.jpg,pics/sealion.jpg,pics/seaturtle.jpg,pics/giraffe.jpg,pics/athleticsock.jpg,pics/stapler01.jpg,pics/shovel01.jpg,pics/leaf02a.jpg,pics/backpack01a.jpg,blankImage,blankImage,blankImage,blankImage,blankImage,blankImage,athleticsock,11,,,,,,,,,,,,,,,,,,,,,,,,,,,,,,,,,,,,,,,,,0,36,36,10,1,,,,,,,,,,,,,,,,,,,,,,,,,,,,,,,,,,,,,,,,,,,,,,,,,,,,,,,
,,,,,5cb201e1fa4b72000183aa9e,6682b41eeb79ab8215dff63d,6682ba481805f49828e8b0db,59,Female,English,2024-07-01_15h17.23.415,ABmemTask3,2023.2.3,Win32,59.88023952,,,,,,,,,,,,,,,,,,,,,,,,,,,,,,,567.325,568.3129,568.313,7,568.8128,570.3296,0.0016,570.4459,0.1193,0.1133,0.1165,0.1167,0.1166,0.1167,0.1169,0.1174,0.1157,0.1165,0.1172,570.4461,571.0461,right,0.5664,,571.0463,571.6468,right,0.5667,,34,0,76,571.6468,572.6455,,,,,,1_AB,L5_T1P_T2P,5,1,1,4,9,3,5,14,asparagus,Did you see the asparagus,0.12,0,resources/,pics/siamesecat.jpg,pics/starfish01.jpg,pics/aquarium.jpg,pics/asparagus.jpg,pics/salmon.jpg,pics/binoculars01b.jpg,pics/ball02.jpg,pics/calendar.jpg,pics/stapler10.jpg,pics/giraffe.jpg,pics/dromedary.jpg,pics/seaturtle.jpg,pics/sandbarshark.jpg,pics/shipinabottle.jpg,blankImage,blankImage,blankImage,asparagus,44,0.1204,0.1122,,,,,,,,,,,,,,,,,,,,,,,,,,,,,,,,,,,,,,,0,37,37,43,1,,,,,,,,,,,,,,,,,,,,,,,,,,,,,,,,,,,,,,,,,,,,,,,,,,,,,,,
,,,,,5cb201e1fa4b72000183aa9e,6682b41eeb79ab8215dff63d,6682ba481805f49828e8b0db,59,Female,English,2024-07-01_15h17.23.415,ABmemTask3,2023.2.3,Win32,59.88023952,,,,,,,,,,,,,,,,,,,,,,,,,,,,,,,572.6463,573.6463,573.6463,7,574.1457,575.5457,0.0014,575.6618,0.1157,0.1166,0.117,0.1173,0.1165,0.1167,0.1161,0.1171,0.1159,0.1174,0.1158,575.6619,576.4118,left,0.7207,,576.412,577.268,right,0.8346,,36,0,78,577.2681,578.2623,,,,,,1_AB,L1_T1A_T2P,1,0,1,7,8,6,5,13,statue,Did you see the statue,0.12,0,resources/,pics/giraffe.jpg,pics/seaturtle.jpg,pics/peach01.jpg,pics/boot02b.jpg,pics/backpack01a.jpg,pics/sandbarshark.jpg,pics/microscope.jpg,pics/stapler07.jpg,pics/snowshoe.jpg,pics/laptop01a.jpg,pics/necklace.jpg,pics/zebra.jpg,pics/carrot01.jpg,blankImage,blankImage,blankImage,blankImage,statue,27,0.1166,,,,,,,,,,,,,,,,,,,,,,,,,,,,,,,,,,,,,,,,0,38,38,26,1,,,,,,,,,,,,,,,,,,,,,,,,,,,,,,,,,,,,,,,,,,,,,,,,,,,,,,,
,,,,,5cb201e1fa4b72000183aa9e,6682b41eeb79ab8215dff63d,6682ba481805f49828e8b0db,59,Female,English,2024-07-01_15h17.23.415,ABmemTask3,2023.2.3,Win32,59.88023952,,,,,,,,,,,,,,,,,,,,,,,,,,,,,,,578.263,579.262,579.2622,7,579.7613,580.929,0.0012,581.0444,0.1162,0.1176,0.1158,0.1173,0.1206,0.112,0.1166,0.1166,0.1167,0.1174,,581.0446,581.7612,right,0.6836,,581.7613,582.4776,right,0.6928,,34,0,80,582.4777,583.478,,,,,,1_AB,L1_T1P_T2A,1,1,0,7,8,6,3,11,eggplant,Did you see the eggplant,0.12,0,resources/,pics/salmon.jpg,pics/fanblades.jpg,pics/hammerheadshark.jpg,pics/wheel01.jpg,pics/snowshoe.jpg,pics/birdhouse.jpg,pics/eggplant.jpg,pics/spiderweb.jpg,pics/zebra.jpg,pics/pencilsharpener02a.jpg,pics/backpack01a.jpg,blankImage,blankImage,blankImage,blankImage,blankImage,blankImage,eggplant,32,,,,,,,,,,,,,,,,,,,,,,,,,,,,,,,,,,,,,,,,,0,39,39,31,1,,,,,,,,,,,,,,,,,,,,,,,,,,,,,,,,,,,,,,,,,,,,,,,,,,,,,,,
,,,,,5cb201e1fa4b72000183aa9e,6682b41eeb79ab8215dff63d,6682ba481805f49828e8b0db,59,Female,English,2024-07-01_15h17.23.415,ABmemTask3,2023.2.3,Win32,59.88023952,,,,,,,,,,,,,,,,,,,,,,,,,,,,,,,583.4897,584.494,584.494,7,584.994,586.3942,0.0014,586.5103,0.1164,0.117,0.1162,0.1166,0.1168,0.1165,0.1165,0.1164,0.1167,0.1218,0.1115,586.5105,587.3605,left,0.8168,,587.3606,588.1443,right,0.7618,,32,0,82,588.1444,589.1434,,,,,,1_AB,L1_T1A_T2A,1,0,0,7,8,6,5,13,fan,Did you see the fan,0.12,0,resources/,pics/leaf02a.jpg,pics/dustpan.jpg,pics/pencil01.jpg,pics/kangaroo.jpg,pics/golfball.jpg,pics/lightswitch01.jpg,pics/nutcracker01.jpg,pics/calendar.jpg,pics/hose.jpg,pics/starfish01.jpg,pics/siamesecat.jpg,pics/bowlingpin.jpg,pics/necklace.jpg,blankImage,blankImage,blankImage,blankImage,fan,42,0.1168,,,,,,,,,,,,,,,,,,,,,,,,,,,,,,,,,,,,,,,,0,40,40,41,1,,,,,,,,,,,,,,,,,,,,,,,,,,,,,,,,,,,,,,,,,,,,,,,,,,,,,,,
,,,,,5cb201e1fa4b72000183aa9e,6682b41eeb79ab8215dff63d,6682ba481805f49828e8b0db,59,Female,English,2024-07-01_15h17.23.415,ABmemTask3,2023.2.3,Win32,59.88023952,,,,,,,,,,,,,,,,,,,,,,,,,,,,,,,589.1443,590.1436,590.1437,7,590.6432,592.2769,0.0013,592.398,0.116,0.1217,0.1126,0.1159,0.1164,0.1167,0.1168,0.1173,0.1159,0.1166,0.1165,592.3981,593.643,right,1.217,,593.6431,594.3427,right,0.6672,,34,0,84,594.3429,595.3433,,,,,,1_AB,L5_T1P_T2P,5,1,1,5,10,4,5,15,ribbon,Did you see the ribbon,0.12,0,resources/,pics/giraffe.jpg,pics/boot02b.jpg,pics/cymbal.jpg,pics/leaf02a.jpg,pics/ribbon04.jpg,pics/lightswitch01.jpg,pics/necklace.jpg,pics/calendar.jpg,pics/kangaroo.jpg,pics/stapler12.jpg,pics/hose.jpg,pics/carrot01.jpg,pics/match.jpg,pics/sink.jpg,pics/candleholder01.jpg,blankImage,blankImage,ribbon04,53,0.1222,0.1115,0.1166,,,,,,,,,,,,,,,,,,,,,,,,,,,,,,,,,,,,,,0,41,41,52,1,,,,,,,,,,,,,,,,,,,,,,,,,,,,,,,,,,,,,,,,,,,,,,,,,,,,,,,
,,,,,5cb201e1fa4b72000183aa9e,6682b41eeb79ab8215dff63d,6682ba481805f49828e8b0db,59,Female,English,2024-07-01_15h17.23.415,ABmemTask3,2023.2.3,Win32,59.88023952,,,,,,,,,,,,,,,,,,,,,,,,,,,,,,,595.3552,596.3674,596.3675,7,596.8595,597.7927,0.0013,597.909,0.1157,0.117,0.1161,0.1173,0.1166,0.1166,0.1162,0.1167,,,,597.9091,598.826,left,0.89,,598.8261,599.6087,right,0.7495,,36,0,86,599.6088,600.6085,,,,,,1_AB,L1_T1A_T2P,1,0,1,5,6,4,3,9,Trailer,Did you see the Trailer,0.12,0,resources/,pics/pencil01.jpg,pics/football.jpg,pics/hairdryer02a.jpg,pics/wheel01.jpg,pics/chainsaw.jpg,pics/stapler10.jpg,pics/peanut01.jpg,pics/triangle.jpg,pics/sink.jpg,blankImage,blankImage,blankImage,blankImage,blankImage,blankImage,blankImage,blankImage,boxtrailer,29,,,,,,,,,,,,,,,,,,,,,,,,,,,,,,,,,,,,,,,,,0,42,42,28,1,,,,,,,,,,,,,,,,,,,,,,,,,,,,,,,,,,,,,,,,,,,,,,,,,,,,,,,
,,,,,5cb201e1fa4b72000183aa9e,6682b41eeb79ab8215dff63d,6682ba481805f49828e8b0db,59,Female,English,2024-07-01_15h17.23.415,ABmemTask3,2023.2.3,Win32,59.88023952,,,,,,,,,,,,,,,,,,,,,,,,,,,,,,,600.6093,601.6088,601.6089,7,602.1091,603.6251,0.0014,603.7415,0.1153,0.1171,0.1168,0.1162,0.1164,0.1176,0.1161,0.1167,0.117,0.1159,0.122,603.7416,604.8412,right,1.0774,,604.8414,605.5245,right,0.6509,,34,0,88,605.5246,606.5252,,,,,,1_AB,L5_T1P_T2A,5,1,0,6,11,5,3,14,Kiwi,Did you see the Kiwi,0.12,0,resources/,pics/candleholder01.jpg,pics/kangaroo.jpg,pics/banjo.jpg,pics/binoculars01b.jpg,pics/microscope.jpg,pics/kiwi03.jpg,pics/bowtie.jpg,pics/peanut01.jpg,pics/backpack01a.jpg,pics/zebra.jpg,pics/toiletpaper01a.jpg,pics/hen.jpg,pics/spoon01.jpg,pics/calendar.jpg,blankImage,blankImage,blankImage,kiwi03,59,0.1121,0.1158,,,,,,,,,,,,,,,,,,,,,,,,,,,,,,,,,,,,,,,0,43,43,58,1,,,,,,,,,,,,,,,,,,,,,,,,,,,,,,,,,,,,,,,,,,,,,,,,,,,,,,,
,,,,,5cb201e1fa4b72000183aa9e,6682b41eeb79ab8215dff63d,6682ba481805f49828e8b0db,59,Female,English,2024-07-01_15h17.23.415,ABmemTask3,2023.2.3,Win32,59.88023952,,,,,,,,,,,,,,,,,,,,,,,,,,,,,,,606.526,607.5248,607.5249,7,608.0241,609.1911,0.0015,609.3072,0.116,0.1173,0.1168,0.1159,0.1166,0.1166,0.1165,0.117,0.1167,0.1162,,609.3073,610.0407,right,0.7101,,610.0408,610.6404,right,0.5722,,36,0,90,610.6405,611.6308,,,,,,1_AB,L1_T1P_T2P,1,1,1,7,8,6,3,11,medal,Did you see the medal,0.12,0,resources/,pics/hen.jpg,pics/starfish01.jpg,pics/nutcracker01.jpg,pics/ball02.jpg,pics/fanblades.jpg,pics/christmaslights.jpg,pics/medal02b.jpg,pics/stapler09.jpg,pics/carrot01.jpg,pics/hammerheadshark.jpg,pics/sailboat.jpg,blankImage,blankImage,blankImage,blankImage,blankImage,blankImage,medal02b,19,,,,,,,,,,,,,,,,,,,,,,,,,,,,,,,,,,,,,,,,,0,44,44,18,1,,,,,,,,,,,,,,,,,,,,,,,,,,,,,,,,,,,,,,,,,,,,,,,,,,,,,,,
,,,,,5cb201e1fa4b72000183aa9e,6682b41eeb79ab8215dff63d,6682ba481805f49828e8b0db,59,Female,English,2024-07-01_15h17.23.415,ABmemTask3,2023.2.3,Win32,59.88023952,,,,,,,,,,,,,,,,,,,,,,,,,,,,,,,611.6425,612.6402,612.6403,7,613.1406,614.7744,0.0014,614.8906,0.1163,0.1168,0.1167,0.116,0.1163,0.1177,0.1158,0.1172,0.116,0.1173,0.1162,614.8907,615.3403,right,0.4263,,615.3404,615.8904,right,0.5224,,38,0,92,615.8904,616.8896,,,,,,1_AB,L5_T1P_T2P,5,1,1,5,10,4,5,15,dolphin,Did you see the dolphin,0.12,0,resources/,pics/banjo.jpg,pics/shipinabottle.jpg,pics/laptop01a.jpg,pics/onion.jpg,pics/dolphin01.jpg,pics/sink.jpg,pics/seaturtle.jpg,pics/butterfly.jpg,pics/hen.jpg,pics/stapler10.jpg,pics/proboscismonkey.jpg,pics/starfish01.jpg,pics/salmon.jpg,pics/spiderweb.jpg,pics/cymbal.jpg,blankImage,blankImage,dolphin01,49,0.1168,0.1228,0.1108,,,,,,,,,,,,,,,,,,,,,,,,,,,,,,,,,,,,,,0,45,45,48,1,,,,,,,,,,,,,,,,,,,,,,,,,,,,,,,,,,,,,,,,,,,,,,,,,,,,,,,
,,,,,5cb201e1fa4b72000183aa9e,6682b41eeb79ab8215dff63d,6682ba481805f49828e8b0db,59,Female,English,2024-07-01_15h17.23.415,ABmemTask3,2023.2.3,Win32,59.88023952,,,,,,,,,,,,,,,,,,,,,,,,,,,,,,,616.8905,617.8896,617.8897,7,618.3894,620.0231,0.0013,620.1392,0.1162,0.1173,0.1158,0.1168,0.1165,0.1171,0.1164,0.1167,0.1166,0.1173,0.1168,620.1393,620.7894,left,0.6181,,620.7895,621.3893,right,0.5669,,40,0,94,621.3894,622.3888,,,,,,1_AB,L5_T1A_T2P,5,0,1,7,12,6,3,15,scissors,Did you see the scissors,0.12,0,resources/,pics/cannon.jpg,pics/mummy.jpg,pics/shovel01.jpg,pics/christmaslights.jpg,pics/snowshoe.jpg,pics/candle01.jpg,pics/bowtie.jpg,pics/giraffe.jpg,pics/carrot01.jpg,pics/spoon01.jpg,pics/seaturtle.jpg,pics/stapler10.jpg,pics/footballhelmet.jpg,pics/onion.jpg,pics/wheel01.jpg,blankImage,blankImage,scissors01,57,0.1163,0.1164,0.1164,,,,,,,,,,,,,,,,,,,,,,,,,,,,,,,,,,,,,,0,46,46,56,1,,,,,,,,,,,,,,,,,,,,,,,,,,,,,,,,,,,,,,,,,,,,,,,,,,,,,,,
,,,,,5cb201e1fa4b72000183aa9e,6682b41eeb79ab8215dff63d,6682ba481805f49828e8b0db,59,Female,English,2024-07-01_15h17.23.415,ABmemTask3,2023.2.3,Win32,59.88023952,,,,,,,,,,,,,,,,,,,,,,,,,,,,,,,622.3896,623.3893,623.3894,7,623.8896,625.0556,0.0011,625.1718,0.1154,0.1167,0.1172,0.1159,0.1177,0.1162,0.1163,0.118,0.1153,0.1165,,625.172,625.8391,right,0.6426,,625.8392,626.6551,right,0.7896,,38,0,96,626.6552,627.6547,,,,,,1_AB,L1_T1P_T2A,1,1,0,7,8,6,3,11,garlic,Did you see the garlic,0.12,0,resources/,pics/zebra.jpg,pics/banjo.jpg,pics/pencilsharpener02a.jpg,pics/football.jpg,pics/candle01.jpg,pics/footballhelmet.jpg,pics/garlic01a.jpg,pics/birdhouse.jpg,pics/peach01.jpg,pics/pictureframe04.jpg,pics/binder03b.jpg,blankImage,blankImage,blankImage,blankImage,blankImage,blankImage,garlic01a,33,,,,,,,,,,,,,,,,,,,,,,,,,,,,,,,,,,,,,,,,,0,47,47,32,1,,,,,,,,,,,,,,,,,,,,,,,,,,,,,,,,,,,,,,,,,,,,,,,,,,,,,,,
,,,,,5cb201e1fa4b72000183aa9e,6682b41eeb79ab8215dff63d,6682ba481805f49828e8b0db,59,Female,English,2024-07-01_15h17.23.415,ABmemTask3,2023.2.3,Win32,59.88023952,,,,,,,,,,,,,,,,,,,,,,,,,,,,,,,627.6662,628.6551,628.6551,7,629.1551,630.3223,0.0013,630.4386,0.1164,0.1159,0.1167,0.1165,0.1172,0.1162,0.1222,0.1121,0.1227,0.1104,,630.4388,631.0604,right,0.6006,,631.0605,631.6545,right,0.5657,,36,0,98,631.6545,632.655,,,,,,1_AB,L1_T1P_T2A,1,1,0,7,8,6,3,11,Spear,Did you see the Spear,0.12,0,resources/,pics/butterfly.jpg,pics/banjo.jpg,pics/chainsaw.jpg,pics/christmaslights.jpg,pics/dustpan.jpg,pics/shovel01.jpg,pics/spear02.jpg,pics/table01.jpg,pics/starfish01.jpg,pics/bowlingpin.jpg,pics/carrot01.jpg,blankImage,blankImage,blankImage,blankImage,blankImage,blankImage,spear02,39,,,,,,,,,,,,,,,,,,,,,,,,,,,,,,,,,,,,,,,,,0,48,48,38,1,,,,,,,,,,,,,,,,,,,,,,,,,,,,,,,,,,,,,,,,,,,,,,,,,,,,,,,
,,,,,5cb201e1fa4b72000183aa9e,6682b41eeb79ab8215dff63d,6682ba481805f49828e8b0db,59,Female,English,2024-07-01_15h17.23.415,ABmemTask3,2023.2.3,Win32,59.88023952,,,,,,,,,,,,,,,,,,,,,,,,,,,,,,,632.6557,633.6545,633.6546,7,634.1539,635.6712,0.0011,635.787,0.1214,0.1116,0.1168,0.1163,0.1167,0.1168,0.1165,0.1171,0.1163,0.1166,0.117,635.7871,636.5212,right,0.7049,,636.5213,637.437,right,0.8942,,38,0,100,637.437,638.4367,,,,,,1_AB,L5_T1P_T2P,5,1,1,6,11,5,3,14,mail box,Did you see the mail box,0.12,0,resources/,pics/pictureframe04.jpg,pics/seaturtle.jpg,pics/blender.jpg,pics/carrot01.jpg,pics/nutcracker01.jpg,pics/mailbox02.jpg,pics/seagull.jpg,pics/sink.jpg,pics/siamesecat.jpg,pics/spiderweb.jpg,pics/stapler08.jpg,pics/safetypin.jpg,pics/candle01.jpg,pics/mummy.jpg,blankImage,blankImage,blankImage,mailbox02,43,0.1172,0.1161,,,,,,,,,,,,,,,,,,,,,,,,,,,,,,,,,,,,,,,0,49,49,42,1,,,,,,,,,,,,,,,,,,,,,,,,,,,,,,,,,,,,,,,,,,,,,,,,,,,,,,,
,,,,,5cb201e1fa4b72000183aa9e,6682b41eeb79ab8215dff63d,6682ba481805f49828e8b0db,59,Female,English,2024-07-01_15h17.23.415,ABmemTask3,2023.2.3,Win32,59.88023952,,,,,,,,,,,,,,,,,,,,,,,,,,,,,,,638.4374,639.437,639.437,7,639.9376,640.9869,0.0014,641.1093,0.1149,0.1168,0.1174,0.1162,0.1161,0.1198,0.1136,0.1167,0.1166,,,641.1094,641.9036,right,0.7705,,641.9037,642.4698,left,0.5453,,38,0,102,642.4699,643.4694,,,,,,1_AB,L1_T1P_T2P,1,1,1,5,6,4,4,10,thermometer,Did you see the thermometer,0.12,0,resources/,pics/triangle.jpg,pics/shovel01.jpg,pics/mummy.jpg,pics/noparkingsign.jpg,pics/thermometer02b.jpg,pics/stapler04.jpg,pics/piggybank.jpg,pics/golfball.jpg,pics/laptop01a.jpg,pics/aquarium.jpg,blankImage,blankImage,blankImage,blankImage,blankImage,blankImage,blankImage,thermometer02b,8,,,,,,,,,,,,,,,,,,,,,,,,,,,,,,,,,,,,,,,,,0,50,50,7,1,,,,,,,,,,,,,,,,,,,,,,,,,,,,,,,,,,,,,,,,,,,,,,,,,,,,,,,
,,,,,5cb201e1fa4b72000183aa9e,6682b41eeb79ab8215dff63d,6682ba481805f49828e8b0db,59,Female,English,2024-07-01_15h17.23.415,ABmemTask3,2023.2.3,Win32,59.88023952,,,,,,,,,,,,,,,,,,,,,,,,,,,,,,,643.481,644.4695,644.4696,7,644.9691,646.0195,0.0013,646.1363,0.117,0.1159,0.1166,0.1165,0.1167,0.1234,0.1102,0.1165,0.1165,,,646.1365,646.9526,left,0.7894,,646.9527,648.1021,right,1.1207,,40,0,104,648.1023,649.1018,,,,,,1_AB,L1_T1A_T2P,1,0,1,5,6,4,4,10,button,Did you see the button,0.12,0,resources/,pics/pencil01.jpg,pics/necklace.jpg,pics/sink.jpg,pics/noparkingsign.jpg,pics/banjo.jpg,pics/stapler03b.jpg,pics/candle01.jpg,pics/icecube01.jpg,pics/shovel01.jpg,pics/pencilsharpener02a.jpg,blankImage,blankImage,blankImage,blankImage,blankImage,blankImage,blankImage,button01,25,,,,,,,,,,,,,,,,,,,,,,,,,,,,,,,,,,,,,,,,,0,51,51,24,1,,,,,,,,,,,,,,,,,,,,,,,,,,,,,,,,,,,,,,,,,,,,,,,,,,,,,,,
,,,,,5cb201e1fa4b72000183aa9e,6682b41eeb79ab8215dff63d,6682ba481805f49828e8b0db,59,Female,English,2024-07-01_15h17.23.415,ABmemTask3,2023.2.3,Win32,59.88023952,,,,,,,,,,,,,,,,,,,,,,,,,,,,,,,649.1028,650.1018,650.1018,7,650.6019,651.7687,0.0011,651.8856,0.1166,0.1167,0.1165,0.1166,0.1163,0.1166,0.1172,0.116,0.1169,0.1167,,651.8857,652.6355,right,0.7176,,652.6356,653.768,right,1.1032,,42,0,106,653.7682,654.7689,,,,,,1_AB,L1_T1P_T2P,1,1,1,7,8,6,3,11,pliers,Did you see the pliers,0.12,0,resources/,pics/mummy.jpg,pics/binder03b.jpg,pics/bowtie.jpg,pics/toiletpaper01a.jpg,pics/football.jpg,pics/blender.jpg,pics/needlenosepliers01.jpg,pics/stapler13.jpg,pics/zebra.jpg,pics/hammerheadshark.jpg,pics/sealion.jpg,blankImage,blankImage,blankImage,blankImage,blankImage,blankImage,needlenosepliers01,6,,,,,,,,,,,,,,,,,,,,,,,,,,,,,,,,,,,,,,,,,0,52,52,5,1,,,,,,,,,,,,,,,,,,,,,,,,,,,,,,,,,,,,,,,,,,,,,,,,,,,,,,,
,,,,,5cb201e1fa4b72000183aa9e,6682b41eeb79ab8215dff63d,6682ba481805f49828e8b0db,59,Female,English,2024-07-01_15h17.23.415,ABmemTask3,2023.2.3,Win32,59.88023952,,,,,,,,,,,,,,,,,,,,,,,,,,,,,,,654.7695,655.7676,655.7677,7,656.2679,657.4346,0.0012,657.5507,0.116,0.117,0.1162,0.1176,0.1167,0.1225,0.1098,0.1167,0.1169,0.1163,,657.5509,658.5071,left,0.934,,658.5071,659.1886,left,0.6655,,44,0,108,659.1887,660.184,,,,,,1_AB,L1_T1A_T2A,1,0,0,7,8,6,3,11,Poker chips,Did you see the Poker chips,0.12,0,resources/,pics/candle01.jpg,pics/proboscismonkey.jpg,pics/fanblades.jpg,pics/dromedary.jpg,pics/aquarium.jpg,pics/salmon.jpg,pics/hose.jpg,pics/kangaroo.jpg,pics/noparkingsign.jpg,pics/carrot01.jpg,pics/leaf02a.jpg,blankImage,blankImage,blankImage,blankImage,blankImage,blankImage,pokerchips,41,,,,,,,,,,,,,,,,,,,,,,,,,,,,,,,,,,,,,,,,,0,53,53,40,1,,,,,,,,,,,,,,,,,,,,,,,,,,,,,,,,,,,,,,,,,,,,,,,,,,,,,,,
,,,,,5cb201e1fa4b72000183aa9e,6682b41eeb79ab8215dff63d,6682ba481805f49828e8b0db,59,Female,English,2024-07-01_15h17.23.415,ABmemTask3,2023.2.3,Win32,59.88023952,,,,,,,,,,,,,,,,,,,,,,,,,,,,,,,660.1951,661.1843,661.1845,7,661.6835,662.6181,0.0014,662.7372,0.1169,0.1228,0.1097,0.1173,0.1161,0.1167,0.1163,0.1178,,,,662.7373,664.1732,right,1.4181,,664.1733,664.8575,left,0.6665,,44,0,110,664.8576,665.8498,,,,,,1_AB,L1_T1P_T2P,1,1,1,4,5,3,4,9,antenna,Did you see the antenna,0.12,0,resources/,pics/microscope.jpg,pics/spoon01.jpg,pics/dromedary.jpg,pics/antenna.jpg,pics/stapler03.jpg,pics/hen.jpg,pics/leaf02a.jpg,pics/candle01.jpg,pics/sealion.jpg,blankImage,blankImage,blankImage,blankImage,blankImage,blankImage,blankImage,blankImage,antenna,9,,,,,,,,,,,,,,,,,,,,,,,,,,,,,,,,,,,,,,,,,0,54,54,8,1,,,,,,,,,,,,,,,,,,,,,,,,,,,,,,,,,,,,,,,,,,,,,,,,,,,,,,,
,,,,,5cb201e1fa4b72000183aa9e,6682b41eeb79ab8215dff63d,6682ba481805f49828e8b0db,59,Female,English,2024-07-01_15h17.23.415,ABmemTask3,2023.2.3,Win32,59.88023952,,,,,,,,,,,,,,,,,,,,,,,,,,,,,,,665.861,666.8496,666.8498,7,667.3494,668.4,0.0014,668.5159,0.1159,0.1167,0.1176,0.1156,0.1168,0.1176,0.1158,0.1174,0.1161,,,668.516,669.166,right,0.6241,,669.1661,670.0824,right,0.8886,,46,0,112,670.0826,671.0828,,,,,,1_AB,L1_T1P_T2P,1,1,1,4,5,3,5,10,vacuum,Did you see the vacuum,0.12,0,resources/,pics/birdhouse.jpg,pics/floortile02.jpg,pics/toiletpaper01a.jpg,pics/vacuumcleaner01.jpg,pics/stapler02.jpg,pics/spoon01.jpg,pics/banjo.jpg,pics/binder03b.jpg,pics/leaf02a.jpg,pics/aquarium.jpg,blankImage,blankImage,blankImage,blankImage,blankImage,blankImage,blankImage,vacuumcleaner01,5,,,,,,,,,,,,,,,,,,,,,,,,,,,,,,,,,,,,,,,,,0,55,55,4,1,,,,,,,,,,,,,,,,,,,,,,,,,,,,,,,,,,,,,,,,,,,,,,,,,,,,,,,
,,,,,5cb201e1fa4b72000183aa9e,6682b41eeb79ab8215dff63d,6682ba481805f49828e8b0db,59,Female,English,2024-07-01_15h17.23.415,ABmemTask3,2023.2.3,Win32,59.88023952,,,,,,,,,,,,,,,,,,,,,,,,,,,,,,,671.0835,672.0821,672.0822,7,672.5826,673.8664,0.0012,673.9829,0.1156,0.1235,0.1099,0.1168,0.1165,0.1173,0.1167,0.116,0.1164,0.1168,0.1174,673.9831,674.439,right,0.4343,,674.4391,675.0875,right,0.6318,,48,0,114,675.0876,676.0816,,,,,,1_AB,L1_T1P_T2P,1,1,1,6,7,5,5,12,jeep,Did you see the jeep,0.12,0,resources/,pics/sandbarshark.jpg,pics/laptop01a.jpg,pics/peach01.jpg,pics/binoculars01b.jpg,pics/giraffe.jpg,pics/jeep.jpg,pics/stapler03b.jpg,pics/fanblades.jpg,pics/cannon.jpg,pics/starfish01.jpg,pics/piggybank.jpg,pics/noparkingsign.jpg,blankImage,blankImage,blankImage,blankImage,blankImage,jeep,2,,,,,,,,,,,,,,,,,,,,,,,,,,,,,,,,,,,,,,,,,0,56,56,1,1,,,,,,,,,,,,,,,,,,,,,,,,,,,,,,,,,,,,,,,,,,,,,,,,,,,,,,,
,,,,,5cb201e1fa4b72000183aa9e,6682b41eeb79ab8215dff63d,6682ba481805f49828e8b0db,59,Female,English,2024-07-01_15h17.23.415,ABmemTask3,2023.2.3,Win32,59.88023952,,,,,,,,,,,,,,,,,,,,,,,,,,,,,,,676.0823,677.0818,677.0818,7,677.5813,678.8701,0.0014,678.9816,0.1167,0.1201,0.1126,0.1166,0.117,0.1164,0.1174,0.1164,0.1159,0.1221,0.1164,678.9816,679.6145,right,0.6042,,679.6146,680.1368,right,0.5003,,50,0,116,680.1369,681.1313,,,,,,1_AB,L1_T1P_T2P,1,1,1,6,7,5,5,12,rope,Did you see the rope,0.12,0,resources/,pics/toiletpaper01a.jpg,pics/sewingmachine01a.jpg,pics/birdhouse.jpg,pics/sealion.jpg,pics/safetypin.jpg,pics/rope03.jpg,pics/stapler04.jpg,pics/binder03b.jpg,pics/ashtray01.jpg,pics/sandbarshark.jpg,pics/chainsaw.jpg,pics/nutcracker01.jpg,blankImage,blankImage,blankImage,blankImage,blankImage,rope03,4,,,,,,,,,,,,,,,,,,,,,,,,,,,,,,,,,,,,,,,,,0,57,57,3,1,,,,,,,,,,,,,,,,,,,,,,,,,,,,,,,,,,,,,,,,,,,,,,,,,,,,,,,
,,,,,5cb201e1fa4b72000183aa9e,6682b41eeb79ab8215dff63d,6682ba481805f49828e8b0db,59,Female,English,2024-07-01_15h17.23.415,ABmemTask3,2023.2.3,Win32,59.88023952,,,,,,,,,,,,,,,,,,,,,,,,,,,,,,,681.1321,682.1308,682.1309,7,682.6307,683.6816,0.0013,683.7972,0.1172,0.1156,0.1166,0.1168,0.1165,0.1166,0.1172,0.1162,0.1172,,,683.7973,684.2972,right,0.4753,,684.2973,684.8639,right,0.5337,,48,0,118,684.864,685.8637,,,,,,1_AB,L1_T1P_T2A,1,1,0,6,7,5,3,10,Duct tape,Did you see the Duct tape,0.12,0,resources/,pics/butterfly.jpg,pics/noparkingsign.jpg,pics/pictureframe04.jpg,pics/cork02.jpg,pics/fanblades.jpg,pics/ducttape.jpg,pics/icecube01.jpg,pics/siamesecat.jpg,pics/sink.jpg,pics/sandbarshark.jpg,blankImage,blankImage,blankImage,blankImage,blankImage,blankImage,blankImage,ducttape,36,,,,,,,,,,,,,,,,,,,,,,,,,,,,,,,,,,,,,,,,,0,58,58,35,1,,,,,,,,,,,,,,,,,,,,,,,,,,,,,,,,,,,,,,,,,,,,,,,,,,,,,,,
,,,,,5cb201e1fa4b72000183aa9e,6682b41eeb79ab8215dff63d,6682ba481805f49828e8b0db,59,Female,English,2024-07-01_15h17.23.415,ABmemTask3,2023.2.3,Win32,59.88023952,,,,,,,,,,,,,,,,,,,,,,,,,,,,,,,685.8645,686.8634,686.8635,7,687.3636,688.2979,0.0017,688.4134,0.1158,0.1166,0.1173,0.1158,0.1172,0.1162,0.1169,0.1173,,,,688.4135,688.9355,right,0.5001,,688.9356,689.7692,right,0.8154,,50,0,120,689.7693,690.7629,,,,,,1_AB,L1_T1P_T2P,1,1,1,5,6,4,3,9,cabbage,Did you see the cabbage,0.12,0,resources/,pics/match.jpg,pics/icecube01.jpg,pics/noparkingsign.jpg,pics/christmaslights.jpg,pics/cabbage.jpg,pics/stapler03a.jpg,pics/carrot01.jpg,pics/dustpan.jpg,pics/cannon.jpg,blankImage,blankImage,blankImage,blankImage,blankImage,blankImage,blankImage,blankImage,cabbage,14,,,,,,,,,,,,,,,,,,,,,,,,,,,,,,,,,,,,,,,,,0,59,59,13,1,,,,,,,,,,,,,,,,,,,,,,,,,,,,,,,,,,,,,,,,,,,,,,,,,,,,,,,
,,,,,5cb201e1fa4b72000183aa9e,6682b41eeb79ab8215dff63d,6682ba481805f49828e8b0db,59,Female,English,2024-07-01_15h17.23.415,ABmemTask3,2023.2.3,Win32,59.88023952,,,,,,,,,,,,,,,,,,,,,,,,,,,,,,,690.7637,691.7628,691.7629,7,692.2509,694.0015,0.0012,694.1124,0.1112,0.1171,0.1173,0.1158,0.123,0.1104,0.1165,0.1168,0.1172,0.1159,0.1167,694.1126,694.7696,right,0.6349,,694.7697,695.7518,left,0.9656,,52,0,122,695.7518,696.7461,,,,,,1_AB,L5_T1P_T2A,5,1,0,6,11,5,5,16,belt,Did you see the belt,0.12,0,resources/,pics/banjo.jpg,pics/birdhouse.jpg,pics/spoon01.jpg,pics/table01.jpg,pics/candle01.jpg,pics/belt02a.jpg,pics/peach01.jpg,pics/chainsaw.jpg,pics/toiletpaper01a.jpg,pics/proboscismonkey.jpg,pics/cymbal.jpg,pics/binoculars01b.jpg,pics/cannon.jpg,pics/noparkingsign.jpg,pics/sailboat.jpg,pics/carrot01.jpg,blankImage,belt02a,61,0.1173,0.116,0.1165,,,,,,,,,,,,,,,,,,,,,,,,,,,,,,,,,,,,,,0,60,60,60,1,0.1219,,,,,,,,,,,,,,,,,,,,,,,,,,,,,,,,,,,,,,,,,,,,,,,,,,,,,,
,,,,,5cb201e1fa4b72000183aa9e,6682b41eeb79ab8215dff63d,6682ba481805f49828e8b0db,59,Female,English,2024-07-01_15h17.23.415,ABmemTask3,2023.2.3,Win32,59.88023952,,,,,,,,,,,,,,,,,,,,,,,,,,,,,,,696.747,697.7456,697.7457,7,698.2452,699.6455,0.0013,699.7624,0.1162,0.1175,0.1157,0.1169,0.117,0.1163,0.1167,0.1166,0.1166,0.1168,0.1165,699.7625,700.3123,right,0.5283,,700.3124,701.1508,left,0.8177,,52,0,124,701.1509,702.1454,,,,,,1_AB,L1_T1P_T2P,1,1,1,7,8,6,5,13,Totem Pole,Did you see the Totem Pole,0.12,0,resources/,pics/laptop01a.jpg,pics/carrot01.jpg,pics/wheel01.jpg,pics/icecube01.jpg,pics/ashtray01.jpg,pics/lock03a.jpg,pics/totempole.jpg,pics/stapler08.jpg,pics/golfball.jpg,pics/pencil01.jpg,pics/banjo.jpg,pics/sandbarshark.jpg,pics/shipinabottle.jpg,blankImage,blankImage,blankImage,blankImage,totempole,22,0.1165,,,,,,,,,,,,,,,,,,,,,,,,,,,,,,,,,,,,,,,,0,61,61,21,1,,,,,,,,,,,,,,,,,,,,,,,,,,,,,,,,,,,,,,,,,,,,,,,,,,,,,,,
,,,,,5cb201e1fa4b72000183aa9e,6682b41eeb79ab8215dff63d,6682ba481805f49828e8b0db,59,Female,English,2024-07-01_15h17.23.415,ABmemTask3,2023.2.3,Win32,59.88023952,,,,,,,,,,,,,,,,,,,,,,,,,,,,,,,,,,,,,,,,,,,,,,,,,,,,,,,,,,,,,,,,,,,,,,,,,,,,,,,,,,,,,,,,,,,,,,,,,,,,,,,,,,,702.1467,716.4779,space,14.3036,,,,,,,,,,,,,,,,,,,,,,,,,,,,,,,,,,,,,,,,,,,,,,,,,,,,,,,,,,,,,,,,,,,,,,,,,,,,,,,,,,,,,,,,,,,,,
,,,,,5cb201e1fa4b72000183aa9e,6682b41eeb79ab8215dff63d,6682ba481805f49828e8b0db,59,Female,English,2024-07-01_15h17.23.415,ABmemTask3,2023.2.3,Win32,59.88023952,,,space,37.127,,,,,,,,,,,,,,,,,,,,,,,,,,,,,,,,,,,,,,,,,,,,,,,,,,,,,,,,,,,,,,,,,,,,,,,,,,,,,,,,,,,,,,,,,,,,,,,,,,,,,,,,,,,,,,,,,,,,,,,,,,,,,,,,,,,,,,,,,,,,,,,,,,,716.4782,753.6392,,,,,,,,,,,,,,,,,,,,,,,,,,,,,,,,,,,,,,,,,,,,,,,,,,,
,,,,,5cb201e1fa4b72000183aa9e,6682b41eeb79ab8215dff63d,6682ba481805f49828e8b0db,59,Female,English,2024-07-01_15h17.23.415,ABmemTask3,2023.2.3,Win32,59.88023952,,,,,,,,,,,,,,,,,,,,,,,,,,,,,,,,,,,,,,,,,,,,,,,,,,,,,,,,,,,,,,,,,,,,,,,,,,,,,,,,,,,,,,,,,,,,,,,,,,,,,,,,,,,,,,,,,,,,,,,,,,,,,,,,,,,,,,,,,,,,,,,,,,,,,,,,,753.6394,774.3029,space,20.6164,,,,,,,,,,,,,,,,,,,,,,,,,,,,,,,,,,,,,,,,,,,,,,,
,,,,,5cb201e1fa4b72000183aa9e,6682b41eeb79ab8215dff63d,6682ba481805f49828e8b0db,59,Female,English,2024-07-01_15h17.23.415,ABmemTask3,2023.2.3,Win32,59.88023952,,,,,,,,,,,,,,,,,,,,,,,,,,,,,,,774.3168,775.3181,775.3182,7,775.8182,776.7517,0.0017,776.8686,0.1158,0.117,0.1162,0.1167,0.1166,0.1166,0.1172,0.1159,,,,776.869,777.3346,right,0.4452,,,,,,,1,52,2,777.3347,778.3343,,,,,,2_AB,L1_T1P_T2P,1,1,1,5,6,4,3,9,skipping rope,Did you see the skipping rope,0.12,0,resources/,pics/lock03a.jpg,pics/shovel01.jpg,pics/sealion.jpg,pics/cannon.jpg,pics/skippingrope.jpg,pics/stapler11.jpg,pics/dustpan.jpg,pics/piggybank.jpg,pics/starfish01.jpg,blankImage,blankImage,blankImage,blankImage,blankImage,blankImage,blankImage,blankImage,skippingrope,13,,,,,,,,,,,,,,,,,,,,,,,,,,,,,,,,,,,,,,,,,,,,,,,,,,,,,,,0,0,0,12,1,,,,,,,,,,,,,,,,,,,,,,,,,,,,,,,,,,,,,,,,,
,,,,,5cb201e1fa4b72000183aa9e,6682b41eeb79ab8215dff63d,6682ba481805f49828e8b0db,59,Female,English,2024-07-01_15h17.23.415,ABmemTask3,2023.2.3,Win32,59.88023952,,,,,,,,,,,,,,,,,,,,,,,,,,,,,,,778.3353,779.3351,779.3351,7,779.8343,781.2346,0.0014,781.3506,0.1159,0.1166,0.1167,0.1169,0.1164,0.1164,0.1167,0.1169,0.1165,0.1166,0.1165,781.3506,781.5339,right,0.1724,,,,,,,2,52,4,781.5341,782.5338,,,,,,2_AB,L1_T1P_T2P,1,1,1,7,8,6,5,13,Sausage,Did you see the Sausage,0.12,0,resources/,pics/safetypin.jpg,pics/mummy.jpg,pics/ashtray01.jpg,pics/toiletpaper01a.jpg,pics/piggybank.jpg,pics/dustpan.jpg,pics/sausage.jpg,pics/stapler01.jpg,pics/onion.jpg,pics/binder03b.jpg,pics/kangaroo.jpg,pics/football.jpg,pics/candle01.jpg,blankImage,blankImage,blankImage,blankImage,sausage,2,0.1169,,,,,,,,,,,,,,,,,,,,,,,,,,,,,,,,,,,,,,,,,,,,,,,,,,,,,,0,1,1,1,1,,,,,,,,,,,,,,,,,,,,,,,,,,,,,,,,,,,,,,,,,
,,,,,5cb201e1fa4b72000183aa9e,6682b41eeb79ab8215dff63d,6682ba481805f49828e8b0db,59,Female,English,2024-07-01_15h17.23.415,ABmemTask3,2023.2.3,Win32,59.88023952,,,,,,,,,,,,,,,,,,,,,,,,,,,,,,,782.5346,783.5341,783.5343,7,784.0338,785.0844,0.0016,785.2001,0.1164,0.1159,0.1166,0.1165,0.1166,0.1171,0.1164,0.1164,0.1174,,,785.2002,785.4,right,0.1867,,,,,,,3,52,6,785.4003,786.4007,,,,,,2_AB,L1_T1P_T2P,1,1,1,4,5,3,5,10,Tambourine,Did you see the Tambourine,0.12,0,resources/,pics/icecube01.jpg,pics/peach01.jpg,pics/binder03b.jpg,pics/tambourine03.jpg,pics/stapler03.jpg,pics/leaf02a.jpg,pics/butterfly.jpg,pics/spiderweb.jpg,pics/candleholder01.jpg,pics/toiletpaper01a.jpg,blankImage,blankImage,blankImage,blankImage,blankImage,blankImage,blankImage,tambourine03,4,,,,,,,,,,,,,,,,,,,,,,,,,,,,,,,,,,,,,,,,,,,,,,,,,,,,,,,0,2,2,3,1,,,,,,,,,,,,,,,,,,,,,,,,,,,,,,,,,,,,,,,,,
,,,,,5cb201e1fa4b72000183aa9e,6682b41eeb79ab8215dff63d,6682ba481805f49828e8b0db,59,Female,English,2024-07-01_15h17.23.415,ABmemTask3,2023.2.3,Win32,59.88023952,,,,,,,,,,,,,,,,,,,,,,,,,,,,,,,786.4013,787.4004,787.4005,7,787.9005,789.3006,0.0014,789.4166,0.1157,0.1162,0.1169,0.1166,0.1171,0.1165,0.1163,0.1175,0.1162,0.1171,0.1157,789.4168,790.7495,right,1.3111,,,,,,,4,52,8,790.7496,791.7495,,,,,,2_AB,L1_T1P_T2A,1,1,0,7,8,6,5,13,Lighthouse,Did you see the Lighthouse,0.12,0,resources/,pics/christmaslights.jpg,pics/backpack01a.jpg,pics/aquarium.jpg,pics/bowtie.jpg,pics/table01.jpg,pics/sandbarshark.jpg,pics/lighthouse.jpg,pics/lock03a.jpg,pics/calendar.jpg,pics/match.jpg,pics/spiderweb.jpg,pics/fanblades.jpg,pics/butterfly.jpg,blankImage,blankImage,blankImage,blankImage,lighthouse,33,0.1173,,,,,,,,,,,,,,,,,,,,,,,,,,,,,,,,,,,,,,,,,,,,,,,,,,,,,,0,3,3,32,1,,,,,,,,,,,,,,,,,,,,,,,,,,,,,,,,,,,,,,,,,
,,,,,5cb201e1fa4b72000183aa9e,6682b41eeb79ab8215dff63d,6682ba481805f49828e8b0db,59,Female,English,2024-07-01_15h17.23.415,ABmemTask3,2023.2.3,Win32,59.88023952,,,,,,,,,,,,,,,,,,,,,,,,,,,,,,,791.7615,792.7657,792.7658,7,793.2656,795.0158,0.0015,795.1321,0.1168,0.1159,0.1166,0.1168,0.1166,0.1173,0.1158,0.1173,0.1163,0.1171,0.1164,795.1322,796.2157,right,1.0697,,,,,,,5,52,10,796.2158,797.2156,,,,,,2_AB,L5_T1P_T2P,5,1,1,7,12,6,4,16,printer,Did you see the printer,0.12,0,resources/,pics/laptop01a.jpg,pics/peanut01.jpg,pics/backpack01a.jpg,pics/snowshoe.jpg,pics/lock03a.jpg,pics/table01.jpg,pics/printer02.jpg,pics/leaf02a.jpg,pics/match.jpg,pics/piggybank.jpg,pics/binoculars01b.jpg,pics/stapler08.jpg,pics/floortile02.jpg,pics/noparkingsign.jpg,pics/wheel01.jpg,pics/mummy.jpg,blankImage,printer02,44,0.1172,0.116,0.1164,,,,,,,,,,,,,,,,,,,,,,,,,,,,,,,,,,,,,,,,,,,0.1166,,,,,,,,,0,4,4,43,1,,,,,,,,,,,,,,,,,,,,,,,,,,,,,,,,,,,,,,,,,
,,,,,5cb201e1fa4b72000183aa9e,6682b41eeb79ab8215dff63d,6682ba481805f49828e8b0db,59,Female,English,2024-07-01_15h17.23.415,ABmemTask3,2023.2.3,Win32,59.88023952,,,,,,,,,,,,,,,,,,,,,,,,,,,,,,,797.2163,798.215,798.2151,7,798.7149,799.6485,0.0016,799.7646,0.1159,0.117,0.1158,0.1171,0.1168,0.1164,0.1167,0.1166,,,,799.7648,800.3649,left,0.5822,,,,,,,6,52,12,800.365,801.3652,,,,,,2_AB,L1_T1A_T2P,1,0,1,4,5,3,4,9,granola bar,Did you see the granola bar,0.12,0,resources/,pics/hairdryer02a.jpg,pics/microscope.jpg,pics/triangle.jpg,pics/calendar.jpg,pics/stapler04.jpg,pics/sailboat.jpg,pics/floortile02.jpg,pics/backpack01a.jpg,pics/pencil01.jpg,blankImage,blankImage,blankImage,blankImage,blankImage,blankImage,blankImage,blankImage,granolabar01,30,,,,,,,,,,,,,,,,,,,,,,,,,,,,,,,,,,,,,,,,,,,,,,,,,,,,,,,0,5,5,29,1,,,,,,,,,,,,,,,,,,,,,,,,,,,,,,,,,,,,,,,,,
,,,,,5cb201e1fa4b72000183aa9e,6682b41eeb79ab8215dff63d,6682ba481805f49828e8b0db,59,Female,English,2024-07-01_15h17.23.415,ABmemTask3,2023.2.3,Win32,59.88023952,,,,,,,,,,,,,,,,,,,,,,,,,,,,,,,801.366,802.3644,802.3645,7,802.8644,804.1479,0.0016,804.2643,0.1158,0.1165,0.1173,0.1162,0.1173,0.1159,0.1172,0.1165,0.1166,0.1162,0.1167,804.2644,804.7641,right,0.4837,,,,,,,7,52,14,804.7643,805.7639,,,,,,2_AB,L5_T1P_T2P,5,1,1,4,9,3,3,12,tent,Did you see the tent,0.12,0,resources/,pics/spiderweb.jpg,pics/hairdryer02a.jpg,pics/noparkingsign.jpg,pics/tent.jpg,pics/nutcracker01.jpg,pics/boot02b.jpg,pics/golfball.jpg,pics/candle01.jpg,pics/stapler08.jpg,pics/fanblades.jpg,pics/cannon.jpg,pics/lightswitch01.jpg,blankImage,blankImage,blankImage,blankImage,blankImage,tent,51,,,,,,,,,,,,,,,,,,,,,,,,,,,,,,,,,,,,,,,,,,,,,,,,,,,,,,,0,6,6,50,1,,,,,,,,,,,,,,,,,,,,,,,,,,,,,,,,,,,,,,,,,
,,,,,5cb201e1fa4b72000183aa9e,6682b41eeb79ab8215dff63d,6682ba481805f49828e8b0db,59,Female,English,2024-07-01_15h17.23.415,ABmemTask3,2023.2.3,Win32,59.88023952,,,,,,,,,,,,,,,,,,,,,,,,,,,,,,,805.7649,806.7639,806.764,7,807.2637,808.3148,0.0014,808.4308,0.1168,0.1162,0.1164,0.1174,0.1158,0.1165,0.1169,0.1164,0.1175,,,808.4309,808.9142,left,0.4716,,,,,,,8,52,16,808.9143,809.9134,,,,,,2_AB,L1_T1A_T2P,1,0,1,4,5,3,5,10,spice rack,Did you see the spice rack,0.12,0,resources/,pics/hammerheadshark.jpg,pics/pictureframe04.jpg,pics/boot02b.jpg,pics/starfish01.jpg,pics/stapler12.jpg,pics/leaf02a.jpg,pics/necklace.jpg,pics/hose.jpg,pics/salmon.jpg,pics/cymbal.jpg,blankImage,blankImage,blankImage,blankImage,blankImage,blankImage,blankImage,spicerack,27,,,,,,,,,,,,,,,,,,,,,,,,,,,,,,,,,,,,,,,,,,,,,,,,,,,,,,,0,7,7,26,1,,,,,,,,,,,,,,,,,,,,,,,,,,,,,,,,,,,,,,,,,
,,,,,5cb201e1fa4b72000183aa9e,6682b41eeb79ab8215dff63d,6682ba481805f49828e8b0db,59,Female,English,2024-07-01_15h17.23.415,ABmemTask3,2023.2.3,Win32,59.88023952,,,,,,,,,,,,,,,,,,,,,,,,,,,,,,,809.9143,810.9132,810.9133,7,811.4136,812.58,0.0013,812.6972,0.1155,0.1167,0.1172,0.1161,0.1166,0.1168,0.1167,0.117,0.1162,0.1168,,812.6973,813.1797,right,0.4612,,,,,,,9,52,18,813.1799,814.1795,,,,,,2_AB,L1_T1P_T2P,1,1,1,5,6,4,5,11,arrow,Did you see the arrow,0.12,0,resources/,pics/binoculars01b.jpg,pics/pencilsharpener02a.jpg,pics/spoon01.jpg,pics/bowtie.jpg,pics/arrow02.jpg,pics/stapler03.jpg,pics/siamesecat.jpg,pics/onion.jpg,pics/sailboat.jpg,pics/seaturtle.jpg,pics/snowshoe.jpg,blankImage,blankImage,blankImage,blankImage,blankImage,blankImage,arrow02,23,,,,,,,,,,,,,,,,,,,,,,,,,,,,,,,,,,,,,,,,,,,,,,,,,,,,,,,0,8,8,22,1,,,,,,,,,,,,,,,,,,,,,,,,,,,,,,,,,,,,,,,,,
,,,,,5cb201e1fa4b72000183aa9e,6682b41eeb79ab8215dff63d,6682ba481805f49828e8b0db,59,Female,English,2024-07-01_15h17.23.415,ABmemTask3,2023.2.3,Win32,59.88023952,,,,,,,,,,,,,,,,,,,,,,,,,,,,,,,814.1801,815.1798,815.1799,7,815.6793,816.8463,0.0018,816.9631,0.1165,0.1163,0.1171,0.1161,0.117,0.116,0.1172,0.1167,0.1161,0.1166,,816.9633,817.4467,left,0.4664,,,,,,,10,52,20,817.4468,818.4464,,,,,,2_AB,L1_T1A_T2A,1,0,0,7,8,6,3,11,pill,Did you see the pill,0.12,0,resources/,pics/sink.jpg,pics/seagull.jpg,pics/ashtray01.jpg,pics/piggybank.jpg,pics/toiletpaper01a.jpg,pics/carrot01.jpg,pics/wheel01.jpg,pics/blender.jpg,pics/onion.jpg,pics/pencil01.jpg,pics/binder03b.jpg,blankImage,blankImage,blankImage,blankImage,blankImage,blankImage,pill,40,,,,,,,,,,,,,,,,,,,,,,,,,,,,,,,,,,,,,,,,,,,,,,,,,,,,,,,0,9,9,39,1,,,,,,,,,,,,,,,,,,,,,,,,,,,,,,,,,,,,,,,,,
