consent1.started,consent1.stopped,key_resp_8.keys,key_resp_8.rt,key_resp_8.duration,PROLIFIC_PID,STUDY_ID,SESSION_ID,age,sex,native language,date,expName,psychopyVersion,OS,frameRate,consent2.started,consent2.stopped,key_resp_9.keys,key_resp_9.rt,key_resp_9.duration,consent3.started,consent3.stopped,key_resp_10.keys,key_resp_10.rt,key_resp_10.duration,consent4.started,consent4.stopped,key_resp_11.keys,key_resp_11.rt,key_resp_11.duration,consent5.started,consent5.stopped,key_resp_12.keys,key_resp_12.rt,key_resp_12.duration,bonusInstruct.started,bonusInstruct.stopped,key_resp_14.keys,key_resp_14.rt,key_resp_14.duration,practiceInstruct.started,practiceInstruct.stopped,key_resp.keys,key_resp.rt,key_resp.duration,cueWord_2.started,cueWord_2.stopped,fix.started,frameTarget,fix.stopped,trial.started,img1Add,trial.stopped,img2Add,img3Add,img4Add,img5Add,img6Add,img7Add,img8Add,img9Add,img10Add,img11Add,img12Add,prompt1.started,prompt1.stopped,key_resp_2.keys,key_resp_2.rt,key_resp_2.duration,prompt2.started,prompt2.stopped,key_resp_3.keys,key_resp_3.rt,key_resp_3.duration,runningAcc_AB,runningTotal,runningCount_AB,feedback.started,feedback.stopped,trials.thisRepN,trials.thisTrialN,trials.thisN,trials.thisIndex,trials.ran,TrialType,CondType,Lag,T1_PA,T2_PA,T1Loc,T2Loc,PreDistractor,PostDistractor,TotalImg,cueWord,T1cue,StimLength,isi,PicFolder,Img1,Img2,Img3,Img4,Img5,Img6,Img7,Img8,Img9,Img10,Img11,Img12,Img13,Img14,Img15,Img16,Img17,T1_Identity,trialID,img13Add,img14Add,img15Add,ABfeedback.started,ABfeedback.stopped,key_resp_13.keys,key_resp_13.rt,key_resp_13.duration,MemPracticeInstruction.started,MemPracticeInstruction.stopped,key_resp_5.keys,key_resp_5.rt,key_resp_5.duration,memTrial.started,memTrial.stopped,Mem_runningPoints,key_resp_4.keys,key_resp_4.rt,key_resp_4.duration,memTrialFeedback.started,memTrialFeedback.stopped,trials_2.thisRepN,trials_2.thisTrialN,trials_2.thisN,trials_2.thisIndex,trials_2.ran,ABtrialID,priorLag,image,memFeedback.started,memFeedback.frame,memFeedback.ended,memFeedback.stopped,bonus.started,bonus.stopped,memoryBlockABInstruct.started,memoryBlockABInstruct.stopped,key_resp_6.keys,key_resp_6.rt,key_resp_6.duration,AB_block_1.thisRepN,AB_block_1.thisTrialN,AB_block_1.thisN,AB_block_1.thisIndex,AB_block_1.ran,img16Add,img17Add,AB_break1.started,AB_break1.stopped,PerceiveBlockABInstruct.started,PerceiveBlockABInstruct.stopped,key_resp_7.keys,key_resp_7.rt,key_resp_7.duration,AB_block_2.thisRepN,AB_block_2.thisTrialN,AB_block_2.thisN,AB_block_2.thisIndex,AB_block_2.ran,AB_break2.started,AB_break2.stopped,AB_block_3.thisRepN,AB_block_3.thisTrialN,AB_block_3.thisN,AB_block_3.thisIndex,AB_block_3.ran,AB_break3.started,AB_break3.stopped,AB_block_4.thisRepN,AB_block_4.thisTrialN,AB_block_4.thisN,AB_block_4.thisIndex,AB_block_4.ran,AB_break4.started,AB_break4.stopped,AB_block_5.thisRepN,AB_block_5.thisTrialN,AB_block_5.thisN,AB_block_5.thisIndex,AB_block_5.ran,AB_break5.started,AB_break5.stopped,AB_block_6.thisRepN,AB_block_6.thisTrialN,AB_block_6.thisN,AB_block_6.thisIndex,AB_block_6.ran,AB_break6.started,AB_break6.stopped,MemInstructionSURPRISE.started,MemInstructionSURPRISE.stopped,MemInstruction.started,MemInstruction.stopped,memBreak.started,memBreak.stopped,Mem_block_1.thisRepN,Mem_block_1.thisTrialN,Mem_block_1.thisN,Mem_block_1.thisIndex,Mem_block_1.ran
0.0002,1.5736,space,1.5602,,5d4a14cc5407dc0001b30979,6669d216483b4754e2264ff7,6669dd6925a810de41d5ed07,24,male,English,2024-06-12_13h53.37.950,ABmemTask3,2023.2.3,Win32,74.62686567,,,,,,,,,,,,,,,,,,,,,,,,,,,,,,,,,,,,,,,,,,,,,,,,,,,,,,,,,,,,,,,,,,,,,,,,,,,,,,,,,,,,,,,,,,,,,,,,,,,,,,,,,,,,,,,,,,,,,,,,,,,,,,,,,,,,,,,,,,,,,,,,,,,,,,,,,,,,,,,,,,,,,,,,,,,,,,,,,,,,,,,,,,,,,,,,,,,,,,,,,,,
,,,,,5d4a14cc5407dc0001b30979,6669d216483b4754e2264ff7,6669dd6925a810de41d5ed07,24,male,English,2024-06-12_13h53.37.950,ABmemTask3,2023.2.3,Win32,74.62686567,1.5738,1.8805,space,0.282,,,,,,,,,,,,,,,,,,,,,,,,,,,,,,,,,,,,,,,,,,,,,,,,,,,,,,,,,,,,,,,,,,,,,,,,,,,,,,,,,,,,,,,,,,,,,,,,,,,,,,,,,,,,,,,,,,,,,,,,,,,,,,,,,,,,,,,,,,,,,,,,,,,,,,,,,,,,,,,,,,,,,,,,,,,,,,,,,,,,,,,,,,,,,,,,,,,,,,,
,,,,,5d4a14cc5407dc0001b30979,6669d216483b4754e2264ff7,6669dd6925a810de41d5ed07,24,male,English,2024-06-12_13h53.37.950,ABmemTask3,2023.2.3,Win32,74.62686567,,,,,,1.8806,2.1738,space,0.2832,,,,,,,,,,,,,,,,,,,,,,,,,,,,,,,,,,,,,,,,,,,,,,,,,,,,,,,,,,,,,,,,,,,,,,,,,,,,,,,,,,,,,,,,,,,,,,,,,,,,,,,,,,,,,,,,,,,,,,,,,,,,,,,,,,,,,,,,,,,,,,,,,,,,,,,,,,,,,,,,,,,,,,,,,,,,,,,,,,,,,,,,,,,,,,,,,,
,,,,,5d4a14cc5407dc0001b30979,6669d216483b4754e2264ff7,6669dd6925a810de41d5ed07,24,male,English,2024-06-12_13h53.37.950,ABmemTask3,2023.2.3,Win32,74.62686567,,,,,,,,,,,2.1739,2.5474,space,0.3546,,,,,,,,,,,,,,,,,,,,,,,,,,,,,,,,,,,,,,,,,,,,,,,,,,,,,,,,,,,,,,,,,,,,,,,,,,,,,,,,,,,,,,,,,,,,,,,,,,,,,,,,,,,,,,,,,,,,,,,,,,,,,,,,,,,,,,,,,,,,,,,,,,,,,,,,,,,,,,,,,,,,,,,,,,,,,,,,,,,,,,,,,,,,,
,,,,,5d4a14cc5407dc0001b30979,6669d216483b4754e2264ff7,6669dd6925a810de41d5ed07,24,male,English,2024-06-12_13h53.37.950,ABmemTask3,2023.2.3,Win32,74.62686567,,,,,,,,,,,,,,,,2.5475,2.8407,space,0.2812,,,,,,,,,,,,,,,,,,,,,,,,,,,,,,,,,,,,,,,,,,,,,,,,,,,,,,,,,,,,,,,,,,,,,,,,,,,,,,,,,,,,,,,,,,,,,,,,,,,,,,,,,,,,,,,,,,,,,,,,,,,,,,,,,,,,,,,,,,,,,,,,,,,,,,,,,,,,,,,,,,,,,,,,,,,,,,,,,,,,,,,,
,,,,,5d4a14cc5407dc0001b30979,6669d216483b4754e2264ff7,6669dd6925a810de41d5ed07,24,male,English,2024-06-12_13h53.37.950,ABmemTask3,2023.2.3,Win32,74.62686567,,,,,,,,,,,,,,,,,,,,,2.8408,4.1078,space,1.2556,,,,,,,,,,,,,,,,,,,,,,,,,,,,,,,,,,,,,,,,,,,,,,,,,,,,,,,,,,,,,,,,,,,,,,,,,,,,,,,,,,,,,,,,,,,,,,,,,,,,,,,,,,,,,,,,,,,,,,,,,,,,,,,,,,,,,,,,,,,,,,,,,,,,,,,,,,,,,,,,,,,,,,,,,,,,,,,,,,,
,,,,,5d4a14cc5407dc0001b30979,6669d216483b4754e2264ff7,6669dd6925a810de41d5ed07,24,male,English,2024-06-12_13h53.37.950,ABmemTask3,2023.2.3,Win32,74.62686567,,,,,,,,,,,,,,,,,,,,,,,,,,4.1079,4.6681,space,0.548,,,,,,,,,,,,,,,,,,,,,,,,,,,,,,,,,,,,,,,,,,,,,,,,,,,,,,,,,,,,,,,,,,,,,,,,,,,,,,,,,,,,,,,,,,,,,,,,,,,,,,,,,,,,,,,,,,,,,,,,,,,,,,,,,,,,,,,,,,,,,,,,,,,,,,,,,,,,,,,,,,,,,,,,,,,,,,
,,,,,5d4a14cc5407dc0001b30979,6669d216483b4754e2264ff7,6669dd6925a810de41d5ed07,24,male,English,2024-06-12_13h53.37.950,ABmemTask3,2023.2.3,Win32,74.62686567,,,,,,,,,,,,,,,,,,,,,,,,,,,,,,,4.6772,5.6683,5.6683,19,6.1617,8.9496,0.001,9.2029,0.2535,0.2525,0.2536,0.2533,0.2534,0.2534,0.2537,0.2533,0.2538,0.2533,0.2532,9.203,10.2034,right,0.9856,,10.2034,10.5901,left,0.3633,,2,0,2,10.5902,11.5903,0,0,0,0,1,prac_AB,L1_T1P_T2A,1,1,0,6,7,5,5,12,cat,Did you see the cat,0.25,0,resources/,pics/shipinabottle.jpg,pics/table01.jpg,pics/dustpan.jpg,pics/golfball.jpg,pics/giraffe.jpg,pics/cat.jpg,pics/peanut01.jpg,pics/pictureframe04.jpg,pics/fanblades.jpg,pics/laptop01a.jpg,pics/ball02.jpg,pics/blender.jpg,blankImage,blankImage,blankImage,blankImage,blankImage,cat,8,,,,,,,,,,,,,,,,,,,,,,,,,,,,,,,,,,,,,,,,,,,,,,,,,,,,,,,,,,,,,,,,,,,,,,,,,,,,,,,,,,,,,,,,,,,,,,,,,,,,
,,,,,5d4a14cc5407dc0001b30979,6669d216483b4754e2264ff7,6669dd6925a810de41d5ed07,24,male,English,2024-06-12_13h53.37.950,ABmemTask3,2023.2.3,Win32,74.62686567,,,,,,,,,,,,,,,,,,,,,,,,,,,,,,,11.5907,12.5909,12.591,18,13.0842,15.2452,0.0006,15.485,0.24,0.2398,0.24,0.2407,0.2395,0.2401,0.2401,0.24,0.2404,,,15.485,16.0986,right,0.5922,,16.0986,16.3921,right,0.2756,,4,0,4,16.3921,17.3923,0,1,1,1,1,prac_AB,L1_T1P_T2P,1,1,1,5,6,4,4,10,tree,Did you see the tree,0.24,0,resources/,pics/carrot01.jpg,pics/hammerheadshark.jpg,pics/kangaroo.jpg,pics/proboscismonkey.jpg,pics/tree.jpg,pics/stapler07.jpg,pics/siamesecat.jpg,pics/ball02.jpg,pics/pictureframe04.jpg,pics/mummy.jpg,blankImage,blankImage,blankImage,blankImage,blankImage,blankImage,blankImage,tree,1,,,,,,,,,,,,,,,,,,,,,,,,,,,,,,,,,,,,,,,,,,,,,,,,,,,,,,,,,,,,,,,,,,,,,,,,,,,,,,,,,,,,,,,,,,,,,,,,,,,,
,,,,,5d4a14cc5407dc0001b30979,6669d216483b4754e2264ff7,6669dd6925a810de41d5ed07,24,male,English,2024-06-12_13h53.37.950,ABmemTask3,2023.2.3,Win32,74.62686567,,,,,,,,,,,,,,,,,,,,,,,,,,,,,,,17.3925,18.3927,18.3927,17,18.8862,21.3806,0.0007,21.6071,0.2263,0.2267,0.2268,0.2271,0.2263,0.2268,0.2267,0.2269,0.2269,0.2265,0.2267,21.6072,22.3826,left,0.7616,,22.3827,22.6477,right,0.2524,,6,0,6,22.6477,23.6479,0,2,2,2,1,prac_AB,L1_T1A_T2P,1,0,1,7,8,6,4,12,grapes,Did you see the grapes,0.23,0,resources/,pics/sailboat.jpg,pics/butterfly.jpg,pics/giraffe.jpg,pics/spoon01.jpg,pics/hose.jpg,pics/nutcracker01.jpg,pics/table01.jpg,pics/stapler13.jpg,pics/pencil01.jpg,pics/football.jpg,pics/triangle.jpg,pics/hairdryer02a.jpg,blankImage,blankImage,blankImage,blankImage,blankImage,grape01,6,,,,,,,,,,,,,,,,,,,,,,,,,,,,,,,,,,,,,,,,,,,,,,,,,,,,,,,,,,,,,,,,,,,,,,,,,,,,,,,,,,,,,,,,,,,,,,,,,,,,
,,,,,5d4a14cc5407dc0001b30979,6669d216483b4754e2264ff7,6669dd6925a810de41d5ed07,24,male,English,2024-06-12_13h53.37.950,ABmemTask3,2023.2.3,Win32,74.62686567,,,,,,,,,,,,,,,,,,,,,,,,,,,,,,,23.6482,24.6484,24.6485,16,25.1418,28.1297,0.0004,28.3462,0.2131,0.2135,0.2135,0.2134,0.2135,0.2133,0.2157,0.2111,0.2134,0.2158,0.211,28.3462,28.9699,right,0.6027,,28.9699,29.2501,right,0.2561,,8,0,8,29.2501,30.2503,0,3,3,3,1,prac_AB,L5_T1P_T2P,5,1,1,7,12,6,3,15,Human skull,Did you see the Human skull,0.22,0,resources/,pics/peach01.jpg,pics/proboscismonkey.jpg,pics/hose.jpg,pics/laptop01a.jpg,pics/hammerheadshark.jpg,pics/nutcracker01.jpg,pics/humanskull.jpg,pics/table01.jpg,pics/icecube01.jpg,pics/boot02b.jpg,pics/calendar.jpg,pics/stapler03a.jpg,pics/ashtray01.jpg,pics/giraffe.jpg,pics/dromedary.jpg,blankImage,blankImage,humanskull,12,0.2134,0.2134,0.2134,,,,,,,,,,,,,,,,,,,,,,,,,,,,,,,,,,,,,,,,,,,,,,,,,,,,,,,,,,,,,,,,,,,,,,,,,,,,,,,,,,,,,,,,,,,,,,,,,
,,,,,5d4a14cc5407dc0001b30979,6669d216483b4754e2264ff7,6669dd6925a810de41d5ed07,24,male,English,2024-06-12_13h53.37.950,ABmemTask3,2023.2.3,Win32,74.62686567,,,,,,,,,,,,,,,,,,,,,,,,,,,,,,,30.2505,31.2506,31.2506,16,31.7441,33.8784,0.0006,34.0916,0.2131,0.2134,0.2134,0.2134,0.2134,0.2134,0.2135,0.2133,0.2134,0.2135,,34.0917,34.932,left,0.8141,,34.932,35.1855,right,0.2298,,10,0,10,35.1856,36.1857,0,4,4,4,1,prac_AB,L1_T1A_T2P,1,0,1,7,8,6,3,11,dog,Did you see the dog,0.21,0,resources/,pics/ball02.jpg,pics/binder03b.jpg,pics/dromedary.jpg,pics/shipinabottle.jpg,pics/proboscismonkey.jpg,pics/laptop01a.jpg,pics/chainsaw.jpg,pics/stapler13.jpg,pics/nutcracker01.jpg,pics/carrot01.jpg,pics/calendar.jpg,blankImage,blankImage,blankImage,blankImage,blankImage,blankImage,saintbernard,7,,,,,,,,,,,,,,,,,,,,,,,,,,,,,,,,,,,,,,,,,,,,,,,,,,,,,,,,,,,,,,,,,,,,,,,,,,,,,,,,,,,,,,,,,,,,,,,,,,,,
,,,,,5d4a14cc5407dc0001b30979,6669d216483b4754e2264ff7,6669dd6925a810de41d5ed07,24,male,English,2024-06-12_13h53.37.950,ABmemTask3,2023.2.3,Win32,74.62686567,,,,,,,,,,,,,,,,,,,,,,,,,,,,,,,36.1905,37.186,37.186,15,37.6797,40.4808,0.0006,40.6806,0.1996,0.2002,0.2,0.2001,0.2001,0.2,0.2001,0.2001,0.2001,0.2,0.2001,40.6807,41.321,right,0.6147,,41.321,41.561,right,0.2237,,12,0,12,41.5611,42.5614,0,5,5,5,1,prac_AB,L5_T1P_T2P,5,1,1,5,10,4,5,15,grater,Did you see the grater,0.2,0,resources/,pics/pencil01.jpg,pics/laptop01a.jpg,pics/hammerheadshark.jpg,pics/cork02.jpg,pics/grater01a.jpg,pics/shipinabottle.jpg,pics/binder03b.jpg,pics/dromedary.jpg,pics/pictureframe04.jpg,pics/stapler04b.jpg,pics/fanblades.jpg,pics/aquarium.jpg,pics/hairdryer02a.jpg,pics/lightswitch01.jpg,pics/piggybank.jpg,blankImage,blankImage,grater01a,11,0.2001,0.2,0.2001,,,,,,,,,,,,,,,,,,,,,,,,,,,,,,,,,,,,,,,,,,,,,,,,,,,,,,,,,,,,,,,,,,,,,,,,,,,,,,,,,,,,,,,,,,,,,,,,,
,,,,,5d4a14cc5407dc0001b30979,6669d216483b4754e2264ff7,6669dd6925a810de41d5ed07,24,male,English,2024-06-12_13h53.37.950,ABmemTask3,2023.2.3,Win32,74.62686567,,,,,,,,,,,,,,,,,,,,,,,,,,,,,,,42.5616,43.5616,43.5616,14,44.0552,45.5492,0.0004,45.7357,0.1865,0.1868,0.1868,0.1867,0.1867,0.1867,0.1867,0.1868,,,,45.7358,46.7096,right,0.9527,,46.7096,46.9763,left,0.2469,,14,0,14,46.9763,47.9766,0,6,6,6,1,prac_AB,L1_T1P_T2A,1,1,0,4,5,3,4,9,chalk,Did you see the chalk,0.19,0,resources/,pics/necklace.jpg,pics/starfish01.jpg,pics/safetypin.jpg,pics/chalk.jpg,pics/candleholder01.jpg,pics/bowtie.jpg,pics/match.jpg,pics/candle01.jpg,pics/pencilsharpener02a.jpg,blankImage,blankImage,blankImage,blankImage,blankImage,blankImage,blankImage,blankImage,chalk,9,,,,,,,,,,,,,,,,,,,,,,,,,,,,,,,,,,,,,,,,,,,,,,,,,,,,,,,,,,,,,,,,,,,,,,,,,,,,,,,,,,,,,,,,,,,,,,,,,,,,
,,,,,5d4a14cc5407dc0001b30979,6669d216483b4754e2264ff7,6669dd6925a810de41d5ed07,24,male,English,2024-06-12_13h53.37.950,ABmemTask3,2023.2.3,Win32,74.62686567,,,,,,,,,,,,,,,,,,,,,,,,,,,,,,,47.9768,48.977,48.977,13,49.4704,51.0313,0.0005,51.2045,0.1731,0.1735,0.1733,0.1735,0.1735,0.1733,0.1734,0.1733,0.1735,,,51.2045,51.7114,right,0.4846,,51.7114,51.9782,right,0.2469,,16,0,16,51.9783,52.9813,0,7,7,7,1,prac_AB,L1_T1P_T2P,1,1,1,5,6,4,4,10,pants,Did you see the pants,0.18,0,resources/,pics/kangaroo.jpg,pics/safetypin.jpg,pics/salmon.jpg,pics/sandbarshark.jpg,pics/pants.jpg,pics/stapler03a.jpg,pics/sink.jpg,pics/calendar.jpg,pics/butterfly.jpg,pics/fanblades.jpg,blankImage,blankImage,blankImage,blankImage,blankImage,blankImage,blankImage,pants,2,,,,,,,,,,,,,,,,,,,,,,,,,,,,,,,,,,,,,,,,,,,,,,,,,,,,,,,,,,,,,,,,,,,,,,,,,,,,,,,,,,,,,,,,,,,,,,,,,,,,
,,,,,5d4a14cc5407dc0001b30979,6669d216483b4754e2264ff7,6669dd6925a810de41d5ed07,24,male,English,2024-06-12_13h53.37.950,ABmemTask3,2023.2.3,Win32,74.62686567,,,,,,,,,,,,,,,,,,,,,,,,,,,,,,,52.9816,53.9787,53.9788,13,54.4723,56.9,0.0004,57.0732,0.1731,0.1735,0.1735,0.1732,0.1735,0.1734,0.1733,0.1735,0.1734,0.1733,0.1734,57.0732,57.6867,left,0.5866,,57.6868,57.9135,right,0.2092,,18,0,18,57.9136,58.9139,0,8,8,8,1,prac_AB,L5_T1A_T2P,5,0,1,7,12,6,3,15,shirt,Did you see the shirt,0.17,0,resources/,pics/banjo.jpg,pics/chainsaw.jpg,pics/sailboat.jpg,pics/shipinabottle.jpg,pics/lightswitch01.jpg,pics/starfish01.jpg,pics/hen.jpg,pics/ball02.jpg,pics/bowlingpin.jpg,pics/hammerheadshark.jpg,pics/footballhelmet.jpg,pics/stapler10.jpg,pics/laptop01a.jpg,pics/cannon.jpg,pics/golfball.jpg,blankImage,blankImage,shirt02,13,0.1734,0.1734,0.1733,,,,,,,,,,,,,,,,,,,,,,,,,,,,,,,,,,,,,,,,,,,,,,,,,,,,,,,,,,,,,,,,,,,,,,,,,,,,,,,,,,,,,,,,,,,,,,,,,
,,,,,5d4a14cc5407dc0001b30979,6669d216483b4754e2264ff7,6669dd6925a810de41d5ed07,24,male,English,2024-06-12_13h53.37.950,ABmemTask3,2023.2.3,Win32,74.62686567,,,,,,,,,,,,,,,,,,,,,,,,,,,,,,,58.9141,59.9142,59.9142,12,60.4077,62.0084,0.0004,62.1683,0.1599,0.16,0.1602,0.1599,0.1602,0.16,0.1601,0.16,0.1601,0.16,,62.1684,64.556,right,2.3611,,64.556,64.7961,right,0.2158,,20,0,20,64.7961,65.7963,0,9,9,9,1,prac_AB,L1_T1P_T2P,1,1,1,7,8,6,3,11,tongs,Did you see the tongs,0.16,0,resources/,pics/sewingmachine01a.jpg,pics/shovel01.jpg,pics/football.jpg,pics/hen.jpg,pics/banjo.jpg,pics/zebra.jpg,pics/tongs01b.jpg,pics/stapler11.jpg,pics/shipinabottle.jpg,pics/match.jpg,pics/candle01.jpg,blankImage,blankImage,blankImage,blankImage,blankImage,blankImage,tongs01b,5,,,,,,,,,,,,,,,,,,,,,,,,,,,,,,,,,,,,,,,,,,,,,,,,,,,,,,,,,,,,,,,,,,,,,,,,,,,,,,,,,,,,,,,,,,,,,,,,,,,,
,,,,,5d4a14cc5407dc0001b30979,6669d216483b4754e2264ff7,6669dd6925a810de41d5ed07,24,male,English,2024-06-12_13h53.37.950,ABmemTask3,2023.2.3,Win32,74.62686567,,,,,,,,,,,,,,,,,,,,,,,,,,,,,,,65.8012,66.7966,66.7966,11,67.2902,68.9042,0.0004,69.0508,0.1465,0.1467,0.1468,0.1467,0.1466,0.1468,0.1468,0.1466,0.1468,0.1467,0.1468,69.0508,70.1313,left,1.0587,,70.1314,70.3846,left,0.2303,,22,0,22,70.3846,71.3849,0,10,10,10,1,prac_AB,L1_T1A_T2A,1,0,0,7,8,6,4,12,camera,Did you see the camera,0.15,0,resources/,pics/lightswitch01.jpg,pics/table01.jpg,pics/aquarium.jpg,pics/boot02b.jpg,pics/butterfly.jpg,pics/chainsaw.jpg,pics/binoculars01b.jpg,pics/giraffe.jpg,pics/triangle.jpg,pics/microscope.jpg,pics/mummy.jpg,pics/icecube01.jpg,blankImage,blankImage,blankImage,blankImage,blankImage,camera01a,10,,,,,,,,,,,,,,,,,,,,,,,,,,,,,,,,,,,,,,,,,,,,,,,,,,,,,,,,,,,,,,,,,,,,,,,,,,,,,,,,,,,,,,,,,,,,,,,,,,,,
,,,,,5d4a14cc5407dc0001b30979,6669d216483b4754e2264ff7,6669dd6925a810de41d5ed07,24,male,English,2024-06-12_13h53.37.950,ABmemTask3,2023.2.3,Win32,74.62686567,,,,,,,,,,,,,,,,,,,,,,,,,,,,,,,71.3853,72.3853,72.3853,10,72.8788,74.0794,0.0006,74.2126,0.1331,0.1334,0.1334,0.1332,0.1334,0.1334,0.1335,0.1333,0.1334,,,74.2126,74.7862,right,0.5545,,74.7862,75.0397,right,0.228,,24,0,24,75.0397,76.0399,0,11,11,11,1,prac_AB,L1_T1P_T2P,1,1,1,6,7,5,3,10,shorts,Did you see the shorts,0.14,0,resources/,pics/snowshoe.jpg,pics/chainsaw.jpg,pics/sailboat.jpg,pics/ball02.jpg,pics/candleholder01.jpg,pics/shorts01.jpg,pics/stapler07.jpg,pics/peach01.jpg,pics/proboscismonkey.jpg,pics/hen.jpg,blankImage,blankImage,blankImage,blankImage,blankImage,blankImage,blankImage,shorts01,4,,,,,,,,,,,,,,,,,,,,,,,,,,,,,,,,,,,,,,,,,,,,,,,,,,,,,,,,,,,,,,,,,,,,,,,,,,,,,,,,,,,,,,,,,,,,,,,,,,,,
,,,,,5d4a14cc5407dc0001b30979,6669d216483b4754e2264ff7,6669dd6925a810de41d5ed07,24,male,English,2024-06-12_13h53.37.950,ABmemTask3,2023.2.3,Win32,74.62686567,,,,,,,,,,,,,,,,,,,,,,,,,,,,,,,76.0402,77.0403,77.0404,10,77.5337,79.1346,0.0006,79.2678,0.1331,0.1336,0.1333,0.1333,0.1334,0.1333,0.1333,0.1334,0.1333,0.1335,0.1335,79.2678,80.1749,right,0.8833,,80.1749,80.4283,left,0.2334,,26,0,26,80.4284,81.4285,0,12,12,12,1,prac_AB,L5_T1P_T2A,5,1,0,5,10,4,3,13,fish,Did you see the fish,0.13,0,resources/,pics/football.jpg,pics/safetypin.jpg,pics/shovel01.jpg,pics/sink.jpg,pics/holdfast.jpg,pics/nutcracker01.jpg,pics/starfish01.jpg,pics/onion.jpg,pics/footballhelmet.jpg,pics/boot02b.jpg,pics/sewingmachine01a.jpg,pics/kangaroo.jpg,pics/banjo.jpg,blankImage,blankImage,blankImage,blankImage,holdfast,14,0.1332,,,,,,,,,,,,,,,,,,,,,,,,,,,,,,,,,,,,,,,,,,,,,,,,,,,,,,,,,,,,,,,,,,,,,,,,,,,,,,,,,,,,,,,,,,,,,,,,,,,
,,,,,5d4a14cc5407dc0001b30979,6669d216483b4754e2264ff7,6669dd6925a810de41d5ed07,24,male,English,2024-06-12_13h53.37.950,ABmemTask3,2023.2.3,Win32,74.62686567,,,,,,,,,,,,,,,,,,,,,,,,,,,,,,,81.4288,82.4289,82.4289,9,82.9225,84.0029,0.0003,84.1228,0.1199,0.12,0.1201,0.12,0.12,0.1201,0.12,0.1201,0.12,,,84.1229,85.0833,right,0.9342,,85.0833,85.35,left,0.2417,,26,0,28,85.3501,86.3503,0,13,13,13,1,prac_AB,L1_T1P_T2P,1,1,1,5,6,4,4,10,fish,Did you see the fish,0.12,0,resources/,pics/butterfly.jpg,pics/banjo.jpg,pics/leaf02a.jpg,pics/dustpan.jpg,pics/sturgeon.jpg,pics/stapler02.jpg,pics/necklace.jpg,pics/shovel01.jpg,pics/starfish01.jpg,pics/chainsaw.jpg,blankImage,blankImage,blankImage,blankImage,blankImage,blankImage,blankImage,sturgeon,3,,,,,,,,,,,,,,,,,,,,,,,,,,,,,,,,,,,,,,,,,,,,,,,,,,,,,,,,,,,,,,,,,,,,,,,,,,,,,,,,,,,,,,,,,,,,,,,,,,,,
,,,,,5d4a14cc5407dc0001b30979,6669d216483b4754e2264ff7,6669dd6925a810de41d5ed07,24,male,English,2024-06-12_13h53.37.950,ABmemTask3,2023.2.3,Win32,74.62686567,,,,,,,,,,,,,,,,,,,,,,,,,,,,,,,,,,,,,,,,,,,,,,,,,,,,,,,,,,,,,,,,,,,,,,,,,,,,,,,,,,,,,,,,,,,,,,,,,,,,,,,,,,,86.3508,88.8447,space,2.4721,,,,,,,,,,,,,,,,,,,,,,,,,,,,,,,,,,,,,,,,,,,,,,,,,,,,,,,,,,,,,,,,,,,,,,,,,,,,,,,,,,,,,,,,,,,,,
,,,,,5d4a14cc5407dc0001b30979,6669d216483b4754e2264ff7,6669dd6925a810de41d5ed07,24,male,English,2024-06-12_13h53.37.950,ABmemTask3,2023.2.3,Win32,74.62686567,,,,,,,,,,,,,,,,,,,,,,,,,,,,,,,,,,,,,,,,,,,,,,,,,,,,,,,,,,,,,,,,,,,,,,,,,,,,,,,,,,,,,,,,,,,,,,,,,,,,,,,,,,,88.8511,88.8531,,,,,,,,,,,,,,,,,,,,,,,,,,,,,,,,,,,,,,,,,,,,,,,,,,,,,,,,,,,,,,,,,,,,,,,,,,,,,,,,,,,,,,,,,,,,,,,
,,,,,5d4a14cc5407dc0001b30979,6669d216483b4754e2264ff7,6669dd6925a810de41d5ed07,24,male,English,2024-06-12_13h53.37.950,ABmemTask3,2023.2.3,Win32,74.62686567,,,,,,,,,,,,,,,,,,,,,,,,,,,,,,,,,,,,,,,,,,,,,,,,,,,,,,,,,,,,,,,,,,,,,,,,,,,,,,,,,,,,,,,,,,,,,,,,,,,,,,,,,,,88.8563,88.8563,,,,,,,,,,,,,,,,,,,,,,,,,,,,,,,,,,,,,,,,,,,,,,,,,,,,,,,,,,,,,,,,,,,,,,,,,,,,,,,,,,,,,,,,,,,,,,,
,,,,,5d4a14cc5407dc0001b30979,6669d216483b4754e2264ff7,6669dd6925a810de41d5ed07,24,male,English,2024-06-12_13h53.37.950,ABmemTask3,2023.2.3,Win32,74.62686567,,,,,,,,,,,,,,,,,,,,,,,,,,,,,,,,,,,,,,,,,,,,,,,,,,,,,,,,,,,,,,,,,,,,,,,,,,,,,,,,,,,,,,,,,,,,,,,,,,,,,,,,,,,88.8582,88.8583,,,,,,,,,,,,,,,,,,,,,,,,,,,,,,,,,,,,,,,,,,,,,,,,,,,,,,,,,,,,,,,,,,,,,,,,,,,,,,,,,,,,,,,,,,,,,,,
,,,,,5d4a14cc5407dc0001b30979,6669d216483b4754e2264ff7,6669dd6925a810de41d5ed07,24,male,English,2024-06-12_13h53.37.950,ABmemTask3,2023.2.3,Win32,74.62686567,,,,,,,,,,,,,,,,,,,,,,,,,,,,,,,,,,,,,,,,,,,,,,,,,,,,,,,,,,,,,,,,,,,,,,,,,,,,,,,,,,,,,,,,,,,,,,,,,,,,,,,,,,,88.8599,88.8599,,,,,,,,,,,,,,,,,,,,,,,,,,,,,,,,,,,,,,,,,,,,,,,,,,,,,,,,,,,,,,,,,,,,,,,,,,,,,,,,,,,,,,,,,,,,,,,
,,,,,5d4a14cc5407dc0001b30979,6669d216483b4754e2264ff7,6669dd6925a810de41d5ed07,24,male,English,2024-06-12_13h53.37.950,ABmemTask3,2023.2.3,Win32,74.62686567,,,,,,,,,,,,,,,,,,,,,,,,,,,,,,,,,,,,,,,,,,,,,,,,,,,,,,,,,,,,,,,,,,,,,,,,,,,,,,,,,,,,,,,,,,,,,,,,,,,,,,,,,,,88.8623,88.8624,,,,,,,,,,,,,,,,,,,,,,,,,,,,,,,,,,,,,,,,,,,,,,,,,,,,,,,,,,,,,,,,,,,,,,,,,,,,,,,,,,,,,,,,,,,,,,,
,,,,,5d4a14cc5407dc0001b30979,6669d216483b4754e2264ff7,6669dd6925a810de41d5ed07,24,male,English,2024-06-12_13h53.37.950,ABmemTask3,2023.2.3,Win32,74.62686567,,,,,,,,,,,,,,,,,,,,,,,,,,,,,,,,,,,,,,,,,,,,,,,,,,,,,,,,,,,,,,,,,,,,,,,,,,,,,,,,,,,,,,,,,,,,,,,,,,,,,,,,,,,88.8635,88.8635,,,,,,,,,,,,,,,,,,,,,,,,,,,,,,,,,,,,,,,,,,,,,,,,,,,,,,,,,,,,,,,,,,,,,,,,,,,,,,,,,,,,,,,,,,,,,,,
,,,,,5d4a14cc5407dc0001b30979,6669d216483b4754e2264ff7,6669dd6925a810de41d5ed07,24,male,English,2024-06-12_13h53.37.950,ABmemTask3,2023.2.3,Win32,74.62686567,,,,,,,,,,,,,,,,,,,,,,,,,,,,,,,,,,,,,,,,,,,,,,,,,,,,,,,,,,,,,,,,,,,,,,,,,,,,,,,,,,,,,,,,,,,,,,,,,,,,,,,,,,,88.8645,88.8645,,,,,,,,,,,,,,,,,,,,,,,,,,,,,,,,,,,,,,,,,,,,,,,,,,,,,,,,,,,,,,,,,,,,,,,,,,,,,,,,,,,,,,,,,,,,,,,
,,,,,5d4a14cc5407dc0001b30979,6669d216483b4754e2264ff7,6669dd6925a810de41d5ed07,24,male,English,2024-06-12_13h53.37.950,ABmemTask3,2023.2.3,Win32,74.62686567,,,,,,,,,,,,,,,,,,,,,,,,,,,,,,,,,,,,,,,,,,,,,,,,,,,,,,,,,,,,,,,,,,,,,,,,,,,,,,,,,,,,,,,,,,,,,,,,,,,,,,,,,,,88.8655,88.8656,,,,,,,,,,,,,,,,,,,,,,,,,,,,,,,,,,,,,,,,,,,,,,,,,,,,,,,,,,,,,,,,,,,,,,,,,,,,,,,,,,,,,,,,,,,,,,,
,,,,,5d4a14cc5407dc0001b30979,6669d216483b4754e2264ff7,6669dd6925a810de41d5ed07,24,male,English,2024-06-12_13h53.37.950,ABmemTask3,2023.2.3,Win32,74.62686567,,,,,,,,,,,,,,,,,,,,,,,,,,,,,,,,,,,,,,,,,,,,,,,,,,,,,,,,,,,,,,,,,,,,,,,,,,,,,,,,,,,,,,,,,,,,,,,,,,,,,,,,,,,88.867,88.867,,,,,,,,,,,,,,,,,,,,,,,,,,,,,,,,,,,,,,,,,,,,,,,,,,,,,,,,,,,,,,,,,,,,,,,,,,,,,,,,,,,,,,,,,,,,,,,
,,,,,5d4a14cc5407dc0001b30979,6669d216483b4754e2264ff7,6669dd6925a810de41d5ed07,24,male,English,2024-06-12_13h53.37.950,ABmemTask3,2023.2.3,Win32,74.62686567,,,,,,,,,,,,,,,,,,,,,,,,,,,,,,,,,,,,,,,,,,,,,,,,,,,,,,,,,,,,,,,,,,,,,,,,,,,,,,,,,,,,,,,,,,,,,,,,,,,,,,,,,,,88.8681,88.8681,,,,,,,,,,,,,,,,,,,,,,,,,,,,,,,,,,,,,,,,,,,,,,,,,,,,,,,,,,,,,,,,,,,,,,,,,,,,,,,,,,,,,,,,,,,,,,,
,,,,,5d4a14cc5407dc0001b30979,6669d216483b4754e2264ff7,6669dd6925a810de41d5ed07,24,male,English,2024-06-12_13h53.37.950,ABmemTask3,2023.2.3,Win32,74.62686567,,,,,,,,,,,,,,,,,,,,,,,,,,,,,,,,,,,,,,,,,,,,,,,,,,,,,,,,,,,,,,,,,,,,,,,,,,,,,,,,,,,,,,,,,,,,,,,,,,,,,,,,,,,88.8691,88.8691,,,,,,,,,,,,,,,,,,,,,,,,,,,,,,,,,,,,,,,,,,,,,,,,,,,,,,,,,,,,,,,,,,,,,,,,,,,,,,,,,,,,,,,,,,,,,,,
,,,,,5d4a14cc5407dc0001b30979,6669d216483b4754e2264ff7,6669dd6925a810de41d5ed07,24,male,English,2024-06-12_13h53.37.950,ABmemTask3,2023.2.3,Win32,74.62686567,,,,,,,,,,,,,,,,,,,,,,,,,,,,,,,,,,,,,,,,,,,,,,,,,,,,,,,,,,,,,,,,,,,,,,,,,,,,,,,,,,,,,,,,,,,,,,,,,,,,,,,,,,,88.8704,88.8704,,,,,,,,,,,,,,,,,,,,,,,,,,,,,,,,,,,,,,,,,,,,,,,,,,,,,,,,,,,,,,,,,,,,,,,,,,,,,,,,,,,,,,,,,,,,,,,
,,,,,5d4a14cc5407dc0001b30979,6669d216483b4754e2264ff7,6669dd6925a810de41d5ed07,24,male,English,2024-06-12_13h53.37.950,ABmemTask3,2023.2.3,Win32,74.62686567,,,,,,,,,,,,,,,,,,,,,,,,,,,,,,,,,,,,,,,,,,,,,,,,,,,,,,,,,,,,,,,,,,,,,,,,,,,,,,,,,,,,,,,,,,,,,,,,,,,,,,,,,,,88.8713,88.8714,,,,,,,,,,,,,,,,,,,,,,,,,,,,,,,,,,,,,,,,,,,,,,,,,,,,,,,,,,,,,,,,,,,,,,,,,,,,,,,,,,,,,,,,,,,,,,,
,,,,,5d4a14cc5407dc0001b30979,6669d216483b4754e2264ff7,6669dd6925a810de41d5ed07,24,male,English,2024-06-12_13h53.37.950,ABmemTask3,2023.2.3,Win32,74.62686567,,,,,,,,,,,,,,,,,,,,,,,,,,,,,,,,,,,,,,,,,,,,,,,,,,,,,,,,,,,,,,,,,,,,,,,,,,,,,,,,,,,,,,,,,,,,,,,,,,,,,,,,,,,88.8724,88.8724,,,,,,,,,,,,,,,,,,,,,,,,,,,,,,,,,,,,,,,,,,,,,,,,,,,,,,,,,,,,,,,,,,,,,,,,,,,,,,,,,,,,,,,,,,,,,,,
,,,,,5d4a14cc5407dc0001b30979,6669d216483b4754e2264ff7,6669dd6925a810de41d5ed07,24,male,English,2024-06-12_13h53.37.950,ABmemTask3,2023.2.3,Win32,74.62686567,,,,,,,,,,,,,,,,,,,,,,,,,,,,,,,,,,,,,,,,,,,,,,,,,,,,,,,,,,,,,,,,,,,,,,,,,,,,,,,,,,,,,,,,,,,,,,,,,,,,,,,,,,,88.8734,88.8734,,,,,,,,,,,,,,,,,,,,,,,,,,,,,,,,,,,,,,,,,,,,,,,,,,,,,,,,,,,,,,,,,,,,,,,,,,,,,,,,,,,,,,,,,,,,,,,
,,,,,5d4a14cc5407dc0001b30979,6669d216483b4754e2264ff7,6669dd6925a810de41d5ed07,24,male,English,2024-06-12_13h53.37.950,ABmemTask3,2023.2.3,Win32,74.62686567,,,,,,,,,,,,,,,,,,,,,,,,,,,,,,,,,,,,,,,,,,,,,,,,,,,,,,,,,,,,,,,,,,,,,,,,,,,,,,,,,,,,,,,,,,,,,,,,,,,,,,,,,,,88.8748,88.8749,,,,,,,,,,,,,,,,,,,,,,,,,,,,,,,,,,,,,,,,,,,,,,,,,,,,,,,,,,,,,,,,,,,,,,,,,,,,,,,,,,,,,,,,,,,,,,,
,,,,,5d4a14cc5407dc0001b30979,6669d216483b4754e2264ff7,6669dd6925a810de41d5ed07,24,male,English,2024-06-12_13h53.37.950,ABmemTask3,2023.2.3,Win32,74.62686567,,,,,,,,,,,,,,,,,,,,,,,,,,,,,,,,,,,,,,,,,,,,,,,,,,,,,,,,,,,,,,,,,,,,,,,,,,,,,,,,,,,,,,,,,,,,,,,,,,,,,,,,,,,88.8758,88.8758,,,,,,,,,,,,,,,,,,,,,,,,,,,,,,,,,,,,,,,,,,,,,,,,,,,,,,,,,,,,,,,,,,,,,,,,,,,,,,,,,,,,,,,,,,,,,,,
,,,,,5d4a14cc5407dc0001b30979,6669d216483b4754e2264ff7,6669dd6925a810de41d5ed07,24,male,English,2024-06-12_13h53.37.950,ABmemTask3,2023.2.3,Win32,74.62686567,,,,,,,,,,,,,,,,,,,,,,,,,,,,,,,,,,,,,,,,,,,,,,,,,,,,,,,,,,,,,,,,,,,,,,,,,,,,,,,,,,,,,,,,,,,,,,,,,,,,,,,,,,,88.8767,88.8767,,,,,,,,,,,,,,,,,,,,,,,,,,,,,,,,,,,,,,,,,,,,,,,,,,,,,,,,,,,,,,,,,,,,,,,,,,,,,,,,,,,,,,,,,,,,,,,
,,,,,5d4a14cc5407dc0001b30979,6669d216483b4754e2264ff7,6669dd6925a810de41d5ed07,24,male,English,2024-06-12_13h53.37.950,ABmemTask3,2023.2.3,Win32,74.62686567,,,,,,,,,,,,,,,,,,,,,,,,,,,,,,,,,,,,,,,,,,,,,,,,,,,,,,,,,,,,,,,,,,,,,,,,,,,,,,,,,,,,,,,,,,,,,,,,,,,,,,,,,,,88.8776,88.8777,,,,,,,,,,,,,,,,,,,,,,,,,,,,,,,,,,,,,,,,,,,,,,,,,,,,,,,,,,,,,,,,,,,,,,,,,,,,,,,,,,,,,,,,,,,,,,,
,,,,,5d4a14cc5407dc0001b30979,6669d216483b4754e2264ff7,6669dd6925a810de41d5ed07,24,male,English,2024-06-12_13h53.37.950,ABmemTask3,2023.2.3,Win32,74.62686567,,,,,,,,,,,,,,,,,,,,,,,,,,,,,,,,,,,,,,,,,,,,,,,,,,,,,,,,,,,,,,,,,,,,,,,,,,,,,,,,,,,,,,,,,,,,,,,,,,,,,,,,,,,88.8784,88.8786,,,,,,,,,,,,,,,,,,,,,,,,,,,,,,,,,,,,,,,,,,,,,,,,,,,,,,,,,,,,,,,,,,,,,,,,,,,,,,,,,,,,,,,,,,,,,,,
,,,,,5d4a14cc5407dc0001b30979,6669d216483b4754e2264ff7,6669dd6925a810de41d5ed07,24,male,English,2024-06-12_13h53.37.950,ABmemTask3,2023.2.3,Win32,74.62686567,,,,,,,,,,,,,,,,,,,,,,,,,,,,,,,,,,,,,,,,,,,,,,,,,,,,,,,,,,,,,,,,,,,,,,,,,,,,,,,,,,,,,,,,,,,,,,,,,,,,,,,,,,,88.8794,88.8794,,,,,,,,,,,,,,,,,,,,,,,,,,,,,,,,,,,,,,,,,,,,,,,,,,,,,,,,,,,,,,,,,,,,,,,,,,,,,,,,,,,,,,,,,,,,,,,
,,,,,5d4a14cc5407dc0001b30979,6669d216483b4754e2264ff7,6669dd6925a810de41d5ed07,24,male,English,2024-06-12_13h53.37.950,ABmemTask3,2023.2.3,Win32,74.62686567,,,,,,,,,,,,,,,,,,,,,,,,,,,,,,,,,,,,,,,,,,,,,,,,,,,,,,,,,,,,,,,,,,,,,,,,,,,,,,,,,,,,,,,,,,,,,,,,,,,,,,,,,,,,,,,,88.8795,108.3321,space,19.4307,,,,,,,,,,,,,,,,,,,,,,,,,,,,,,,,,,,,,,,,,,,,,,,,,,,,,,,,,,,,,,,,,,,,,,,,,,,,,,,,,,,,,,,,
,,,,,5d4a14cc5407dc0001b30979,6669d216483b4754e2264ff7,6669dd6925a810de41d5ed07,24,male,English,2024-06-12_13h53.37.950,ABmemTask3,2023.2.3,Win32,74.62686567,,,,,,,,,,,,,,,,,,,,,,,,,,,,,,,,,108.3382,746,108.8383,,,,,,,,,,,,,,,,,,,,,,,,,,0,,,,,,,,,prac_MEM,new,,,,,,,,,,,10,,,,,,,,,,,,,,,,,,,,,,,,,,,,,,,,,,,108.8385,113.4671,3,1,4.6125,,113.4675,114.4671,0,0,0,8,1,999,999,pics/thread02.jpg,,,,,,,,,,,,,,,,,,,,,,,,,,,,,,,,,,,,,,,,,,,,,,,,,,,,,,,,,,,,,,,,,,,,,,,
,,,,,5d4a14cc5407dc0001b30979,6669d216483b4754e2264ff7,6669dd6925a810de41d5ed07,24,male,English,2024-06-12_13h53.37.950,ABmemTask3,2023.2.3,Win32,74.62686567,,,,,,,,,,,,,,,,,,,,,,,,,,,,,,,,,114.4719,746,114.9739,,,,,,,,,,,,,,,,,,,,,,,,,,0,,,,,,,,,prac_MEM,new,,,,,,,,,,,10,,,,,,,,,,,,,,,,,,,,,,,,,,,,,,,,,,,114.9739,116.7612,6,1,1.7793,,116.7613,117.7615,0,1,1,9,1,999,999,pics/moth.jpg,,,,,,,,,,,,,,,,,,,,,,,,,,,,,,,,,,,,,,,,,,,,,,,,,,,,,,,,,,,,,,,,,,,,,,,
,,,,,5d4a14cc5407dc0001b30979,6669d216483b4754e2264ff7,6669dd6925a810de41d5ed07,24,male,English,2024-06-12_13h53.37.950,ABmemTask3,2023.2.3,Win32,74.62686567,,,,,,,,,,,,,,,,,,,,,,,,,,,,,,,,,117.7618,746,118.2551,,,,,,,,,,,,,,,,,,,,,,,,,,0,,,,,,,,,prac_MEM,old,,,,,,,,,,,10,,,,,,,,,,,,,,,,,,,,,,,,,,,,,,,,,,,118.2551,120.6293,9,6,2.3607,,120.6296,121.6295,0,2,2,4,1,5,1,pics/tongs01b.jpg,,,,,,,,,,,,,,,,,,,,,,,,,,,,,,,,,,,,,,,,,,,,,,,,,,,,,,,,,,,,,,,,,,,,,,,
,,,,,5d4a14cc5407dc0001b30979,6669d216483b4754e2264ff7,6669dd6925a810de41d5ed07,24,male,English,2024-06-12_13h53.37.950,ABmemTask3,2023.2.3,Win32,74.62686567,,,,,,,,,,,,,,,,,,,,,,,,,,,,,,,,,121.6343,746,122.1364,,,,,,,,,,,,,,,,,,,,,,,,,,0,,,,,,,,,prac_MEM,old,,,,,,,,,,,10,,,,,,,,,,,,,,,,,,,,,,,,,,,,,,,,,,,122.1364,123.9371,12,6,1.7928,,123.9372,124.9375,0,3,3,6,1,12,5,pics/humanskull.jpg,,,,,,,,,,,,,,,,,,,,,,,,,,,,,,,,,,,,,,,,,,,,,,,,,,,,,,,,,,,,,,,,,,,,,,,
,,,,,5d4a14cc5407dc0001b30979,6669d216483b4754e2264ff7,6669dd6925a810de41d5ed07,24,male,English,2024-06-12_13h53.37.950,ABmemTask3,2023.2.3,Win32,74.62686567,,,,,,,,,,,,,,,,,,,,,,,,,,,,,,,,,124.9423,746,125.4442,,,,,,,,,,,,,,,,,,,,,,,,,,0,,,,,,,,,prac_MEM,old,,,,,,,,,,,10,,,,,,,,,,,,,,,,,,,,,,,,,,,,,,,,,,,125.4443,126.658,15,6,1.2005,,126.6584,127.6584,0,4,4,1,1,2,1,pics/pants.jpg,,,,,,,,,,,,,,,,,,,,,,,,,,,,,,,,,,,,,,,,,,,,,,,,,,,,,,,,,,,,,,,,,,,,,,,
,,,,,5d4a14cc5407dc0001b30979,6669d216483b4754e2264ff7,6669dd6925a810de41d5ed07,24,male,English,2024-06-12_13h53.37.950,ABmemTask3,2023.2.3,Win32,74.62686567,,,,,,,,,,,,,,,,,,,,,,,,,,,,,,,,,127.6585,746,128.1519,,,,,,,,,,,,,,,,,,,,,,,,,,0,,,,,,,,,prac_MEM,new,,,,,,,,,,,10,,,,,,,,,,,,,,,,,,,,,,,,,,,,,,,,,,,128.152,133.3673,14,4,5.1991,,133.3677,134.3678,0,5,5,10,1,999,999,pics/tomato01.jpg,,,,,,,,,,,,,,,,,,,,,,,,,,,,,,,,,,,,,,,,,,,,,,,,,,,,,,,,,,,,,,,,,,,,,,,
,,,,,5d4a14cc5407dc0001b30979,6669d216483b4754e2264ff7,6669dd6925a810de41d5ed07,24,male,English,2024-06-12_13h53.37.950,ABmemTask3,2023.2.3,Win32,74.62686567,,,,,,,,,,,,,,,,,,,,,,,,,,,,,,,,,134.3731,746,134.8743,,,,,,,,,,,,,,,,,,,,,,,,,,0,,,,,,,,,prac_MEM,old,,,,,,,,,,,10,,,,,,,,,,,,,,,,,,,,,,,,,,,,,,,,,,,134.8743,136.6483,17,6,1.7627,,136.6486,137.6486,0,6,6,0,1,1,1,pics/tree.jpg,,,,,,,,,,,,,,,,,,,,,,,,,,,,,,,,,,,,,,,,,,,,,,,,,,,,,,,,,,,,,,,,,,,,,,,
,,,,,5d4a14cc5407dc0001b30979,6669d216483b4754e2264ff7,6669dd6925a810de41d5ed07,24,male,English,2024-06-12_13h53.37.950,ABmemTask3,2023.2.3,Win32,74.62686567,,,,,,,,,,,,,,,,,,,,,,,,,,,,,,,,,137.6488,746,138.1421,,,,,,,,,,,,,,,,,,,,,,,,,,0,,,,,,,,,prac_MEM,old,,,,,,,,,,,10,,,,,,,,,,,,,,,,,,,,,,,,,,,,,,,,,,,138.1422,139.2226,20,6,1.0703,,139.2227,140.2229,0,7,7,5,1,11,5,pics/grater01a.jpg,,,,,,,,,,,,,,,,,,,,,,,,,,,,,,,,,,,,,,,,,,,,,,,,,,,,,,,,,,,,,,,,,,,,,,,
,,,,,5d4a14cc5407dc0001b30979,6669d216483b4754e2264ff7,6669dd6925a810de41d5ed07,24,male,English,2024-06-12_13h53.37.950,ABmemTask3,2023.2.3,Win32,74.62686567,,,,,,,,,,,,,,,,,,,,,,,,,,,,,,,,,140.2231,746,140.7164,,,,,,,,,,,,,,,,,,,,,,,,,,0,,,,,,,,,prac_MEM,old,,,,,,,,,,,10,,,,,,,,,,,,,,,,,,,,,,,,,,,,,,,,,,,140.7164,141.7969,23,6,1.0734,,141.797,142.7971,0,8,8,2,1,3,1,pics/sturgeon.jpg,,,,,,,,,,,,,,,,,,,,,,,,,,,,,,,,,,,,,,,,,,,,,,,,,,,,,,,,,,,,,,,,,,,,,,,
,,,,,5d4a14cc5407dc0001b30979,6669d216483b4754e2264ff7,6669dd6925a810de41d5ed07,24,male,English,2024-06-12_13h53.37.950,ABmemTask3,2023.2.3,Win32,74.62686567,,,,,,,,,,,,,,,,,,,,,,,,,,,,,,,,,142.7973,746,143.2907,,,,,,,,,,,,,,,,,,,,,,,,,,0,,,,,,,,,prac_MEM,old,,,,,,,,,,,10,,,,,,,,,,,,,,,,,,,,,,,,,,,,,,,,,,,143.2907,144.2777,26,6,0.9783,,144.2778,145.278,0,9,9,3,1,4,1,pics/shorts01.jpg,,,,,,,,,,,,,,,,,,,,,,,,,,,,,,,,,,,,,,,,,,,,,,,,,,,,,,,,,,,,,,,,,,,,,,,
,,,,,5d4a14cc5407dc0001b30979,6669d216483b4754e2264ff7,6669dd6925a810de41d5ed07,24,male,English,2024-06-12_13h53.37.950,ABmemTask3,2023.2.3,Win32,74.62686567,,,,,,,,,,,,,,,,,,,,,,,,,,,,,,,,,145.2783,746,145.7715,,,,,,,,,,,,,,,,,,,,,,,,,,0,,,,,,,,,prac_MEM,new,,,,,,,,,,,10,,,,,,,,,,,,,,,,,,,,,,,,,,,,,,,,,,,145.7716,147.9059,29,1,2.129,,147.9062,148.906,0,10,10,7,1,999,999,pics/cherry01.jpg,,,,,,,,,,,,,,,,,,,,,,,,,,,,,,,,,,,,,,,,,,,,,,,,,,,,,,,,,,,,,,,,,,,,,,,
,,,,,5d4a14cc5407dc0001b30979,6669d216483b4754e2264ff7,6669dd6925a810de41d5ed07,24,male,English,2024-06-12_13h53.37.950,ABmemTask3,2023.2.3,Win32,74.62686567,,,,,,,,,,,,,,,,,,,,,,,,,,,,,,,,,,,,,,,,,,,,,,,,,,,,,,,,,,,,,,,,,,,,,,,,,,,,,,,,,,,,,,,,,,,,,,,,,,,,,,,,,,,,,,,,,,,,,,,,,,,,,,,,,,,,,148.9062,150.4001,150.4002,150.4004,,,,,,,,,,,,,,,,,,,,,,,,,,,,,,,,,,,,,,,,,,,,,,,,,,,,,,,,,,,,,,,,,,,
,,,,,5d4a14cc5407dc0001b30979,6669d216483b4754e2264ff7,6669dd6925a810de41d5ed07,24,male,English,2024-06-12_13h53.37.950,ABmemTask3,2023.2.3,Win32,74.62686567,,,,,,,,,,,,,,,,,,space,13.4635,,,,,,,,,,,,,,,,,,,,,,,,,,,,,,,,,,,,,,,,,,,,,,,,,,,,,,,,,,,,,,,,,,,,,,,,,,,,,,,,,,,,,,,,,,,,,,,,,,,,,,,,,,,,,,,,,,,,,,150.4005,163.8853,,,,,,,,,,,,,,,,,,,,,,,,,,,,,,,,,,,,,,,,,,,,,,,,,,,,,,,,,,,,,,,,,
,,,,,5d4a14cc5407dc0001b30979,6669d216483b4754e2264ff7,6669dd6925a810de41d5ed07,24,male,English,2024-06-12_13h53.37.950,ABmemTask3,2023.2.3,Win32,74.62686567,,,,,,,,,,,,,,,,,,,,,,,,,,,,,,,,,,,,,,,,,,,,,,,,,,,,,,,,,,,,,,,,,,,,,,,,,,,,,,,,,,,,,,,,,,,,,,,,,,,,,,,,,,,,,,,,,,,,,,,,,,,,,,,,,,,,,,,,,,,163.8854,188.7742,space,24.8663,,,,,,,,,,,,,,,,,,,,,,,,,,,,,,,,,,,,,,,,,,,,,,,,,,,,,,,,,,,,,
,,,,,5d4a14cc5407dc0001b30979,6669d216483b4754e2264ff7,6669dd6925a810de41d5ed07,24,male,English,2024-06-12_13h53.37.950,ABmemTask3,2023.2.3,Win32,74.62686567,,,,,,,,,,,,,,,,,,,,,,,,,,,,,,,188.7799,189.7739,189.7739,9,190.2678,191.8282,0.0008,191.948,0.1192,0.12,0.12,0.1201,0.1201,0.1199,0.1201,0.12,0.1201,0.12,0.1201,191.9482,192.9485,right,0.9895,,192.9485,195.0426,right,2.0804,0.0001,-2,0,2,195.0427,196.0431,,,,,,1_AB,L5_T1P_T2A,5,1,0,4,9,3,5,14,Frisbee,Did you see the Frisbee,0.12,0,resources/,pics/giraffe.jpg,pics/christmaslights.jpg,pics/bowtie.jpg,pics/frisbee.jpg,pics/banjo.jpg,pics/calendar.jpg,pics/butterfly.jpg,pics/onion.jpg,pics/starfish01.jpg,pics/footballhelmet.jpg,pics/blender.jpg,pics/candleholder01.jpg,pics/hairdryer02a.jpg,pics/dromedary.jpg,blankImage,blankImage,blankImage,frisbee,58,0.1199,0.1201,,,,,,,,,,,,,,,,,,,,,,,,,,,,,,,,,,,,,,,0,0,0,57,1,,,,,,,,,,,,,,,,,,,,,,,,,,,,,,,,,,,,,,,,,,,,,,,,,,,,,,,
,,,,,5d4a14cc5407dc0001b30979,6669d216483b4754e2264ff7,6669dd6925a810de41d5ed07,24,male,English,2024-06-12_13h53.37.950,ABmemTask3,2023.2.3,Win32,74.62686567,,,,,,,,,,,,,,,,,,,,,,,,,,,,,,,196.0495,197.0433,197.0433,9,197.537,199.0974,0.0007,199.2173,0.1193,0.1201,0.12,0.12,0.12,0.12,0.12,0.12,0.1202,0.1199,0.1201,199.2173,200.3378,left,1.1127,,200.3379,200.8713,right,0.5244,,0,0,4,200.8713,201.8716,,,,,,1_AB,L5_T1A_T2P,5,0,1,4,9,3,5,14,lemon,Did you see the lemon,0.12,0,resources/,pics/seaturtle.jpg,pics/lightswitch01.jpg,pics/candle01.jpg,pics/cannon.jpg,pics/seagull.jpg,pics/spoon01.jpg,pics/spiderweb.jpg,pics/sewingmachine01a.jpg,pics/stapler05.jpg,pics/binoculars01b.jpg,pics/zebra.jpg,pics/sealion.jpg,pics/shovel01.jpg,pics/wheel01.jpg,blankImage,blankImage,blankImage,lemon02,56,0.1201,0.1199,,,,,,,,,,,,,,,,,,,,,,,,,,,,,,,,,,,,,,,0,1,1,55,1,,,,,,,,,,,,,,,,,,,,,,,,,,,,,,,,,,,,,,,,,,,,,,,,,,,,,,,
,,,,,5d4a14cc5407dc0001b30979,6669d216483b4754e2264ff7,6669dd6925a810de41d5ed07,24,male,English,2024-06-12_13h53.37.950,ABmemTask3,2023.2.3,Win32,74.62686567,,,,,,,,,,,,,,,,,,,,,,,,,,,,,,,201.8719,202.8721,202.8721,9,203.3655,204.5659,0.0004,204.6859,0.1199,0.1199,0.1202,0.1199,0.1201,0.12,0.1201,0.12,0.1201,0.1199,,204.6859,205.7664,right,1.0651,,205.7664,206.0865,left,0.3141,,2,0,6,206.0865,207.0868,,,,,,1_AB,L1_T1P_T2A,1,1,0,7,8,6,3,11,Spear,Did you see the Spear,0.12,0,resources/,pics/butterfly.jpg,pics/banjo.jpg,pics/chainsaw.jpg,pics/christmaslights.jpg,pics/dustpan.jpg,pics/shovel01.jpg,pics/spear02.jpg,pics/table01.jpg,pics/starfish01.jpg,pics/bowlingpin.jpg,pics/carrot01.jpg,blankImage,blankImage,blankImage,blankImage,blankImage,blankImage,spear02,39,,,,,,,,,,,,,,,,,,,,,,,,,,,,,,,,,,,,,,,,,0,2,2,38,1,,,,,,,,,,,,,,,,,,,,,,,,,,,,,,,,,,,,,,,,,,,,,,,,,,,,,,,
,,,,,5d4a14cc5407dc0001b30979,6669d216483b4754e2264ff7,6669dd6925a810de41d5ed07,24,male,English,2024-06-12_13h53.37.950,ABmemTask3,2023.2.3,Win32,74.62686567,,,,,,,,,,,,,,,,,,,,,,,,,,,,,,,207.087,208.0872,208.0872,9,208.5806,209.5411,0.0005,209.661,0.1198,0.1202,0.1199,0.12,0.1201,0.1201,0.12,0.12,,,,209.6611,210.7949,left,1.123,,210.795,211.0617,right,0.2544,,4,0,8,211.0617,212.0619,,,,,,1_AB,L1_T1A_T2P,1,0,1,5,6,4,3,9,Trailer,Did you see the Trailer,0.12,0,resources/,pics/pencil01.jpg,pics/football.jpg,pics/hairdryer02a.jpg,pics/wheel01.jpg,pics/chainsaw.jpg,pics/stapler10.jpg,pics/peanut01.jpg,pics/triangle.jpg,pics/sink.jpg,blankImage,blankImage,blankImage,blankImage,blankImage,blankImage,blankImage,blankImage,boxtrailer,29,,,,,,,,,,,,,,,,,,,,,,,,,,,,,,,,,,,,,,,,,0,3,3,28,1,,,,,,,,,,,,,,,,,,,,,,,,,,,,,,,,,,,,,,,,,,,,,,,,,,,,,,,
,,,,,5d4a14cc5407dc0001b30979,6669d216483b4754e2264ff7,6669dd6925a810de41d5ed07,24,male,English,2024-06-12_13h53.37.950,ABmemTask3,2023.2.3,Win32,74.62686567,,,,,,,,,,,,,,,,,,,,,,,,,,,,,,,212.0669,213.0622,213.0622,9,213.5557,214.5162,0.0005,214.6361,0.1198,0.1201,0.1201,0.12,0.12,0.1201,0.12,0.12,,,,214.6362,215.6365,right,0.9908,,215.6366,215.9167,left,0.2764,,4,0,10,215.9168,216.917,,,,,,1_AB,L1_T1P_T2P,1,1,1,4,5,3,4,9,antenna,Did you see the antenna,0.12,0,resources/,pics/microscope.jpg,pics/spoon01.jpg,pics/dromedary.jpg,pics/antenna.jpg,pics/stapler03.jpg,pics/hen.jpg,pics/leaf02a.jpg,pics/candle01.jpg,pics/sealion.jpg,blankImage,blankImage,blankImage,blankImage,blankImage,blankImage,blankImage,blankImage,antenna,9,,,,,,,,,,,,,,,,,,,,,,,,,,,,,,,,,,,,,,,,,0,4,4,8,1,,,,,,,,,,,,,,,,,,,,,,,,,,,,,,,,,,,,,,,,,,,,,,,,,,,,,,,
,,,,,5d4a14cc5407dc0001b30979,6669d216483b4754e2264ff7,6669dd6925a810de41d5ed07,24,male,English,2024-06-12_13h53.37.950,ABmemTask3,2023.2.3,Win32,74.62686567,,,,,,,,,,,,,,,,,,,,,,,,,,,,,,,216.9172,217.9173,217.9173,9,218.4108,219.4913,0.0004,219.6113,0.1199,0.1201,0.12,0.12,0.12,0.1201,0.1201,0.1199,0.1201,,,219.6113,220.5317,right,0.9092,,220.5317,220.7451,right,0.2101,,6,0,12,220.7452,221.7453,,,,,,1_AB,L1_T1P_T2P,1,1,1,5,6,4,4,10,thermometer,Did you see the thermometer,0.12,0,resources/,pics/triangle.jpg,pics/shovel01.jpg,pics/mummy.jpg,pics/noparkingsign.jpg,pics/thermometer02b.jpg,pics/stapler04.jpg,pics/piggybank.jpg,pics/golfball.jpg,pics/laptop01a.jpg,pics/aquarium.jpg,blankImage,blankImage,blankImage,blankImage,blankImage,blankImage,blankImage,thermometer02b,8,,,,,,,,,,,,,,,,,,,,,,,,,,,,,,,,,,,,,,,,,0,5,5,7,1,,,,,,,,,,,,,,,,,,,,,,,,,,,,,,,,,,,,,,,,,,,,,,,,,,,,,,,
,,,,,5d4a14cc5407dc0001b30979,6669d216483b4754e2264ff7,6669dd6925a810de41d5ed07,24,male,English,2024-06-12_13h53.37.950,ABmemTask3,2023.2.3,Win32,74.62686567,,,,,,,,,,,,,,,,,,,,,,,,,,,,,,,221.7457,222.7457,222.7457,9,223.2392,224.4398,0.0004,224.5597,0.1199,0.1201,0.1199,0.1201,0.1201,0.12,0.12,0.12,0.12,0.1201,,224.5598,225.6935,right,1.1206,,225.6935,229.0948,right,3.389,,8,0,14,229.0948,230.0951,,,,,,1_AB,L1_T1P_T2P,1,1,1,7,8,6,3,11,Eiffel tower,Did you see the Eiffel tower,0.12,0,resources/,pics/seagull.jpg,pics/cymbal.jpg,pics/match.jpg,pics/binoculars01b.jpg,pics/ball02.jpg,pics/onion.jpg,pics/eiffeltower.jpg,pics/stapler11.jpg,pics/peach01.jpg,pics/sandbarshark.jpg,pics/boot02b.jpg,blankImage,blankImage,blankImage,blankImage,blankImage,blankImage,eiffeltower,1,,,,,,,,,,,,,,,,,,,,,,,,,,,,,,,,,,,,,,,,,0,6,6,0,1,,,,,,,,,,,,,,,,,,,,,,,,,,,,,,,,,,,,,,,,,,,,,,,,,,,,,,,
,,,,,5d4a14cc5407dc0001b30979,6669d216483b4754e2264ff7,6669dd6925a810de41d5ed07,24,male,English,2024-06-12_13h53.37.950,ABmemTask3,2023.2.3,Win32,74.62686567,,,,,,,,,,,,,,,,,,,,,,,,,,,,,,,230.0998,231.0954,231.0955,9,231.5889,233.2697,0.0005,233.3896,0.1198,0.12,0.12,0.1201,0.12,0.12,0.1201,0.12,0.1203,0.1198,0.1201,233.3896,233.8831,right,0.4842,,233.8832,234.1232,right,0.2361,,10,0,16,234.1232,235.1235,,,,,,1_AB,L5_T1P_T2P,5,1,1,6,11,5,4,15,toast,Did you see the toast,0.12,0,resources/,pics/piggybank.jpg,pics/leaf02a.jpg,pics/carrot01.jpg,pics/birdhouse.jpg,pics/bowlingpin.jpg,pics/toast.jpg,pics/spiderweb.jpg,pics/cork02.jpg,pics/sink.jpg,pics/nutcracker01.jpg,pics/stapler02.jpg,pics/ashtray01.jpg,pics/fanblades.jpg,pics/pencil01.jpg,pics/lightswitch01.jpg,blankImage,blankImage,toast,46,0.12,0.12,0.1202,,,,,,,,,,,,,,,,,,,,,,,,,,,,,,,,,,,,,,0,7,7,45,1,,,,,,,,,,,,,,,,,,,,,,,,,,,,,,,,,,,,,,,,,,,,,,,,,,,,,,,
,,,,,5d4a14cc5407dc0001b30979,6669d216483b4754e2264ff7,6669dd6925a810de41d5ed07,24,male,English,2024-06-12_13h53.37.950,ABmemTask3,2023.2.3,Win32,74.62686567,,,,,,,,,,,,,,,,,,,,,,,,,,,,,,,235.1238,236.1239,236.1239,9,236.6173,237.5778,0.0004,237.6977,0.1199,0.1201,0.12,0.1201,0.12,0.12,0.1202,0.1199,,,,237.6977,238.4448,right,0.7313,,238.4448,238.7382,left,0.2795,,10,0,18,238.7382,239.7385,,,,,,1_AB,L1_T1P_T2P,1,1,1,5,6,4,3,9,cabbage,Did you see the cabbage,0.12,0,resources/,pics/match.jpg,pics/icecube01.jpg,pics/noparkingsign.jpg,pics/christmaslights.jpg,pics/cabbage.jpg,pics/stapler03a.jpg,pics/carrot01.jpg,pics/dustpan.jpg,pics/cannon.jpg,blankImage,blankImage,blankImage,blankImage,blankImage,blankImage,blankImage,blankImage,cabbage,14,,,,,,,,,,,,,,,,,,,,,,,,,,,,,,,,,,,,,,,,,0,8,8,13,1,,,,,,,,,,,,,,,,,,,,,,,,,,,,,,,,,,,,,,,,,,,,,,,,,,,,,,,
,,,,,5d4a14cc5407dc0001b30979,6669d216483b4754e2264ff7,6669dd6925a810de41d5ed07,24,male,English,2024-06-12_13h53.37.950,ABmemTask3,2023.2.3,Win32,74.62686567,,,,,,,,,,,,,,,,,,,,,,,,,,,,,,,239.7388,240.7393,240.7393,9,241.2323,242.1929,0.0004,242.3129,0.1199,0.1201,0.12,0.1201,0.1199,0.1201,0.1201,0.12,,,,242.313,243.2198,left,0.8982,,243.2199,244.2202,left,0.9972,,12,0,20,244.2202,245.2204,,,,,,1_AB,L1_T1A_T2A,1,0,0,4,5,3,4,9,License Plate,Did you see the License Plate,0.12,0,resources/,pics/snowshoe.jpg,pics/kangaroo.jpg,pics/noparkingsign.jpg,pics/match.jpg,pics/hose.jpg,pics/blender.jpg,pics/ashtray01.jpg,pics/ball02.jpg,pics/sink.jpg,blankImage,blankImage,blankImage,blankImage,blankImage,blankImage,blankImage,blankImage,licenseplate,40,,,,,,,,,,,,,,,,,,,,,,,,,,,,,,,,,,,,,,,,,0,9,9,39,1,,,,,,,,,,,,,,,,,,,,,,,,,,,,,,,,,,,,,,,,,,,,,,,,,,,,,,,
,,,,,5d4a14cc5407dc0001b30979,6669d216483b4754e2264ff7,6669dd6925a810de41d5ed07,24,male,English,2024-06-12_13h53.37.950,ABmemTask3,2023.2.3,Win32,74.62686567,,,,,,,,,,,,,,,,,,,,,,,,,,,,,,,245.2207,246.2208,246.2208,9,246.7142,247.7948,0.0005,247.9147,0.1199,0.12,0.12,0.1201,0.12,0.12,0.1202,0.12,0.1199,,,247.9147,248.8085,left,0.8807,,248.8085,249.2086,left,0.3873,,12,0,22,249.2086,250.2089,,,,,,1_AB,L1_T1A_T2P,1,0,1,5,6,4,4,10,Rabbit,Did you see the Rabbit,0.12,0,resources/,pics/cannon.jpg,pics/proboscismonkey.jpg,pics/salmon.jpg,pics/nutcracker01.jpg,pics/seagull.jpg,pics/stapler02.jpg,pics/table01.jpg,pics/laptop01a.jpg,pics/necklace.jpg,pics/pencilsharpener02a.jpg,blankImage,blankImage,blankImage,blankImage,blankImage,blankImage,blankImage,jackrabbit,31,,,,,,,,,,,,,,,,,,,,,,,,,,,,,,,,,,,,,,,,,0,10,10,30,1,,,,,,,,,,,,,,,,,,,,,,,,,,,,,,,,,,,,,,,,,,,,,,,,,,,,,,,
,,,,,5d4a14cc5407dc0001b30979,6669d216483b4754e2264ff7,6669dd6925a810de41d5ed07,24,male,English,2024-06-12_13h53.37.950,ABmemTask3,2023.2.3,Win32,74.62686567,,,,,,,,,,,,,,,,,,,,,,,,,,,,,,,250.2138,251.2092,251.2092,9,251.7028,253.1434,0.0004,253.2633,0.1198,0.1201,0.1199,0.1201,0.12,0.1201,0.12,0.1201,0.12,0.1201,0.12,253.2633,253.8236,right,0.5489,,253.8237,254.9573,right,1.1289,,14,0,24,254.9573,255.9576,,,,,,1_AB,L1_T1P_T2P,1,1,1,7,8,6,5,13,strawberry,Did you see the strawberry,0.12,0,resources/,pics/sealion.jpg,pics/backpack01a.jpg,pics/binoculars01b.jpg,pics/ball02.jpg,pics/proboscismonkey.jpg,pics/pictureframe04.jpg,pics/strawberry.jpg,pics/stapler12.jpg,pics/seaturtle.jpg,pics/dustpan.jpg,pics/bowlingpin.jpg,pics/hammerheadshark.jpg,pics/hen.jpg,blankImage,blankImage,blankImage,blankImage,strawberry,10,0.1201,,,,,,,,,,,,,,,,,,,,,,,,,,,,,,,,,,,,,,,,0,11,11,9,1,,,,,,,,,,,,,,,,,,,,,,,,,,,,,,,,,,,,,,,,,,,,,,,,,,,,,,,
,,,,,5d4a14cc5407dc0001b30979,6669d216483b4754e2264ff7,6669dd6925a810de41d5ed07,24,male,English,2024-06-12_13h53.37.950,ABmemTask3,2023.2.3,Win32,74.62686567,,,,,,,,,,,,,,,,,,,,,,,,,,,,,,,255.9625,256.9579,256.9579,9,257.4514,258.7721,0.0005,258.892,0.1197,0.1202,0.12,0.12,0.1201,0.12,0.12,0.1202,0.12,0.12,0.1201,258.892,260.0658,right,1.1581,,260.0658,260.2659,right,0.1873,,16,0,26,260.266,261.2661,,,,,,1_AB,L1_T1P_T2P,1,1,1,7,8,6,4,12,hammer,Did you see the hammer,0.12,0,resources/,pics/microscope.jpg,pics/blender.jpg,pics/dustpan.jpg,pics/snowshoe.jpg,pics/mummy.jpg,pics/bowtie.jpg,pics/hammer01.jpg,pics/stapler04b.jpg,pics/seaturtle.jpg,pics/candle01.jpg,pics/necklace.jpg,pics/cannon.jpg,blankImage,blankImage,blankImage,blankImage,blankImage,hammer01,21,,,,,,,,,,,,,,,,,,,,,,,,,,,,,,,,,,,,,,,,,0,12,12,20,1,,,,,,,,,,,,,,,,,,,,,,,,,,,,,,,,,,,,,,,,,,,,,,,,,,,,,,,
,,,,,5d4a14cc5407dc0001b30979,6669d216483b4754e2264ff7,6669dd6925a810de41d5ed07,24,male,English,2024-06-12_13h53.37.950,ABmemTask3,2023.2.3,Win32,74.62686567,,,,,,,,,,,,,,,,,,,,,,,,,,,,,,,261.2664,262.2665,262.2665,9,262.7601,264.3207,0.0004,264.4406,0.1198,0.1201,0.12,0.1201,0.1199,0.1201,0.1201,0.12,0.12,0.12,0.1201,264.4407,265.0008,right,0.5446,,265.0009,265.1876,right,0.1784,,18,0,28,265.1877,266.1879,,,,,,1_AB,L5_T1P_T2P,5,1,1,4,9,3,5,14,pliers,Did you see the pliers,0.12,0,resources/,pics/calendar.jpg,pics/footballhelmet.jpg,pics/seaturtle.jpg,pics/pliers02b.jpg,pics/wheel01.jpg,pics/cannon.jpg,pics/proboscismonkey.jpg,pics/shovel01.jpg,pics/stapler06.jpg,pics/football.jpg,pics/hose.jpg,pics/dustpan.jpg,pics/spiderweb.jpg,pics/golfball.jpg,blankImage,blankImage,blankImage,pliers02b,48,0.12,0.1201,,,,,,,,,,,,,,,,,,,,,,,,,,,,,,,,,,,,,,,0,13,13,47,1,,,,,,,,,,,,,,,,,,,,,,,,,,,,,,,,,,,,,,,,,,,,,,,,,,,,,,,
,,,,,5d4a14cc5407dc0001b30979,6669d216483b4754e2264ff7,6669dd6925a810de41d5ed07,24,male,English,2024-06-12_13h53.37.950,ABmemTask3,2023.2.3,Win32,74.62686567,,,,,,,,,,,,,,,,,,,,,,,,,,,,,,,266.1882,267.1882,267.1882,9,267.6818,269.2425,0.0004,269.3624,0.1198,0.1201,0.12,0.1201,0.12,0.1201,0.12,0.1201,0.1201,0.1199,0.1201,269.3624,269.9761,right,0.5982,,269.9761,270.2961,left,0.316,,18,0,30,270.2961,271.2963,,,,,,1_AB,L5_T1P_T2P,5,1,1,4,9,3,5,14,asparagus,Did you see the asparagus,0.12,0,resources/,pics/siamesecat.jpg,pics/starfish01.jpg,pics/aquarium.jpg,pics/asparagus.jpg,pics/salmon.jpg,pics/binoculars01b.jpg,pics/ball02.jpg,pics/calendar.jpg,pics/stapler10.jpg,pics/giraffe.jpg,pics/dromedary.jpg,pics/seaturtle.jpg,pics/sandbarshark.jpg,pics/shipinabottle.jpg,blankImage,blankImage,blankImage,asparagus,44,0.12,0.12,,,,,,,,,,,,,,,,,,,,,,,,,,,,,,,,,,,,,,,0,14,14,43,1,,,,,,,,,,,,,,,,,,,,,,,,,,,,,,,,,,,,,,,,,,,,,,,,,,,,,,,
,,,,,5d4a14cc5407dc0001b30979,6669d216483b4754e2264ff7,6669dd6925a810de41d5ed07,24,male,English,2024-06-12_13h53.37.950,ABmemTask3,2023.2.3,Win32,74.62686567,,,,,,,,,,,,,,,,,,,,,,,,,,,,,,,271.2967,272.2967,272.2968,9,272.7902,273.7507,0.0005,273.8706,0.1198,0.1201,0.12,0.1201,0.1201,0.12,0.12,0.12,,,,273.8706,274.8845,right,0.9985,,274.8845,275.1112,left,0.2153,,18,0,32,275.1112,276.1114,,,,,,1_AB,L1_T1P_T2P,1,1,1,5,6,4,3,9,Ant,Did you see the Ant,0.12,0,resources/,pics/kangaroo.jpg,pics/giraffe.jpg,pics/footballhelmet.jpg,pics/onion.jpg,pics/ant.jpg,pics/stapler04b.jpg,pics/banjo.jpg,pics/zebra.jpg,pics/dromedary.jpg,blankImage,blankImage,blankImage,blankImage,blankImage,blankImage,blankImage,blankImage,ant,15,,,,,,,,,,,,,,,,,,,,,,,,,,,,,,,,,,,,,,,,,0,15,15,14,1,,,,,,,,,,,,,,,,,,,,,,,,,,,,,,,,,,,,,,,,,,,,,,,,,,,,,,,
,,,,,5d4a14cc5407dc0001b30979,6669d216483b4754e2264ff7,6669dd6925a810de41d5ed07,24,male,English,2024-06-12_13h53.37.950,ABmemTask3,2023.2.3,Win32,74.62686567,,,,,,,,,,,,,,,,,,,,,,,,,,,,,,,276.1163,277.1118,277.1118,9,277.6053,278.6858,0.0004,278.8057,0.1199,0.12,0.12,0.1201,0.1201,0.1201,0.12,0.12,0.12,,,278.8058,280.1265,right,1.3156,,280.1265,280.4731,right,0.3361,,20,0,34,280.4731,281.4733,,,,,,1_AB,L1_T1P_T2P,1,1,1,4,5,3,5,10,flute,Did you see the flute,0.12,0,resources/,pics/peach01.jpg,pics/seaturtle.jpg,pics/dromedary.jpg,pics/recorder01.jpg,pics/stapler08.jpg,pics/giraffe.jpg,pics/blender.jpg,pics/necklace.jpg,pics/sink.jpg,pics/dustpan.jpg,blankImage,blankImage,blankImage,blankImage,blankImage,blankImage,blankImage,recorder01,7,,,,,,,,,,,,,,,,,,,,,,,,,,,,,,,,,,,,,,,,,0,16,16,6,1,,,,,,,,,,,,,,,,,,,,,,,,,,,,,,,,,,,,,,,,,,,,,,,,,,,,,,,
,,,,,5d4a14cc5407dc0001b30979,6669d216483b4754e2264ff7,6669dd6925a810de41d5ed07,24,male,English,2024-06-12_13h53.37.950,ABmemTask3,2023.2.3,Win32,74.62686567,,,,,,,,,,,,,,,,,,,,,,,,,,,,,,,281.4736,282.4737,282.4738,9,282.9672,284.1678,0.0005,284.2876,0.1198,0.1201,0.12,0.1201,0.12,0.12,0.1201,0.12,0.1201,0.12,,284.2878,284.9949,right,0.6959,,284.995,285.595,left,0.5962,,22,0,36,285.5951,286.5952,,,,,,1_AB,L1_T1P_T2A,1,1,0,7,8,6,3,11,garlic,Did you see the garlic,0.12,0,resources/,pics/zebra.jpg,pics/banjo.jpg,pics/pencilsharpener02a.jpg,pics/football.jpg,pics/candle01.jpg,pics/footballhelmet.jpg,pics/garlic01a.jpg,pics/birdhouse.jpg,pics/peach01.jpg,pics/pictureframe04.jpg,pics/binder03b.jpg,blankImage,blankImage,blankImage,blankImage,blankImage,blankImage,garlic01a,33,,,,,,,,,,,,,,,,,,,,,,,,,,,,,,,,,,,,,,,,,0,17,17,32,1,,,,,,,,,,,,,,,,,,,,,,,,,,,,,,,,,,,,,,,,,,,,,,,,,,,,,,,
,,,,,5d4a14cc5407dc0001b30979,6669d216483b4754e2264ff7,6669dd6925a810de41d5ed07,24,male,English,2024-06-12_13h53.37.950,ABmemTask3,2023.2.3,Win32,74.62686567,,,,,,,,,,,,,,,,,,,,,,,,,,,,,,,286.5954,287.5955,287.5955,9,288.089,289.0496,0.0005,289.1694,0.1198,0.1201,0.12,0.1201,0.12,0.1202,0.1199,0.1201,,,,289.1694,289.8366,right,0.6529,,289.8367,290.0766,right,0.228,,24,0,38,290.0766,291.0768,,,,,,1_AB,L1_T1P_T2P,1,1,1,5,6,4,3,9,paint brush,Did you see the paint brush,0.12,0,resources/,pics/nutcracker01.jpg,pics/piggybank.jpg,pics/spiderweb.jpg,pics/table01.jpg,pics/paintbrush01.jpg,pics/stapler09.jpg,pics/hose.jpg,pics/cannon.jpg,pics/mummy.jpg,blankImage,blankImage,blankImage,blankImage,blankImage,blankImage,blankImage,blankImage,paintbrush01,20,,,,,,,,,,,,,,,,,,,,,,,,,,,,,,,,,,,,,,,,,0,18,18,19,1,,,,,,,,,,,,,,,,,,,,,,,,,,,,,,,,,,,,,,,,,,,,,,,,,,,,,,,
,,,,,5d4a14cc5407dc0001b30979,6669d216483b4754e2264ff7,6669dd6925a810de41d5ed07,24,male,English,2024-06-12_13h53.37.950,ABmemTask3,2023.2.3,Win32,74.62686567,,,,,,,,,,,,,,,,,,,,,,,,,,,,,,,291.077,292.0772,292.0772,9,292.5707,294.2515,0.0004,294.3713,0.1198,0.1201,0.12,0.1201,0.1199,0.1201,0.12,0.1201,0.1199,0.1201,0.1201,294.3713,295.5185,right,1.135,,295.5185,295.7186,right,0.1922,,22,0,40,295.7186,296.7188,,,,,,1_AB,L5_T1A_T2P,5,0,1,5,10,4,5,15,scorpion,Did you see the scorpion,0.12,0,resources/,pics/pictureframe04.jpg,pics/binder03b.jpg,pics/pencil01.jpg,pics/leaf02a.jpg,pics/icecube01.jpg,pics/dromedary.jpg,pics/toiletpaper01a.jpg,pics/peanut01.jpg,pics/golfball.jpg,pics/stapler03.jpg,pics/carrot01.jpg,pics/peach01.jpg,pics/sealion.jpg,pics/football.jpg,pics/zebra.jpg,blankImage,blankImage,scorpion,54,0.12,0.1201,0.12,,,,,,,,,,,,,,,,,,,,,,,,,,,,,,,,,,,,,,0,19,19,53,1,,,,,,,,,,,,,,,,,,,,,,,,,,,,,,,,,,,,,,,,,,,,,,,,,,,,,,,
,,,,,5d4a14cc5407dc0001b30979,6669d216483b4754e2264ff7,6669dd6925a810de41d5ed07,24,male,English,2024-06-12_13h53.37.950,ABmemTask3,2023.2.3,Win32,74.62686567,,,,,,,,,,,,,,,,,,,,,,,,,,,,,,,296.719,297.7193,297.7193,9,298.2128,299.7734,0.0003,299.8933,0.1199,0.1201,0.1199,0.1201,0.12,0.1201,0.12,0.1204,0.1201,0.1197,0.1199,299.8933,300.3868,right,0.4883,,300.3868,300.6269,right,0.2377,,24,0,42,300.627,301.6272,,,,,,1_AB,L5_T1P_T2P,5,1,1,6,11,5,3,14,mail box,Did you see the mail box,0.12,0,resources/,pics/pictureframe04.jpg,pics/seaturtle.jpg,pics/blender.jpg,pics/carrot01.jpg,pics/nutcracker01.jpg,pics/mailbox02.jpg,pics/seagull.jpg,pics/sink.jpg,pics/siamesecat.jpg,pics/spiderweb.jpg,pics/stapler08.jpg,pics/safetypin.jpg,pics/candle01.jpg,pics/mummy.jpg,blankImage,blankImage,blankImage,mailbox02,43,0.1202,0.12,,,,,,,,,,,,,,,,,,,,,,,,,,,,,,,,,,,,,,,0,20,20,42,1,,,,,,,,,,,,,,,,,,,,,,,,,,,,,,,,,,,,,,,,,,,,,,,,,,,,,,,
,,,,,5d4a14cc5407dc0001b30979,6669d216483b4754e2264ff7,6669dd6925a810de41d5ed07,24,male,English,2024-06-12_13h53.37.950,ABmemTask3,2023.2.3,Win32,74.62686567,,,,,,,,,,,,,,,,,,,,,,,,,,,,,,,301.6275,302.6276,302.6276,9,303.1211,304.0816,0.0006,304.2015,0.1197,0.12,0.1201,0.12,0.1201,0.1201,0.1199,0.1201,,,,304.2015,305.0686,left,0.853,,305.0686,305.2953,right,0.2196,,24,0,44,305.2953,306.2956,,,,,,1_AB,L1_T1P_T2P,1,1,1,4,5,3,4,9,Chefs hat,Did you see the Chefs hat,0.12,0,resources/,pics/sewingmachine01a.jpg,pics/icecube01.jpg,pics/fanblades.jpg,pics/chefshat.jpg,pics/stapler06.jpg,pics/ashtray01.jpg,pics/blender.jpg,pics/sandbarshark.jpg,pics/lock03a.jpg,blankImage,blankImage,blankImage,blankImage,blankImage,blankImage,blankImage,blankImage,chefshat,12,,,,,,,,,,,,,,,,,,,,,,,,,,,,,,,,,,,,,,,,,0,21,21,11,1,,,,,,,,,,,,,,,,,,,,,,,,,,,,,,,,,,,,,,,,,,,,,,,,,,,,,,,
,,,,,5d4a14cc5407dc0001b30979,6669d216483b4754e2264ff7,6669dd6925a810de41d5ed07,24,male,English,2024-06-12_13h53.37.950,ABmemTask3,2023.2.3,Win32,74.62686567,,,,,,,,,,,,,,,,,,,,,,,,,,,,,,,306.2959,307.2959,307.296,9,307.7894,309.1101,0.0004,309.2301,0.1199,0.1201,0.12,0.12,0.12,0.1201,0.12,0.1201,0.12,0.1202,0.12,309.2302,310.1637,left,0.9281,,310.1637,310.4038,right,0.2353,,26,0,46,310.4038,311.404,,,,,,1_AB,L5_T1A_T2P,5,0,1,4,9,3,3,12,rooster,Did you see the rooster,0.12,0,resources/,pics/table01.jpg,pics/icecube01.jpg,pics/dustpan.jpg,pics/lock03a.jpg,pics/sailboat.jpg,pics/salmon.jpg,pics/banjo.jpg,pics/zebra.jpg,pics/stapler09.jpg,pics/peach01.jpg,pics/chainsaw.jpg,pics/football.jpg,blankImage,blankImage,blankImage,blankImage,blankImage,rooster,55,,,,,,,,,,,,,,,,,,,,,,,,,,,,,,,,,,,,,,,,,0,22,22,54,1,,,,,,,,,,,,,,,,,,,,,,,,,,,,,,,,,,,,,,,,,,,,,,,,,,,,,,,
,,,,,5d4a14cc5407dc0001b30979,6669d216483b4754e2264ff7,6669dd6925a810de41d5ed07,24,male,English,2024-06-12_13h53.37.950,ABmemTask3,2023.2.3,Win32,74.62686567,,,,,,,,,,,,,,,,,,,,,,,,,,,,,,,311.4043,312.4045,312.4045,9,312.8979,313.9785,0.0004,314.0983,0.1199,0.12,0.1201,0.1201,0.12,0.12,0.1201,0.12,0.12,,,314.0983,315.0855,right,0.9817,,315.0855,315.2455,left,0.1534,,28,0,48,315.2456,316.2457,,,,,,1_AB,L1_T1P_T2A,1,1,0,6,7,5,3,10,Duct tape,Did you see the Duct tape,0.12,0,resources/,pics/butterfly.jpg,pics/noparkingsign.jpg,pics/pictureframe04.jpg,pics/cork02.jpg,pics/fanblades.jpg,pics/ducttape.jpg,pics/icecube01.jpg,pics/siamesecat.jpg,pics/sink.jpg,pics/sandbarshark.jpg,blankImage,blankImage,blankImage,blankImage,blankImage,blankImage,blankImage,ducttape,36,,,,,,,,,,,,,,,,,,,,,,,,,,,,,,,,,,,,,,,,,0,23,23,35,1,,,,,,,,,,,,,,,,,,,,,,,,,,,,,,,,,,,,,,,,,,,,,,,,,,,,,,,
,,,,,5d4a14cc5407dc0001b30979,6669d216483b4754e2264ff7,6669dd6925a810de41d5ed07,24,male,English,2024-06-12_13h53.37.950,ABmemTask3,2023.2.3,Win32,74.62686567,,,,,,,,,,,,,,,,,,,,,,,,,,,,,,,316.2461,317.2461,317.2462,9,317.7397,318.9402,0.0004,319.0601,0.1198,0.1199,0.1202,0.12,0.12,0.12,0.1201,0.1201,0.12,0.12,,319.0602,320.0739,right,1.004,,320.074,320.2206,left,0.1389,,28,0,50,320.2206,321.221,,,,,,1_AB,L1_T1P_T2P,1,1,1,7,8,6,3,11,pliers,Did you see the pliers,0.12,0,resources/,pics/mummy.jpg,pics/binder03b.jpg,pics/bowtie.jpg,pics/toiletpaper01a.jpg,pics/football.jpg,pics/blender.jpg,pics/needlenosepliers01.jpg,pics/stapler13.jpg,pics/zebra.jpg,pics/hammerheadshark.jpg,pics/sealion.jpg,blankImage,blankImage,blankImage,blankImage,blankImage,blankImage,needlenosepliers01,6,,,,,,,,,,,,,,,,,,,,,,,,,,,,,,,,,,,,,,,,,0,24,24,5,1,,,,,,,,,,,,,,,,,,,,,,,,,,,,,,,,,,,,,,,,,,,,,,,,,,,,,,,
,,,,,5d4a14cc5407dc0001b30979,6669d216483b4754e2264ff7,6669dd6925a810de41d5ed07,24,male,English,2024-06-12_13h53.37.950,ABmemTask3,2023.2.3,Win32,74.62686567,,,,,,,,,,,,,,,,,,,,,,,,,,,,,,,321.2213,322.2213,322.2213,9,322.7148,324.0354,0.0005,324.1553,0.1198,0.1199,0.1201,0.12,0.1201,0.1202,0.12,0.12,0.1201,0.1199,0.12,324.1553,325.2891,right,1.1294,,325.2892,325.5694,left,0.2795,,28,0,52,325.5695,326.5695,,,,,,1_AB,L1_T1P_T2P,1,1,1,6,7,5,5,12,rope,Did you see the rope,0.12,0,resources/,pics/toiletpaper01a.jpg,pics/sewingmachine01a.jpg,pics/birdhouse.jpg,pics/sealion.jpg,pics/safetypin.jpg,pics/rope03.jpg,pics/stapler04.jpg,pics/binder03b.jpg,pics/ashtray01.jpg,pics/sandbarshark.jpg,pics/chainsaw.jpg,pics/nutcracker01.jpg,blankImage,blankImage,blankImage,blankImage,blankImage,rope03,4,,,,,,,,,,,,,,,,,,,,,,,,,,,,,,,,,,,,,,,,,0,25,25,3,1,,,,,,,,,,,,,,,,,,,,,,,,,,,,,,,,,,,,,,,,,,,,,,,,,,,,,,,
,,,,,5d4a14cc5407dc0001b30979,6669d216483b4754e2264ff7,6669dd6925a810de41d5ed07,24,male,English,2024-06-12_13h53.37.950,ABmemTask3,2023.2.3,Win32,74.62686567,,,,,,,,,,,,,,,,,,,,,,,,,,,,,,,326.5697,327.5699,327.5699,9,328.0634,329.384,0.0005,329.5039,0.1197,0.12,0.1201,0.12,0.12,0.1201,0.1201,0.12,0.1201,0.12,0.1201,329.5039,334.2392,right,4.7322,,334.2392,334.439,right,0.1882,,30,0,54,334.4391,335.4393,,,,,,1_AB,L1_T1P_T2P,1,1,1,7,8,6,4,12,Turnstile,Did you see the Turnstile,0.12,0,resources/,pics/golfball.jpg,pics/hose.jpg,pics/siamesecat.jpg,pics/binoculars01b.jpg,pics/hen.jpg,pics/candleholder01.jpg,pics/turnstile.jpg,pics/stapler03a.jpg,pics/giraffe.jpg,pics/pictureframe04.jpg,pics/sandbarshark.jpg,pics/spoon01.jpg,blankImage,blankImage,blankImage,blankImage,blankImage,turnstile,13,,,,,,,,,,,,,,,,,,,,,,,,,,,,,,,,,,,,,,,,,0,26,26,12,1,,,,,,,,,,,,,,,,,,,,,,,,,,,,,,,,,,,,,,,,,,,,,,,,,,,,,,,
,,,,,5d4a14cc5407dc0001b30979,6669d216483b4754e2264ff7,6669dd6925a810de41d5ed07,24,male,English,2024-06-12_13h53.37.950,ABmemTask3,2023.2.3,Win32,74.62686567,,,,,,,,,,,,,,,,,,,,,,,,,,,,,,,335.4442,336.4397,336.4397,9,336.9332,338.2538,0.0004,338.3737,0.1199,0.12,0.1201,0.1201,0.1199,0.1202,0.12,0.12,0.1201,0.12,0.12,338.3738,338.8673,right,0.488,,338.8673,339.0941,right,0.2168,,32,0,56,339.0941,340.0944,,,,,,1_AB,L5_T1P_T2P,5,1,1,4,9,3,3,12,Sheep,Did you see the Sheep,0.12,0,resources/,pics/icecube01.jpg,pics/cymbal.jpg,pics/wheel01.jpg,pics/sheep.jpg,pics/starfish01.jpg,pics/safetypin.jpg,pics/siamesecat.jpg,pics/lock03a.jpg,pics/stapler01.jpg,pics/sink.jpg,pics/fanblades.jpg,pics/bowlingpin.jpg,blankImage,blankImage,blankImage,blankImage,blankImage,sheep,52,,,,,,,,,,,,,,,,,,,,,,,,,,,,,,,,,,,,,,,,,0,27,27,51,1,,,,,,,,,,,,,,,,,,,,,,,,,,,,,,,,,,,,,,,,,,,,,,,,,,,,,,,
,,,,,5d4a14cc5407dc0001b30979,6669d216483b4754e2264ff7,6669dd6925a810de41d5ed07,24,male,English,2024-06-12_13h53.37.950,ABmemTask3,2023.2.3,Win32,74.62686567,,,,,,,,,,,,,,,,,,,,,,,,,,,,,,,340.0946,341.0946,341.0947,9,341.5882,342.4286,0.0004,342.5486,0.1199,0.12,0.1201,0.12,0.12,0.1201,0.12,,,,,342.5486,343.3623,right,0.8025,,343.3623,343.5623,right,0.1946,,34,0,58,343.5623,344.5626,,,,,,1_AB,L1_T1P_T2P,1,1,1,4,5,3,3,8,Recycling bin,Did you see the Recycling bin,0.12,0,resources/,pics/microscope.jpg,pics/dustpan.jpg,pics/seagull.jpg,pics/recyclingbin.jpg,pics/stapler06.jpg,pics/bowtie.jpg,pics/dromedary.jpg,pics/salmon.jpg,blankImage,blankImage,blankImage,blankImage,blankImage,blankImage,blankImage,blankImage,blankImage,recyclingbin,16,,,,,,,,,,,,,,,,,,,,,,,,,,,,,,,,,,,,,,,,,0,28,28,15,1,,,,,,,,,,,,,,,,,,,,,,,,,,,,,,,,,,,,,,,,,,,,,,,,,,,,,,,
,,,,,5d4a14cc5407dc0001b30979,6669d216483b4754e2264ff7,6669dd6925a810de41d5ed07,24,male,English,2024-06-12_13h53.37.950,ABmemTask3,2023.2.3,Win32,74.62686567,,,,,,,,,,,,,,,,,,,,,,,,,,,,,,,344.5628,345.5629,345.5629,9,346.0565,347.4971,0.0004,347.617,0.1199,0.1199,0.1201,0.1201,0.12,0.12,0.12,0.1202,0.1201,0.1199,0.1201,347.617,348.6709,left,1.0482,,348.6709,348.8709,left,0.1918,,36,0,60,348.8709,349.8712,,,,,,1_AB,L1_T1A_T2A,1,0,0,7,8,6,5,13,fan,Did you see the fan,0.12,0,resources/,pics/leaf02a.jpg,pics/dustpan.jpg,pics/pencil01.jpg,pics/kangaroo.jpg,pics/golfball.jpg,pics/lightswitch01.jpg,pics/nutcracker01.jpg,pics/calendar.jpg,pics/hose.jpg,pics/starfish01.jpg,pics/siamesecat.jpg,pics/bowlingpin.jpg,pics/necklace.jpg,blankImage,blankImage,blankImage,blankImage,fan,42,0.12,,,,,,,,,,,,,,,,,,,,,,,,,,,,,,,,,,,,,,,,0,29,29,41,1,,,,,,,,,,,,,,,,,,,,,,,,,,,,,,,,,,,,,,,,,,,,,,,,,,,,,,,
,,,,,5d4a14cc5407dc0001b30979,6669d216483b4754e2264ff7,6669dd6925a810de41d5ed07,24,male,English,2024-06-12_13h53.37.950,ABmemTask3,2023.2.3,Win32,74.62686567,,,,,,,,,,,,,,,,,,,,,,,,,,,,,,,349.8714,350.8715,350.8715,9,351.365,352.6857,0.0004,352.8055,0.1199,0.1202,0.1199,0.12,0.1201,0.1201,0.12,0.12,0.1199,0.1201,0.1201,352.8055,354.0061,right,1.1857,,354.0061,354.2461,left,0.226,,36,0,62,354.2462,355.2464,,,,,,1_AB,L1_T1P_T2P,1,1,1,6,7,5,5,12,Bear,Did you see the Bear,0.12,0,resources/,pics/necklace.jpg,pics/hen.jpg,pics/dromedary.jpg,pics/piggybank.jpg,pics/sandbarshark.jpg,pics/grizzly.jpg,pics/stapler12.jpg,pics/bowlingpin.jpg,pics/christmaslights.jpg,pics/icecube01.jpg,pics/match.jpg,pics/lock03a.jpg,blankImage,blankImage,blankImage,blankImage,blankImage,grizzly,18,,,,,,,,,,,,,,,,,,,,,,,,,,,,,,,,,,,,,,,,,0,30,30,17,1,,,,,,,,,,,,,,,,,,,,,,,,,,,,,,,,,,,,,,,,,,,,,,,,,,,,,,,
,,,,,5d4a14cc5407dc0001b30979,6669d216483b4754e2264ff7,6669dd6925a810de41d5ed07,24,male,English,2024-06-12_13h53.37.950,ABmemTask3,2023.2.3,Win32,74.62686567,,,,,,,,,,,,,,,,,,,,,,,,,,,,,,,355.2467,356.2468,356.2469,9,356.7403,358.4211,0.0005,358.541,0.1199,0.1199,0.12,0.1201,0.1201,0.1202,0.1198,0.1202,0.1199,0.1203,0.1199,358.541,359.7147,left,1.1649,,359.7148,359.9282,right,0.2045,,36,0,64,359.9282,360.9285,,,,,,1_AB,L5_T1P_T2P,5,1,1,5,10,4,5,15,dolphin,Did you see the dolphin,0.12,0,resources/,pics/banjo.jpg,pics/shipinabottle.jpg,pics/laptop01a.jpg,pics/onion.jpg,pics/dolphin01.jpg,pics/sink.jpg,pics/seaturtle.jpg,pics/butterfly.jpg,pics/hen.jpg,pics/stapler10.jpg,pics/proboscismonkey.jpg,pics/starfish01.jpg,pics/salmon.jpg,pics/spiderweb.jpg,pics/cymbal.jpg,blankImage,blankImage,dolphin01,49,0.12,0.12,0.12,,,,,,,,,,,,,,,,,,,,,,,,,,,,,,,,,,,,,,0,31,31,48,1,,,,,,,,,,,,,,,,,,,,,,,,,,,,,,,,,,,,,,,,,,,,,,,,,,,,,,,
,,,,,5d4a14cc5407dc0001b30979,6669d216483b4754e2264ff7,6669dd6925a810de41d5ed07,24,male,English,2024-06-12_13h53.37.950,ABmemTask3,2023.2.3,Win32,74.62686567,,,,,,,,,,,,,,,,,,,,,,,,,,,,,,,360.9287,361.9288,361.9288,9,362.4223,363.6228,0.0003,363.7427,0.12,0.12,0.1201,0.12,0.1201,0.12,0.12,0.12,0.12,0.12,,363.7428,364.6765,right,0.9251,,364.6766,364.8499,left,0.1596,,36,0,66,364.85,365.8502,,,,,,1_AB,L1_T1P_T2P,1,1,1,7,8,6,3,11,toothpick,Did you see the toothpick,0.12,0,resources/,pics/candleholder01.jpg,pics/blender.jpg,pics/siamesecat.jpg,pics/peanut01.jpg,pics/spiderweb.jpg,pics/football.jpg,pics/toothpick02.jpg,pics/stapler04b.jpg,pics/seagull.jpg,pics/pictureframe04.jpg,pics/shipinabottle.jpg,blankImage,blankImage,blankImage,blankImage,blankImage,blankImage,toothpick02,17,,,,,,,,,,,,,,,,,,,,,,,,,,,,,,,,,,,,,,,,,0,32,32,16,1,,,,,,,,,,,,,,,,,,,,,,,,,,,,,,,,,,,,,,,,,,,,,,,,,,,,,,,
,,,,,5d4a14cc5407dc0001b30979,6669d216483b4754e2264ff7,6669dd6925a810de41d5ed07,24,male,English,2024-06-12_13h53.37.950,ABmemTask3,2023.2.3,Win32,74.62686567,,,,,,,,,,,,,,,,,,,,,,,,,,,,,,,365.8504,366.8506,366.8506,9,367.3441,368.4246,0.0004,368.5445,0.1197,0.12,0.12,0.12,0.1202,0.12,0.12,0.12,0.12,,,368.5445,369.4649,left,0.9079,,369.465,369.7584,left,0.2901,,36,0,68,369.7584,370.7586,,,,,,1_AB,L1_T1P_T2A,1,1,0,6,7,5,3,10,Electric toothbrush,Did you see the Electric toothbrush,0.12,0,resources/,pics/football.jpg,pics/sailboat.jpg,pics/cymbal.jpg,pics/hen.jpg,pics/pencil01.jpg,pics/electrictoothbrush01c.jpg,pics/bowlingpin.jpg,pics/wheel01.jpg,pics/birdhouse.jpg,pics/leaf02a.jpg,blankImage,blankImage,blankImage,blankImage,blankImage,blankImage,blankImage,electrictoothbrush01c,34,,,,,,,,,,,,,,,,,,,,,,,,,,,,,,,,,,,,,,,,,0,33,33,33,1,,,,,,,,,,,,,,,,,,,,,,,,,,,,,,,,,,,,,,,,,,,,,,,,,,,,,,,
,,,,,5d4a14cc5407dc0001b30979,6669d216483b4754e2264ff7,6669dd6925a810de41d5ed07,24,male,English,2024-06-12_13h53.37.950,ABmemTask3,2023.2.3,Win32,74.62686567,,,,,,,,,,,,,,,,,,,,,,,,,,,,,,,370.7589,371.759,371.759,9,372.2525,373.4531,0.0006,373.5729,0.1198,0.1201,0.12,0.12,0.12,0.12,0.1201,0.12,0.12,0.12,,373.573,374.3601,left,0.7786,,374.3601,375.4271,right,1.0636,,38,0,70,375.4271,376.4273,,,,,,1_AB,L1_T1A_T2P,1,0,1,5,6,4,5,11,Recorder,Did you see the Recorder,0.12,0,resources/,pics/bowtie.jpg,pics/nutcracker01.jpg,pics/hairdryer02a.jpg,pics/shovel01.jpg,pics/onion.jpg,pics/stapler13.jpg,pics/safetypin.jpg,pics/spiderweb.jpg,pics/seagull.jpg,pics/dustpan.jpg,pics/icecube01.jpg,blankImage,blankImage,blankImage,blankImage,blankImage,blankImage,recorder04,28,,,,,,,,,,,,,,,,,,,,,,,,,,,,,,,,,,,,,,,,,0,34,34,27,1,,,,,,,,,,,,,,,,,,,,,,,,,,,,,,,,,,,,,,,,,,,,,,,,,,,,,,,
,,,,,5d4a14cc5407dc0001b30979,6669d216483b4754e2264ff7,6669dd6925a810de41d5ed07,24,male,English,2024-06-12_13h53.37.950,ABmemTask3,2023.2.3,Win32,74.62686567,,,,,,,,,,,,,,,,,,,,,,,,,,,,,,,376.4324,377.4277,377.4277,9,377.9212,379.6019,0.0005,379.7219,0.1198,0.1201,0.1199,0.1199,0.1202,0.12,0.1201,0.12,0.1198,0.12,0.1201,379.7219,380.8823,left,1.1475,,380.8823,381.0424,right,0.1459,,38,0,72,381.0424,382.0426,,,,,,1_AB,L5_T1P_T2P,5,1,1,5,10,4,5,15,ribbon,Did you see the ribbon,0.12,0,resources/,pics/giraffe.jpg,pics/boot02b.jpg,pics/cymbal.jpg,pics/leaf02a.jpg,pics/ribbon04.jpg,pics/lightswitch01.jpg,pics/necklace.jpg,pics/calendar.jpg,pics/kangaroo.jpg,pics/stapler12.jpg,pics/hose.jpg,pics/carrot01.jpg,pics/match.jpg,pics/sink.jpg,pics/candleholder01.jpg,blankImage,blankImage,ribbon04,53,0.1201,0.1199,0.1201,,,,,,,,,,,,,,,,,,,,,,,,,,,,,,,,,,,,,,0,35,35,52,1,,,,,,,,,,,,,,,,,,,,,,,,,,,,,,,,,,,,,,,,,,,,,,,,,,,,,,,
,,,,,5d4a14cc5407dc0001b30979,6669d216483b4754e2264ff7,6669dd6925a810de41d5ed07,24,male,English,2024-06-12_13h53.37.950,ABmemTask3,2023.2.3,Win32,74.62686567,,,,,,,,,,,,,,,,,,,,,,,,,,,,,,,382.0475,383.043,383.043,9,383.5365,385.3373,0.0005,385.4572,0.1198,0.12,0.1201,0.12,0.1201,0.12,0.1201,0.12,0.1201,0.1201,0.12,385.4572,386.6978,right,1.2295,,386.6978,387.6048,right,0.9015,,36,0,74,387.6048,388.605,,,,,,1_AB,L5_T1P_T2A,5,1,0,6,11,5,5,16,belt,Did you see the belt,0.12,0,resources/,pics/banjo.jpg,pics/birdhouse.jpg,pics/spoon01.jpg,pics/table01.jpg,pics/candle01.jpg,pics/belt02a.jpg,pics/peach01.jpg,pics/chainsaw.jpg,pics/toiletpaper01a.jpg,pics/proboscismonkey.jpg,pics/cymbal.jpg,pics/binoculars01b.jpg,pics/cannon.jpg,pics/noparkingsign.jpg,pics/sailboat.jpg,pics/carrot01.jpg,blankImage,belt02a,61,0.12,0.12,0.12,,,,,,,,,,,,,,,,,,,,,,,,,,,,,,,,,,,,,,0,36,36,60,1,0.1201,,,,,,,,,,,,,,,,,,,,,,,,,,,,,,,,,,,,,,,,,,,,,,,,,,,,,,
,,,,,5d4a14cc5407dc0001b30979,6669d216483b4754e2264ff7,6669dd6925a810de41d5ed07,24,male,English,2024-06-12_13h53.37.950,ABmemTask3,2023.2.3,Win32,74.62686567,,,,,,,,,,,,,,,,,,,,,,,,,,,,,,,388.61,389.6053,389.6054,9,390.0989,391.5395,0.0004,391.6594,0.1198,0.1201,0.12,0.1201,0.12,0.1201,0.1201,0.12,0.12,0.12,0.1201,391.6594,392.4198,left,0.7462,,392.4198,392.9134,left,0.4851,,36,0,76,392.9134,393.9135,,,,,,1_AB,L1_T1A_T2P,1,0,1,7,8,6,5,13,statue,Did you see the statue,0.12,0,resources/,pics/giraffe.jpg,pics/seaturtle.jpg,pics/peach01.jpg,pics/boot02b.jpg,pics/backpack01a.jpg,pics/sandbarshark.jpg,pics/microscope.jpg,pics/stapler07.jpg,pics/snowshoe.jpg,pics/laptop01a.jpg,pics/necklace.jpg,pics/zebra.jpg,pics/carrot01.jpg,blankImage,blankImage,blankImage,blankImage,statue,27,0.12,,,,,,,,,,,,,,,,,,,,,,,,,,,,,,,,,,,,,,,,0,37,37,26,1,,,,,,,,,,,,,,,,,,,,,,,,,,,,,,,,,,,,,,,,,,,,,,,,,,,,,,,
,,,,,5d4a14cc5407dc0001b30979,6669d216483b4754e2264ff7,6669dd6925a810de41d5ed07,24,male,English,2024-06-12_13h53.37.950,ABmemTask3,2023.2.3,Win32,74.62686567,,,,,,,,,,,,,,,,,,,,,,,,,,,,,,,393.9138,394.9139,394.9139,9,395.4074,397.2082,0.0005,397.3281,0.1199,0.1199,0.1203,0.1199,0.12,0.12,0.12,0.1201,0.1201,0.12,0.1201,397.3281,397.795,right,0.4581,,397.795,398.0352,right,0.2275,,38,0,78,398.0352,399.0354,,,,,,1_AB,L5_T1P_T2P,5,1,1,6,11,5,5,16,cruise ship,Did you see the cruise ship,0.12,0,resources/,pics/seaturtle.jpg,pics/ashtray01.jpg,pics/pencil01.jpg,pics/fanblades.jpg,pics/triangle.jpg,pics/cruiseship.jpg,pics/wheel01.jpg,pics/dustpan.jpg,pics/starfish01.jpg,pics/banjo.jpg,pics/stapler12.jpg,pics/match.jpg,pics/cannon.jpg,pics/sandbarshark.jpg,pics/sink.jpg,pics/zebra.jpg,blankImage,cruiseship,51,0.12,0.12,0.12,,,,,,,,,,,,,,,,,,,,,,,,,,,,,,,,,,,,,,0,38,38,50,1,0.1201,,,,,,,,,,,,,,,,,,,,,,,,,,,,,,,,,,,,,,,,,,,,,,,,,,,,,,
,,,,,5d4a14cc5407dc0001b30979,6669d216483b4754e2264ff7,6669dd6925a810de41d5ed07,24,male,English,2024-06-12_13h53.37.950,ABmemTask3,2023.2.3,Win32,74.62686567,,,,,,,,,,,,,,,,,,,,,,,,,,,,,,,399.0357,400.0357,400.0357,9,400.5293,402.3301,0.0004,402.45,0.1198,0.1201,0.1201,0.12,0.12,0.1201,0.12,0.1201,0.12,0.1201,0.12,402.45,403.1437,right,0.6781,,403.1437,403.3703,left,0.2235,,40,0,80,403.3704,404.3706,,,,,,1_AB,L5_T1P_T2A,5,1,0,7,12,6,4,16,boat,Did you see the boat,0.12,0,resources/,pics/butterfly.jpg,pics/onion.jpg,pics/hose.jpg,pics/ball02.jpg,pics/ashtray01.jpg,pics/bowtie.jpg,pics/boat.jpg,pics/seaturtle.jpg,pics/blender.jpg,pics/zebra.jpg,pics/pictureframe04.jpg,pics/shovel01.jpg,pics/spoon01.jpg,pics/peanut01.jpg,pics/nutcracker01.jpg,pics/aquarium.jpg,blankImage,boat,60,0.12,0.12,0.12,,,,,,,,,,,,,,,,,,,,,,,,,,,,,,,,,,,,,,0,39,39,59,1,0.12,,,,,,,,,,,,,,,,,,,,,,,,,,,,,,,,,,,,,,,,,,,,,,,,,,,,,,
,,,,,5d4a14cc5407dc0001b30979,6669d216483b4754e2264ff7,6669dd6925a810de41d5ed07,24,male,English,2024-06-12_13h53.37.950,ABmemTask3,2023.2.3,Win32,74.62686567,,,,,,,,,,,,,,,,,,,,,,,,,,,,,,,404.3709,405.371,405.371,9,405.8645,407.4253,0.0004,407.5451,0.1199,0.1201,0.1199,0.1201,0.12,0.1201,0.1201,0.12,0.12,0.1201,0.12,407.5451,408.0387,right,0.4853,,408.0388,408.2521,right,0.205,,42,0,82,408.2522,409.2524,,,,,,1_AB,L5_T1P_T2P,5,1,1,6,11,5,3,14,truck,Did you see the truck,0.12,0,resources/,pics/calendar.jpg,pics/mummy.jpg,pics/ashtray01.jpg,pics/pencilsharpener02a.jpg,pics/dustpan.jpg,pics/boxtruck.jpg,pics/lightswitch01.jpg,pics/pictureframe04.jpg,pics/starfish01.jpg,pics/zebra.jpg,pics/stapler12.jpg,pics/bowtie.jpg,pics/candleholder01.jpg,pics/candle01.jpg,blankImage,blankImage,blankImage,boxtruck,50,0.1201,0.1201,,,,,,,,,,,,,,,,,,,,,,,,,,,,,,,,,,,,,,,0,40,40,49,1,,,,,,,,,,,,,,,,,,,,,,,,,,,,,,,,,,,,,,,,,,,,,,,,,,,,,,,
,,,,,5d4a14cc5407dc0001b30979,6669d216483b4754e2264ff7,6669dd6925a810de41d5ed07,24,male,English,2024-06-12_13h53.37.950,ABmemTask3,2023.2.3,Win32,74.62686567,,,,,,,,,,,,,,,,,,,,,,,,,,,,,,,409.2526,410.2528,410.2528,9,410.7463,411.8268,0.0003,411.9466,0.1199,0.1201,0.12,0.1201,0.12,0.1201,0.1201,0.12,0.12,,,411.9467,412.4402,right,0.4866,,412.4404,412.6405,right,0.1905,,44,0,84,412.6405,413.6406,,,,,,1_AB,L1_T1P_T2P,1,1,1,4,5,3,5,10,chair,Did you see the chair,0.12,0,resources/,pics/zebra.jpg,pics/floortile02.jpg,pics/cork02.jpg,pics/chair.jpg,pics/stapler07.jpg,pics/sealion.jpg,pics/shovel01.jpg,pics/piggybank.jpg,pics/candleholder01.jpg,pics/laptop01a.jpg,blankImage,blankImage,blankImage,blankImage,blankImage,blankImage,blankImage,chair,3,,,,,,,,,,,,,,,,,,,,,,,,,,,,,,,,,,,,,,,,,0,41,41,2,1,,,,,,,,,,,,,,,,,,,,,,,,,,,,,,,,,,,,,,,,,,,,,,,,,,,,,,,
,,,,,5d4a14cc5407dc0001b30979,6669d216483b4754e2264ff7,6669dd6925a810de41d5ed07,24,male,English,2024-06-12_13h53.37.950,ABmemTask3,2023.2.3,Win32,74.62686567,,,,,,,,,,,,,,,,,,,,,,,,,,,,,,,413.6409,414.641,414.641,9,415.1345,416.6952,0.0005,416.815,0.1198,0.12,0.1201,0.12,0.1201,0.12,0.12,0.12,0.1201,0.12,0.1201,416.8151,417.442,right,0.623,,417.4421,417.6555,right,0.2019,,42,0,86,417.6556,418.6558,,,,,,1_AB,L5_T1P_T2A,5,1,0,6,11,5,3,14,Kiwi,Did you see the Kiwi,0.12,0,resources/,pics/candleholder01.jpg,pics/kangaroo.jpg,pics/banjo.jpg,pics/binoculars01b.jpg,pics/microscope.jpg,pics/kiwi03.jpg,pics/bowtie.jpg,pics/peanut01.jpg,pics/backpack01a.jpg,pics/zebra.jpg,pics/toiletpaper01a.jpg,pics/hen.jpg,pics/spoon01.jpg,pics/calendar.jpg,blankImage,blankImage,blankImage,kiwi03,59,0.1201,0.12,,,,,,,,,,,,,,,,,,,,,,,,,,,,,,,,,,,,,,,0,42,42,58,1,,,,,,,,,,,,,,,,,,,,,,,,,,,,,,,,,,,,,,,,,,,,,,,,,,,,,,,
,,,,,5d4a14cc5407dc0001b30979,6669d216483b4754e2264ff7,6669dd6925a810de41d5ed07,24,male,English,2024-06-12_13h53.37.950,ABmemTask3,2023.2.3,Win32,74.62686567,,,,,,,,,,,,,,,,,,,,,,,,,,,,,,,418.656,419.6564,419.6564,9,420.1496,421.4702,0.0005,421.5901,0.1201,0.1198,0.1202,0.1199,0.1201,0.1201,0.1202,0.1197,0.1201,0.1199,0.1201,421.5901,422.0972,right,0.4989,,422.0973,422.3106,right,0.2114,,44,0,88,422.3107,423.3108,,,,,,1_AB,L1_T1P_T2P,1,1,1,6,7,5,5,12,jeep,Did you see the jeep,0.12,0,resources/,pics/sandbarshark.jpg,pics/laptop01a.jpg,pics/peach01.jpg,pics/binoculars01b.jpg,pics/giraffe.jpg,pics/jeep.jpg,pics/stapler03b.jpg,pics/fanblades.jpg,pics/cannon.jpg,pics/starfish01.jpg,pics/piggybank.jpg,pics/noparkingsign.jpg,blankImage,blankImage,blankImage,blankImage,blankImage,jeep,2,,,,,,,,,,,,,,,,,,,,,,,,,,,,,,,,,,,,,,,,,0,43,43,1,1,,,,,,,,,,,,,,,,,,,,,,,,,,,,,,,,,,,,,,,,,,,,,,,,,,,,,,,
,,,,,5d4a14cc5407dc0001b30979,6669d216483b4754e2264ff7,6669dd6925a810de41d5ed07,24,male,English,2024-06-12_13h53.37.950,ABmemTask3,2023.2.3,Win32,74.62686567,,,,,,,,,,,,,,,,,,,,,,,,,,,,,,,423.311,424.3111,424.3111,9,424.8046,426.1252,0.0004,426.2451,0.1199,0.1201,0.12,0.12,0.1201,0.1201,0.1199,0.1201,0.1201,0.12,0.12,426.2452,426.9788,right,0.7282,,426.9788,427.1789,left,0.1896,,46,0,90,427.1789,428.1791,,,,,,1_AB,L1_T1P_T2A,1,1,0,7,8,6,4,12,Tennis racket,Did you see the Tennis racket,0.12,0,resources/,pics/banjo.jpg,pics/leaf02a.jpg,pics/shovel01.jpg,pics/microscope.jpg,pics/cork02.jpg,pics/seagull.jpg,pics/tennisracket.jpg,pics/binder03b.jpg,pics/floortile02.jpg,pics/carrot01.jpg,pics/candle01.jpg,pics/siamesecat.jpg,blankImage,blankImage,blankImage,blankImage,blankImage,tennisracket,38,,,,,,,,,,,,,,,,,,,,,,,,,,,,,,,,,,,,,,,,,0,44,44,37,1,,,,,,,,,,,,,,,,,,,,,,,,,,,,,,,,,,,,,,,,,,,,,,,,,,,,,,,
,,,,,5d4a14cc5407dc0001b30979,6669d216483b4754e2264ff7,6669dd6925a810de41d5ed07,24,male,English,2024-06-12_13h53.37.950,ABmemTask3,2023.2.3,Win32,74.62686567,,,,,,,,,,,,,,,,,,,,,,,,,,,,,,,428.1793,429.1795,429.1795,9,429.673,430.8736,0.0004,430.9934,0.1199,0.1201,0.12,0.12,0.1201,0.12,0.12,0.1201,0.1201,0.1199,,430.9935,431.9539,right,0.9451,,431.954,432.6342,left,0.6745,,48,0,92,432.6342,433.6344,,,,,,1_AB,L1_T1P_T2A,1,1,0,7,8,6,3,11,eggplant,Did you see the eggplant,0.12,0,resources/,pics/salmon.jpg,pics/fanblades.jpg,pics/hammerheadshark.jpg,pics/wheel01.jpg,pics/snowshoe.jpg,pics/birdhouse.jpg,pics/eggplant.jpg,pics/spiderweb.jpg,pics/zebra.jpg,pics/pencilsharpener02a.jpg,pics/backpack01a.jpg,blankImage,blankImage,blankImage,blankImage,blankImage,blankImage,eggplant,32,,,,,,,,,,,,,,,,,,,,,,,,,,,,,,,,,,,,,,,,,0,45,45,31,1,,,,,,,,,,,,,,,,,,,,,,,,,,,,,,,,,,,,,,,,,,,,,,,,,,,,,,,
,,,,,5d4a14cc5407dc0001b30979,6669d216483b4754e2264ff7,6669dd6925a810de41d5ed07,24,male,English,2024-06-12_13h53.37.950,ABmemTask3,2023.2.3,Win32,74.62686567,,,,,,,,,,,,,,,,,,,,,,,,,,,,,,,433.6346,434.6347,434.6348,9,435.1283,436.3289,0.0005,436.4488,0.1198,0.12,0.1201,0.12,0.1201,0.12,0.12,0.1204,0.12,0.1199,,436.4488,437.556,left,1.0984,,437.556,437.8894,left,0.3203,,50,0,94,437.8894,438.8897,,,,,,1_AB,L1_T1A_T2A,1,0,0,7,8,6,3,11,Poker chips,Did you see the Poker chips,0.12,0,resources/,pics/candle01.jpg,pics/proboscismonkey.jpg,pics/fanblades.jpg,pics/dromedary.jpg,pics/aquarium.jpg,pics/salmon.jpg,pics/hose.jpg,pics/kangaroo.jpg,pics/noparkingsign.jpg,pics/carrot01.jpg,pics/leaf02a.jpg,blankImage,blankImage,blankImage,blankImage,blankImage,blankImage,pokerchips,41,,,,,,,,,,,,,,,,,,,,,,,,,,,,,,,,,,,,,,,,,0,46,46,40,1,,,,,,,,,,,,,,,,,,,,,,,,,,,,,,,,,,,,,,,,,,,,,,,,,,,,,,,
,,,,,5d4a14cc5407dc0001b30979,6669d216483b4754e2264ff7,6669dd6925a810de41d5ed07,24,male,English,2024-06-12_13h53.37.950,ABmemTask3,2023.2.3,Win32,74.62686567,,,,,,,,,,,,,,,,,,,,,,,,,,,,,,,438.8899,439.89,439.89,9,440.3835,442.3044,0.0004,442.4243,0.1199,0.12,0.1201,0.12,0.12,0.1201,0.12,0.1201,0.12,0.1201,0.12,442.4243,443.2781,left,0.8503,,443.2781,443.4648,right,0.1795,,48,0,96,443.4648,444.465,,,,,,1_AB,L5_T1A_T2A,5,0,0,7,12,6,5,17,Bib,Did you see the Bib,0.12,0,resources/,pics/hammerheadshark.jpg,pics/wheel01.jpg,pics/binder03b.jpg,pics/hairdryer02a.jpg,pics/christmaslights.jpg,pics/sandbarshark.jpg,pics/binoculars01b.jpg,pics/piggybank.jpg,pics/aquarium.jpg,pics/candleholder01.jpg,pics/sink.jpg,pics/calendar.jpg,pics/birdhouse.jpg,pics/bowtie.jpg,pics/onion.jpg,pics/golfball.jpg,pics/sailboat.jpg,bib,62,0.12,0.12,0.12,,,,,,,,,,,,,,,,,,,,,,,,,,,,,,,,,,,,,,0,47,47,61,1,0.1201,0.12,,,,,,,,,,,,,,,,,,,,,,,,,,,,,,,,,,,,,,,,,,,,,,,,,,,,,
,,,,,5d4a14cc5407dc0001b30979,6669d216483b4754e2264ff7,6669dd6925a810de41d5ed07,24,male,English,2024-06-12_13h53.37.950,ABmemTask3,2023.2.3,Win32,74.62686567,,,,,,,,,,,,,,,,,,,,,,,,,,,,,,,444.4652,445.4653,445.4654,9,445.9588,447.1594,0.0004,447.2793,0.1199,0.1201,0.1201,0.12,0.12,0.12,0.1201,0.1201,0.12,0.12,,447.2794,447.9996,right,0.7055,,447.9997,448.3065,right,0.2999,,50,0,98,448.3065,449.3067,,,,,,1_AB,L1_T1P_T2P,1,1,1,7,8,6,3,11,sock,Did you see the sock,0.12,0,resources/,pics/hen.jpg,pics/christmaslights.jpg,pics/salmon.jpg,pics/sealion.jpg,pics/seaturtle.jpg,pics/giraffe.jpg,pics/athleticsock.jpg,pics/stapler01.jpg,pics/shovel01.jpg,pics/leaf02a.jpg,pics/backpack01a.jpg,blankImage,blankImage,blankImage,blankImage,blankImage,blankImage,athleticsock,11,,,,,,,,,,,,,,,,,,,,,,,,,,,,,,,,,,,,,,,,,0,48,48,10,1,,,,,,,,,,,,,,,,,,,,,,,,,,,,,,,,,,,,,,,,,,,,,,,,,,,,,,,
,,,,,5d4a14cc5407dc0001b30979,6669d216483b4754e2264ff7,6669dd6925a810de41d5ed07,24,male,English,2024-06-12_13h53.37.950,ABmemTask3,2023.2.3,Win32,74.62686567,,,,,,,,,,,,,,,,,,,,,,,,,,,,,,,449.307,450.307,450.3071,9,450.8006,451.8811,0.0004,452.001,0.1198,0.1201,0.1201,0.12,0.12,0.12,0.12,0.12,0.1201,,,452.001,452.6414,left,0.6326,,452.6414,453.4283,right,0.7802,,52,0,100,453.4284,454.4285,,,,,,1_AB,L1_T1A_T2P,1,0,1,5,6,4,4,10,button,Did you see the button,0.12,0,resources/,pics/pencil01.jpg,pics/necklace.jpg,pics/sink.jpg,pics/noparkingsign.jpg,pics/banjo.jpg,pics/stapler03b.jpg,pics/candle01.jpg,pics/icecube01.jpg,pics/shovel01.jpg,pics/pencilsharpener02a.jpg,blankImage,blankImage,blankImage,blankImage,blankImage,blankImage,blankImage,button01,25,,,,,,,,,,,,,,,,,,,,,,,,,,,,,,,,,,,,,,,,,0,49,49,24,1,,,,,,,,,,,,,,,,,,,,,,,,,,,,,,,,,,,,,,,,,,,,,,,,,,,,,,,
,,,,,5d4a14cc5407dc0001b30979,6669d216483b4754e2264ff7,6669dd6925a810de41d5ed07,24,male,English,2024-06-12_13h53.37.950,ABmemTask3,2023.2.3,Win32,74.62686567,,,,,,,,,,,,,,,,,,,,,,,,,,,,,,,454.4334,455.4289,455.429,9,455.9224,457.3631,0.0005,457.4829,0.1198,0.12,0.1201,0.1201,0.12,0.1201,0.1199,0.1201,0.12,0.1201,0.12,457.4829,458.1766,right,0.6853,,458.1767,458.3634,left,0.1785,,52,0,102,458.3635,459.3637,,,,,,1_AB,L1_T1P_T2P,1,1,1,7,8,6,5,13,Totem Pole,Did you see the Totem Pole,0.12,0,resources/,pics/laptop01a.jpg,pics/carrot01.jpg,pics/wheel01.jpg,pics/icecube01.jpg,pics/ashtray01.jpg,pics/lock03a.jpg,pics/totempole.jpg,pics/stapler08.jpg,pics/golfball.jpg,pics/pencil01.jpg,pics/banjo.jpg,pics/sandbarshark.jpg,pics/shipinabottle.jpg,blankImage,blankImage,blankImage,blankImage,totempole,22,0.12,,,,,,,,,,,,,,,,,,,,,,,,,,,,,,,,,,,,,,,,0,50,50,21,1,,,,,,,,,,,,,,,,,,,,,,,,,,,,,,,,,,,,,,,,,,,,,,,,,,,,,,,
,,,,,5d4a14cc5407dc0001b30979,6669d216483b4754e2264ff7,6669dd6925a810de41d5ed07,24,male,English,2024-06-12_13h53.37.950,ABmemTask3,2023.2.3,Win32,74.62686567,,,,,,,,,,,,,,,,,,,,,,,,,,,,,,,459.3639,460.364,460.3641,9,460.8575,462.0581,0.0005,462.178,0.1198,0.12,0.1201,0.1199,0.1202,0.12,0.12,0.1201,0.1201,0.12,,462.178,462.725,right,0.5402,,462.725,463.005,left,0.2694,,52,0,104,463.005,464.0053,,,,,,1_AB,L1_T1P_T2P,1,1,1,7,8,6,3,11,bird,Did you see the bird,0.12,0,resources/,pics/sealion.jpg,pics/backpack01a.jpg,pics/hose.jpg,pics/table01.jpg,pics/wheel01.jpg,pics/seaturtle.jpg,pics/americangoldfinch.jpg,pics/stapler08.jpg,pics/siamesecat.jpg,pics/hammerheadshark.jpg,pics/ashtray01.jpg,blankImage,blankImage,blankImage,blankImage,blankImage,blankImage,americangoldfinch,23,,,,,,,,,,,,,,,,,,,,,,,,,,,,,,,,,,,,,,,,,0,51,51,22,1,,,,,,,,,,,,,,,,,,,,,,,,,,,,,,,,,,,,,,,,,,,,,,,,,,,,,,,
,,,,,5d4a14cc5407dc0001b30979,6669d216483b4754e2264ff7,6669dd6925a810de41d5ed07,24,male,English,2024-06-12_13h53.37.950,ABmemTask3,2023.2.3,Win32,74.62686567,,,,,,,,,,,,,,,,,,,,,,,,,,,,,,,464.0055,465.0056,465.0057,9,465.4995,467.0598,0.0005,467.1801,0.1196,0.12,0.1201,0.1203,0.1199,0.1198,0.12,0.12,0.1202,0.12,0.12,467.1802,467.6201,right,0.4239,,467.6201,467.8068,right,0.1753,,54,0,106,467.8068,468.807,,,,,,1_AB,L5_T1P_T2P,5,1,1,5,10,4,4,14,Fox,Did you see the Fox,0.12,0,resources/,pics/hammerheadshark.jpg,pics/bowlingpin.jpg,pics/pictureframe04.jpg,pics/peanut01.jpg,pics/redfox.jpg,pics/cymbal.jpg,pics/spoon01.jpg,pics/banjo.jpg,pics/butterfly.jpg,pics/stapler11.jpg,pics/football.jpg,pics/safetypin.jpg,pics/triangle.jpg,pics/onion.jpg,blankImage,blankImage,blankImage,redfox,45,0.12,0.1199,,,,,,,,,,,,,,,,,,,,,,,,,,,,,,,,,,,,,,,0,52,52,44,1,,,,,,,,,,,,,,,,,,,,,,,,,,,,,,,,,,,,,,,,,,,,,,,,,,,,,,,
,,,,,5d4a14cc5407dc0001b30979,6669d216483b4754e2264ff7,6669dd6925a810de41d5ed07,24,male,English,2024-06-12_13h53.37.950,ABmemTask3,2023.2.3,Win32,74.62686567,,,,,,,,,,,,,,,,,,,,,,,,,,,,,,,468.8073,469.8074,469.8074,9,470.3009,471.3814,0.0004,471.5013,0.12,0.1199,0.12,0.1201,0.1201,0.12,0.1201,0.1199,0.12,,,471.5013,472.1416,right,0.6291,,472.1416,472.3151,left,0.1651,,54,0,108,472.3151,473.3153,,,,,,1_AB,L1_T1P_T2P,1,1,1,4,5,3,5,10,vacuum,Did you see the vacuum,0.12,0,resources/,pics/birdhouse.jpg,pics/floortile02.jpg,pics/toiletpaper01a.jpg,pics/vacuumcleaner01.jpg,pics/stapler02.jpg,pics/spoon01.jpg,pics/banjo.jpg,pics/binder03b.jpg,pics/leaf02a.jpg,pics/aquarium.jpg,blankImage,blankImage,blankImage,blankImage,blankImage,blankImage,blankImage,vacuumcleaner01,5,,,,,,,,,,,,,,,,,,,,,,,,,,,,,,,,,,,,,,,,,0,53,53,4,1,,,,,,,,,,,,,,,,,,,,,,,,,,,,,,,,,,,,,,,,,,,,,,,,,,,,,,,
,,,,,5d4a14cc5407dc0001b30979,6669d216483b4754e2264ff7,6669dd6925a810de41d5ed07,24,male,English,2024-06-12_13h53.37.950,ABmemTask3,2023.2.3,Win32,74.62686567,,,,,,,,,,,,,,,,,,,,,,,,,,,,,,,473.3156,474.3156,474.3157,9,474.8092,476.0097,0.0004,476.1297,0.1198,0.1201,0.12,0.1201,0.12,0.12,0.1201,0.12,0.12,0.12,,476.1298,476.9034,right,0.7578,,476.9034,477.0634,left,0.1543,,54,0,110,477.0634,478.0637,,,,,,1_AB,L1_T1P_T2P,1,1,1,7,8,6,3,11,medal,Did you see the medal,0.12,0,resources/,pics/hen.jpg,pics/starfish01.jpg,pics/nutcracker01.jpg,pics/ball02.jpg,pics/fanblades.jpg,pics/christmaslights.jpg,pics/medal02b.jpg,pics/stapler09.jpg,pics/carrot01.jpg,pics/hammerheadshark.jpg,pics/sailboat.jpg,blankImage,blankImage,blankImage,blankImage,blankImage,blankImage,medal02b,19,,,,,,,,,,,,,,,,,,,,,,,,,,,,,,,,,,,,,,,,,0,54,54,18,1,,,,,,,,,,,,,,,,,,,,,,,,,,,,,,,,,,,,,,,,,,,,,,,,,,,,,,,
,,,,,5d4a14cc5407dc0001b30979,6669d216483b4754e2264ff7,6669dd6925a810de41d5ed07,24,male,English,2024-06-12_13h53.37.950,ABmemTask3,2023.2.3,Win32,74.62686567,,,,,,,,,,,,,,,,,,,,,,,,,,,,,,,478.064,479.0641,479.0641,9,479.5576,480.7582,0.0006,480.878,0.1198,0.1198,0.1201,0.12,0.1201,0.1202,0.1199,0.1203,0.1198,0.1201,,480.878,481.425,right,0.535,,481.425,481.5983,left,0.1684,,56,0,112,481.5984,482.5986,,,,,,1_AB,L1_T1P_T2A,1,1,0,6,7,5,4,11,lamp,Did you see the lamp,0.12,0,resources/,pics/chainsaw.jpg,pics/fanblades.jpg,pics/salmon.jpg,pics/proboscismonkey.jpg,pics/boot02b.jpg,pics/lamp04a.jpg,pics/blender.jpg,pics/sink.jpg,pics/pencil01.jpg,pics/floortile02.jpg,pics/shovel01.jpg,blankImage,blankImage,blankImage,blankImage,blankImage,blankImage,lamp04a,37,,,,,,,,,,,,,,,,,,,,,,,,,,,,,,,,,,,,,,,,,0,55,55,36,1,,,,,,,,,,,,,,,,,,,,,,,,,,,,,,,,,,,,,,,,,,,,,,,,,,,,,,,
,,,,,5d4a14cc5407dc0001b30979,6669d216483b4754e2264ff7,6669dd6925a810de41d5ed07,24,male,English,2024-06-12_13h53.37.950,ABmemTask3,2023.2.3,Win32,74.62686567,,,,,,,,,,,,,,,,,,,,,,,,,,,,,,,482.5989,483.599,483.599,9,484.0924,485.7733,0.0005,485.8933,0.1198,0.1201,0.1202,0.12,0.1201,0.1201,0.1199,0.1201,0.12,0.1201,0.12,485.8934,486.4936,left,0.5851,,486.4937,486.6404,right,0.1347,,58,0,114,486.6404,487.6407,,,,,,1_AB,L5_T1A_T2P,5,0,1,7,12,6,3,15,scissors,Did you see the scissors,0.12,0,resources/,pics/cannon.jpg,pics/mummy.jpg,pics/shovel01.jpg,pics/christmaslights.jpg,pics/snowshoe.jpg,pics/candle01.jpg,pics/bowtie.jpg,pics/giraffe.jpg,pics/carrot01.jpg,pics/spoon01.jpg,pics/seaturtle.jpg,pics/stapler10.jpg,pics/footballhelmet.jpg,pics/onion.jpg,pics/wheel01.jpg,blankImage,blankImage,scissors01,57,0.1201,0.12,0.12,,,,,,,,,,,,,,,,,,,,,,,,,,,,,,,,,,,,,,0,56,56,56,1,,,,,,,,,,,,,,,,,,,,,,,,,,,,,,,,,,,,,,,,,,,,,,,,,,,,,,,
,,,,,5d4a14cc5407dc0001b30979,6669d216483b4754e2264ff7,6669dd6925a810de41d5ed07,24,male,English,2024-06-12_13h53.37.950,ABmemTask3,2023.2.3,Win32,74.62686567,,,,,,,,,,,,,,,,,,,,,,,,,,,,,,,487.6409,488.6409,488.641,9,489.1344,490.0948,0.0005,490.2147,0.1202,0.1196,0.1199,0.1201,0.12,0.12,0.12,0.1201,,,,490.2147,490.9884,right,0.7628,,490.9885,491.1351,left,0.1324,,60,0,116,491.1352,492.1353,,,,,,1_AB,L1_T1P_T2A,1,1,0,4,5,3,4,9,blueberry,Did you see the blueberry,0.12,0,resources/,pics/sealion.jpg,pics/piggybank.jpg,pics/sink.jpg,pics/blueberry01.jpg,pics/onion.jpg,pics/sailboat.jpg,pics/seaturtle.jpg,pics/hen.jpg,pics/fanblades.jpg,blankImage,blankImage,blankImage,blankImage,blankImage,blankImage,blankImage,blankImage,blueberry01,35,,,,,,,,,,,,,,,,,,,,,,,,,,,,,,,,,,,,,,,,,0,57,57,34,1,,,,,,,,,,,,,,,,,,,,,,,,,,,,,,,,,,,,,,,,,,,,,,,,,,,,,,,
,,,,,5d4a14cc5407dc0001b30979,6669d216483b4754e2264ff7,6669dd6925a810de41d5ed07,24,male,English,2024-06-12_13h53.37.950,ABmemTask3,2023.2.3,Win32,74.62686567,,,,,,,,,,,,,,,,,,,,,,,,,,,,,,,492.1356,493.1358,493.1358,9,493.6292,494.8301,0.0005,494.9497,0.1197,0.1201,0.1202,0.1199,0.1201,0.12,0.1201,0.12,0.1201,0.1203,,494.9497,495.9635,left,0.9995,,495.9635,496.1237,right,0.1575,,62,0,118,496.1237,497.1238,,,,,,1_AB,L1_T1A_T2P,1,0,1,7,8,6,3,11,turkey,Did you see the turkey,0.12,0,resources/,pics/proboscismonkey.jpg,pics/blender.jpg,pics/sealion.jpg,pics/snowshoe.jpg,pics/carrot01.jpg,pics/microscope.jpg,pics/piggybank.jpg,pics/stapler12.jpg,pics/peanut01.jpg,pics/dustpan.jpg,pics/footballhelmet.jpg,blankImage,blankImage,blankImage,blankImage,blankImage,blankImage,turkey,26,,,,,,,,,,,,,,,,,,,,,,,,,,,,,,,,,,,,,,,,,0,58,58,25,1,,,,,,,,,,,,,,,,,,,,,,,,,,,,,,,,,,,,,,,,,,,,,,,,,,,,,,,
,,,,,5d4a14cc5407dc0001b30979,6669d216483b4754e2264ff7,6669dd6925a810de41d5ed07,24,male,English,2024-06-12_13h53.37.950,ABmemTask3,2023.2.3,Win32,74.62686567,,,,,,,,,,,,,,,,,,,,,,,,,,,,,,,497.1241,498.1242,498.1242,9,498.6176,499.4581,0.0004,499.5781,0.1199,0.1201,0.1201,0.1201,0.1199,0.1202,0.1199,,,,,499.5781,501.0587,left,1.4734,,501.0587,501.5922,right,0.529,,64,0,120,501.5922,502.5924,,,,,,1_AB,L1_T1A_T2P,1,0,1,4,5,3,3,8,Parking meter,Did you see the Parking meter,0.12,0,resources/,pics/leaf02a.jpg,pics/carrot01.jpg,pics/sink.jpg,pics/butterfly.jpg,pics/stapler10.jpg,pics/pictureframe04.jpg,pics/spiderweb.jpg,pics/icecube01.jpg,blankImage,blankImage,blankImage,blankImage,blankImage,blankImage,blankImage,blankImage,blankImage,parkingmeter,30,,,,,,,,,,,,,,,,,,,,,,,,,,,,,,,,,,,,,,,,,0,59,59,29,1,,,,,,,,,,,,,,,,,,,,,,,,,,,,,,,,,,,,,,,,,,,,,,,,,,,,,,,
,,,,,5d4a14cc5407dc0001b30979,6669d216483b4754e2264ff7,6669dd6925a810de41d5ed07,24,male,English,2024-06-12_13h53.37.950,ABmemTask3,2023.2.3,Win32,74.62686567,,,,,,,,,,,,,,,,,,,,,,,,,,,,,,,502.5972,503.5927,503.5928,9,504.0863,505.527,0.0004,505.6468,0.1199,0.12,0.1202,0.1199,0.12,0.1201,0.12,0.1201,0.12,0.1201,0.12,505.6469,506.794,left,1.1322,,506.7941,506.9408,right,0.1413,,66,0,122,506.9408,507.941,,,,,,1_AB,L1_T1A_T2P,1,0,1,7,8,6,5,13,Basketball,Did you see the Basketball,0.12,0,resources/,pics/cork02.jpg,pics/table01.jpg,pics/christmaslights.jpg,pics/nutcracker01.jpg,pics/golfball.jpg,pics/hammerheadshark.jpg,pics/seaturtle.jpg,pics/stapler04b.jpg,pics/lock03a.jpg,pics/snowshoe.jpg,pics/sewingmachine01a.jpg,pics/peach01.jpg,pics/hose.jpg,blankImage,blankImage,blankImage,blankImage,basketball01,24,0.12,,,,,,,,,,,,,,,,,,,,,,,,,,,,,,,,,,,,,,,,0,60,60,23,1,,,,,,,,,,,,,,,,,,,,,,,,,,,,,,,,,,,,,,,,,,,,,,,,,,,,,,,
,,,,,5d4a14cc5407dc0001b30979,6669d216483b4754e2264ff7,6669dd6925a810de41d5ed07,24,male,English,2024-06-12_13h53.37.950,ABmemTask3,2023.2.3,Win32,74.62686567,,,,,,,,,,,,,,,,,,,,,,,,,,,,,,,507.9413,508.9413,508.9413,9,509.4349,510.8755,0.0004,510.9954,0.1198,0.1201,0.12,0.1201,0.1201,0.12,0.12,0.12,0.1203,0.1199,0.12,510.9955,511.369,right,0.3655,,511.3691,511.5558,right,0.1726,,68,0,124,511.5558,512.5562,,,,,,1_AB,L5_T1P_T2P,5,1,1,4,9,3,4,13,Forklift,Did you see the Forklift,0.12,0,resources/,pics/dustpan.jpg,pics/table01.jpg,pics/sink.jpg,pics/forklift.jpg,pics/dromedary.jpg,pics/proboscismonkey.jpg,pics/cymbal.jpg,pics/shovel01.jpg,pics/stapler10.jpg,pics/backpack01a.jpg,pics/binder03b.jpg,pics/banjo.jpg,pics/candleholder01.jpg,blankImage,blankImage,blankImage,blankImage,forklift,47,0.12,,,,,,,,,,,,,,,,,,,,,,,,,,,,,,,,,,,,,,,,0,61,61,46,1,,,,,,,,,,,,,,,,,,,,,,,,,,,,,,,,,,,,,,,,,,,,,,,,,,,,,,,
,,,,,5d4a14cc5407dc0001b30979,6669d216483b4754e2264ff7,6669dd6925a810de41d5ed07,24,male,English,2024-06-12_13h53.37.950,ABmemTask3,2023.2.3,Win32,74.62686567,,,,,,,,,,,,,,,,,,,,,,,,,,,,,,,,,,,,,,,,,,,,,,,,,,,,,,,,,,,,,,,,,,,,,,,,,,,,,,,,,,,,,,,,,,,,,,,,,,,,,,,,,,,512.5567,515.8374,space,3.266,,,,,,,,,,,,,,,,,,,,,,,,,,,,,,,,,,,,,,,,,,,,,,,,,,,,,,,,,,,,,,,,,,,,,,,,,,,,,,,,,,,,,,,,,,,,,
,,,,,5d4a14cc5407dc0001b30979,6669d216483b4754e2264ff7,6669dd6925a810de41d5ed07,24,male,English,2024-06-12_13h53.37.950,ABmemTask3,2023.2.3,Win32,74.62686567,,,space,14.0126,,,,,,,,,,,,,,,,,,,,,,,,,,,,,,,,,,,,,,,,,,,,,,,,,,,,,,,,,,,,,,,,,,,,,,,,,,,,,,,,,,,,,,,,,,,,,,,,,,,,,,,,,,,,,,,,,,,,,,,,,,,,,,,,,,,,,,,,,,,,,,,,,,,515.8375,529.8695,,,,,,,,,,,,,,,,,,,,,,,,,,,,,,,,,,,,,,,,,,,,,,,,,,,
,,,,,5d4a14cc5407dc0001b30979,6669d216483b4754e2264ff7,6669dd6925a810de41d5ed07,24,male,English,2024-06-12_13h53.37.950,ABmemTask3,2023.2.3,Win32,74.62686567,,,,,,,,,,,,,,,,,,,,,,,,,,,,,,,,,,,,,,,,,,,,,,,,,,,,,,,,,,,,,,,,,,,,,,,,,,,,,,,,,,,,,,,,,,,,,,,,,,,,,,,,,,,,,,,,,,,,,,,,,,,,,,,,,,,,,,,,,,,,,,,,,,,,,,,,,529.8695,544.3682,space,14.4775,,,,,,,,,,,,,,,,,,,,,,,,,,,,,,,,,,,,,,,,,,,,,,,
,,,,,5d4a14cc5407dc0001b30979,6669d216483b4754e2264ff7,6669dd6925a810de41d5ed07,24,male,English,2024-06-12_13h53.37.950,ABmemTask3,2023.2.3,Win32,74.62686567,,,,,,,,,,,,,,,,,,,,,,,,,,,,,,,544.3738,545.3679,545.3679,9,545.8612,547.0619,0.0006,547.1818,0.1198,0.12,0.12,0.12,0.1201,0.12,0.1201,0.12,0.1201,0.12,,547.1819,547.7687,right,0.5717,,,,,,,1,68,2,547.7687,548.769,,,,,,2_AB,L1_T1P_T2P,1,1,1,6,7,5,4,11,goggles,Did you see the goggles,0.12,0,resources/,pics/bowtie.jpg,pics/peach01.jpg,pics/kangaroo.jpg,pics/bowlingpin.jpg,pics/wheel01.jpg,pics/swimgoggles.jpg,pics/stapler03.jpg,pics/cymbal.jpg,pics/cork02.jpg,pics/sealion.jpg,pics/football.jpg,blankImage,blankImage,blankImage,blankImage,blankImage,blankImage,swimgoggles,9,,,,,,,,,,,,,,,,,,,,,,,,,,,,,,,,,,,,,,,,,,,,,,,,,,,,,,,0,0,0,8,1,,,,,,,,,,,,,,,,,,,,,,,,,,,,,,,,,,,,,,,,,
,,,,,5d4a14cc5407dc0001b30979,6669d216483b4754e2264ff7,6669dd6925a810de41d5ed07,24,male,English,2024-06-12_13h53.37.950,ABmemTask3,2023.2.3,Win32,74.62686567,,,,,,,,,,,,,,,,,,,,,,,,,,,,,,,548.7693,549.7693,549.7694,9,550.2628,551.9436,0.0005,552.0635,0.1198,0.1203,0.1197,0.1201,0.1201,0.12,0.1202,0.12,0.1199,0.1202,0.12,552.0635,552.6237,left,0.5547,,,,,,,2,68,4,552.6238,553.6241,,,,,,2_AB,L5_T1A_T2P,5,0,1,7,12,6,3,15,Ipad,Did you see the Ipad,0.12,0,resources/,pics/peanut01.jpg,pics/hairdryer02a.jpg,pics/necklace.jpg,pics/shipinabottle.jpg,pics/footballhelmet.jpg,pics/match.jpg,pics/leaf02a.jpg,pics/backpack01a.jpg,pics/noparkingsign.jpg,pics/wheel01.jpg,pics/table01.jpg,pics/stapler03a.jpg,pics/cannon.jpg,pics/aquarium.jpg,pics/lightswitch01.jpg,blankImage,blankImage,ipad02,56,0.12,0.1201,0.12,,,,,,,,,,,,,,,,,,,,,,,,,,,,,,,,,,,,,,,,,,,,,,,,,,,,0,1,1,55,1,,,,,,,,,,,,,,,,,,,,,,,,,,,,,,,,,,,,,,,,,
,,,,,5d4a14cc5407dc0001b30979,6669d216483b4754e2264ff7,6669dd6925a810de41d5ed07,24,male,English,2024-06-12_13h53.37.950,ABmemTask3,2023.2.3,Win32,74.62686567,,,,,,,,,,,,,,,,,,,,,,,,,,,,,,,553.6243,554.6245,554.6245,9,555.1181,556.4386,0.0004,556.5584,0.1199,0.1199,0.1201,0.1202,0.12,0.1202,0.1198,0.1204,0.1195,0.12,0.1202,556.5584,556.9986,right,0.4251,,,,,,,3,68,6,556.9987,557.9989,,,,,,2_AB,L1_T1P_T2A,1,1,0,6,7,5,5,12,Bird feeder,Did you see the Bird feeder,0.12,0,resources/,pics/spiderweb.jpg,pics/carrot01.jpg,pics/ashtray01.jpg,pics/golfball.jpg,pics/piggybank.jpg,pics/birdfeeder.jpg,pics/siamesecat.jpg,pics/seaturtle.jpg,pics/blender.jpg,pics/pencil01.jpg,pics/spoon01.jpg,pics/zebra.jpg,blankImage,blankImage,blankImage,blankImage,blankImage,birdfeeder,37,,,,,,,,,,,,,,,,,,,,,,,,,,,,,,,,,,,,,,,,,,,,,,,,,,,,,,,0,2,2,36,1,,,,,,,,,,,,,,,,,,,,,,,,,,,,,,,,,,,,,,,,,
,,,,,5d4a14cc5407dc0001b30979,6669d216483b4754e2264ff7,6669dd6925a810de41d5ed07,24,male,English,2024-06-12_13h53.37.950,ABmemTask3,2023.2.3,Win32,74.62686567,,,,,,,,,,,,,,,,,,,,,,,,,,,,,,,557.9991,558.9993,558.9993,9,559.4928,560.6934,0.0004,560.8132,0.1199,0.12,0.1202,0.1199,0.1201,0.12,0.12,0.12,0.1201,0.1201,,560.8133,561.2935,left,0.4649,,,,,,,4,68,8,561.2936,562.2938,,,,,,2_AB,L1_T1A_T2A,1,0,0,7,8,6,3,11,pill,Did you see the pill,0.12,0,resources/,pics/sink.jpg,pics/seagull.jpg,pics/ashtray01.jpg,pics/piggybank.jpg,pics/toiletpaper01a.jpg,pics/carrot01.jpg,pics/wheel01.jpg,pics/blender.jpg,pics/onion.jpg,pics/pencil01.jpg,pics/binder03b.jpg,blankImage,blankImage,blankImage,blankImage,blankImage,blankImage,pill,40,,,,,,,,,,,,,,,,,,,,,,,,,,,,,,,,,,,,,,,,,,,,,,,,,,,,,,,0,3,3,39,1,,,,,,,,,,,,,,,,,,,,,,,,,,,,,,,,,,,,,,,,,
,,,,,5d4a14cc5407dc0001b30979,6669d216483b4754e2264ff7,6669dd6925a810de41d5ed07,24,male,English,2024-06-12_13h53.37.950,ABmemTask3,2023.2.3,Win32,74.62686567,,,,,,,,,,,,,,,,,,,,,,,,,,,,,,,562.294,563.2941,563.2942,9,563.7877,564.8682,0.0004,564.9881,0.1198,0.1201,0.12,0.12,0.1201,0.1202,0.1199,0.1203,0.1198,,,564.9881,565.5484,left,0.5505,,,,,,,5,68,10,565.5485,566.5486,,,,,,2_AB,L1_T1A_T2P,1,0,1,4,5,3,5,10,spice rack,Did you see the spice rack,0.12,0,resources/,pics/hammerheadshark.jpg,pics/pictureframe04.jpg,pics/boot02b.jpg,pics/starfish01.jpg,pics/stapler12.jpg,pics/leaf02a.jpg,pics/necklace.jpg,pics/hose.jpg,pics/salmon.jpg,pics/cymbal.jpg,blankImage,blankImage,blankImage,blankImage,blankImage,blankImage,blankImage,spicerack,27,,,,,,,,,,,,,,,,,,,,,,,,,,,,,,,,,,,,,,,,,,,,,,,,,,,,,,,0,4,4,26,1,,,,,,,,,,,,,,,,,,,,,,,,,,,,,,,,,,,,,,,,,
,,,,,5d4a14cc5407dc0001b30979,6669d216483b4754e2264ff7,6669dd6925a810de41d5ed07,24,male,English,2024-06-12_13h53.37.950,ABmemTask3,2023.2.3,Win32,74.62686567,,,,,,,,,,,,,,,,,,,,,,,,,,,,,,,566.5489,567.549,567.549,9,568.0425,569.2431,0.0004,569.363,0.1199,0.1201,0.12,0.12,0.12,0.1201,0.1201,0.12,0.12,0.1202,,569.363,569.7632,right,0.3912,,,,,,,6,68,12,569.7632,570.7635,,,,,,2_AB,L1_T1P_T2P,1,1,1,6,7,5,4,11,flashlight,Did you see the flashlight,0.12,0,resources/,pics/proboscismonkey.jpg,pics/hen.jpg,pics/hairdryer02a.jpg,pics/candle01.jpg,pics/laptop01a.jpg,pics/flashlight02b.jpg,pics/stapler12.jpg,pics/lock03a.jpg,pics/sewingmachine01a.jpg,pics/seagull.jpg,pics/pictureframe04.jpg,blankImage,blankImage,blankImage,blankImage,blankImage,blankImage,flashlight02b,3,,,,,,,,,,,,,,,,,,,,,,,,,,,,,,,,,,,,,,,,,,,,,,,,,,,,,,,0,5,5,2,1,,,,,,,,,,,,,,,,,,,,,,,,,,,,,,,,,,,,,,,,,
,,,,,5d4a14cc5407dc0001b30979,6669d216483b4754e2264ff7,6669dd6925a810de41d5ed07,24,male,English,2024-06-12_13h53.37.950,ABmemTask3,2023.2.3,Win32,74.62686567,,,,,,,,,,,,,,,,,,,,,,,,,,,,,,,570.7637,571.7638,571.7638,9,572.2574,573.458,0.0004,573.5778,0.1198,0.1201,0.12,0.1201,0.1201,0.12,0.1199,0.12,0.1201,0.1201,,573.5779,574.0181,right,0.4263,,,,,,,7,68,14,574.0181,575.0184,,,,,,2_AB,L1_T1P_T2A,1,1,0,6,7,5,4,11,tambourine,Did you see the tambourine,0.12,0,resources/,pics/pencil01.jpg,pics/floortile02.jpg,pics/butterfly.jpg,pics/toiletpaper01a.jpg,pics/kangaroo.jpg,pics/tambourine01.jpg,pics/lock03a.jpg,pics/golfball.jpg,pics/ashtray01.jpg,pics/fanblades.jpg,pics/sewingmachine01a.jpg,blankImage,blankImage,blankImage,blankImage,blankImage,blankImage,tambourine01,35,,,,,,,,,,,,,,,,,,,,,,,,,,,,,,,,,,,,,,,,,,,,,,,,,,,,,,,0,6,6,34,1,,,,,,,,,,,,,,,,,,,,,,,,,,,,,,,,,,,,,,,,,
,,,,,5d4a14cc5407dc0001b30979,6669d216483b4754e2264ff7,6669dd6925a810de41d5ed07,24,male,English,2024-06-12_13h53.37.950,ABmemTask3,2023.2.3,Win32,74.62686567,,,,,,,,,,,,,,,,,,,,,,,,,,,,,,,575.0186,576.0187,576.0187,9,576.5122,578.193,0.0004,578.3129,0.1199,0.12,0.1201,0.12,0.1201,0.12,0.1201,0.12,0.12,0.1202,0.1199,578.3129,578.8064,left,0.4892,,,,,,,8,68,16,578.8064,579.8067,,,,,,2_AB,L5_T1A_T2P,5,0,1,5,10,4,5,15,wedding cake,Did you see the wedding cake,0.12,0,resources/,pics/microscope.jpg,pics/golfball.jpg,pics/kangaroo.jpg,pics/backpack01a.jpg,pics/sewingmachine01a.jpg,pics/christmaslights.jpg,pics/lightswitch01.jpg,pics/carrot01.jpg,pics/dromedary.jpg,pics/stapler09.jpg,pics/candle01.jpg,pics/hammerheadshark.jpg,pics/footballhelmet.jpg,pics/banjo.jpg,pics/binoculars01b.jpg,blankImage,blankImage,weddingcake,57,0.1201,0.12,0.1201,,,,,,,,,,,,,,,,,,,,,,,,,,,,,,,,,,,,,,,,,,,,,,,,,,,,0,7,7,56,1,,,,,,,,,,,,,,,,,,,,,,,,,,,,,,,,,,,,,,,,,
,,,,,5d4a14cc5407dc0001b30979,6669d216483b4754e2264ff7,6669dd6925a810de41d5ed07,24,male,English,2024-06-12_13h53.37.950,ABmemTask3,2023.2.3,Win32,74.62686567,,,,,,,,,,,,,,,,,,,,,,,,,,,,,,,579.807,580.807,580.8071,9,581.3006,582.3811,0.0005,582.501,0.1197,0.1201,0.12,0.12,0.1202,0.12,0.1201,0.12,0.12,,,582.5011,582.928,right,0.4124,,,,,,,9,68,18,582.928,583.9282,,,,,,2_AB,L1_T1P_T2P,1,1,1,4,5,3,5,10,cloud,Did you see the cloud,0.12,0,resources/,pics/laptop01a.jpg,pics/hose.jpg,pics/kangaroo.jpg,pics/cloud.jpg,pics/stapler05.jpg,pics/wheel01.jpg,pics/nutcracker01.jpg,pics/backpack01a.jpg,pics/hen.jpg,pics/chainsaw.jpg,blankImage,blankImage,blankImage,blankImage,blankImage,blankImage,blankImage,cloud,16,,,,,,,,,,,,,,,,,,,,,,,,,,,,,,,,,,,,,,,,,,,,,,,,,,,,,,,0,8,8,15,1,,,,,,,,,,,,,,,,,,,,,,,,,,,,,,,,,,,,,,,,,
,,,,,5d4a14cc5407dc0001b30979,6669d216483b4754e2264ff7,6669dd6925a810de41d5ed07,24,male,English,2024-06-12_13h53.37.950,ABmemTask3,2023.2.3,Win32,74.62686567,,,,,,,,,,,,,,,,,,,,,,,,,,,,,,,583.9284,584.9285,584.9285,9,585.4221,587.1028,0.0004,587.2227,0.1198,0.1201,0.12,0.1202,0.1199,0.1201,0.1199,0.1201,0.1201,0.1201,0.12,587.2228,587.7163,left,0.4871,,,,,,,10,68,20,587.7163,588.7166,,,,,,2_AB,L5_T1A_T2P,5,0,1,7,12,6,3,15,radish,Did you see the radish,0.12,0,resources/,pics/necklace.jpg,pics/peach01.jpg,pics/chainsaw.jpg,pics/giraffe.jpg,pics/blender.jpg,pics/nutcracker01.jpg,pics/seagull.jpg,pics/hairdryer02a.jpg,pics/cannon.jpg,pics/binder03b.jpg,pics/christmaslights.jpg,pics/stapler06.jpg,pics/proboscismonkey.jpg,pics/ball02.jpg,pics/wheel01.jpg,blankImage,blankImage,radish01,55,0.12,0.1201,0.1199,,,,,,,,,,,,,,,,,,,,,,,,,,,,,,,,,,,,,,,,,,,,,,,,,,,,0,9,9,54,1,,,,,,,,,,,,,,,,,,,,,,,,,,,,,,,,,,,,,,,,,
,,,,,5d4a14cc5407dc0001b30979,6669d216483b4754e2264ff7,6669dd6925a810de41d5ed07,24,male,English,2024-06-12_13h53.37.950,ABmemTask3,2023.2.3,Win32,74.62686567,,,,,,,,,,,,,,,,,,,,,,,,,,,,,,,588.7168,589.717,589.717,9,590.2105,591.5311,0.0004,591.6509,0.1198,0.1201,0.12,0.12,0.1201,0.1201,0.1198,0.1202,0.12,0.12,0.12,591.651,592.0512,right,0.3887,,,,,,,11,68,22,592.0513,593.0514,,,,,,2_AB,L5_T1P_T2P,5,1,1,4,9,3,3,12,tent,Did you see the tent,0.12,0,resources/,pics/spiderweb.jpg,pics/hairdryer02a.jpg,pics/noparkingsign.jpg,pics/tent.jpg,pics/nutcracker01.jpg,pics/boot02b.jpg,pics/golfball.jpg,pics/candle01.jpg,pics/stapler08.jpg,pics/fanblades.jpg,pics/cannon.jpg,pics/lightswitch01.jpg,blankImage,blankImage,blankImage,blankImage,blankImage,tent,51,,,,,,,,,,,,,,,,,,,,,,,,,,,,,,,,,,,,,,,,,,,,,,,,,,,,,,,0,10,10,50,1,,,,,,,,,,,,,,,,,,,,,,,,,,,,,,,,,,,,,,,,,
