consent1.started,consent1.stopped,key_resp_8.keys,key_resp_8.rt,key_resp_8.duration,PROLIFIC_PID,STUDY_ID,SESSION_ID,age,sex,native language,date,expName,psychopyVersion,OS,frameRate,consent2.started,consent2.stopped,key_resp_9.keys,key_resp_9.rt,key_resp_9.duration,consent3.started,consent3.stopped,key_resp_10.keys,key_resp_10.rt,key_resp_10.duration,consent4.started,consent4.stopped,key_resp_11.keys,key_resp_11.rt,key_resp_11.duration,consent5.started,consent5.stopped,key_resp_12.keys,key_resp_12.rt,key_resp_12.duration,bonusInstruct.started,bonusInstruct.stopped,key_resp_14.keys,key_resp_14.rt,key_resp_14.duration,practiceInstruct.started,practiceInstruct.stopped,key_resp.keys,key_resp.rt,key_resp.duration,cueWord_2.started,cueWord_2.stopped,fix.started,frameTarget,fix.stopped,trial.started,img1Add,trial.stopped,img2Add,img3Add,img4Add,img5Add,img6Add,img7Add,img8Add,img9Add,img10Add,img11Add,img12Add,prompt1.started,prompt1.stopped,key_resp_2.keys,key_resp_2.rt,key_resp_2.duration,prompt2.started,prompt2.stopped,key_resp_3.keys,key_resp_3.rt,key_resp_3.duration,runningAcc_AB,runningTotal,runningCount_AB,feedback.started,feedback.stopped,trials.thisRepN,trials.thisTrialN,trials.thisN,trials.thisIndex,trials.ran,TrialType,CondType,Lag,T1_PA,T2_PA,T1Loc,T2Loc,PreDistractor,PostDistractor,TotalImg,cueWord,T1cue,StimLength,isi,PicFolder,Img1,Img2,Img3,Img4,Img5,Img6,Img7,Img8,Img9,Img10,Img11,Img12,Img13,Img14,Img15,Img16,Img17,T1_Identity,trialID,img13Add,img14Add,img15Add,ABfeedback.started,ABfeedback.stopped,key_resp_13.keys,key_resp_13.rt,key_resp_13.duration,MemPracticeInstruction.started,MemPracticeInstruction.stopped,key_resp_5.keys,key_resp_5.rt,key_resp_5.duration,memTrial.started,memTrial.stopped,Mem_runningPoints,key_resp_4.keys,key_resp_4.rt,key_resp_4.duration,memTrialFeedback.started,memTrialFeedback.stopped,trials_2.thisRepN,trials_2.thisTrialN,trials_2.thisN,trials_2.thisIndex,trials_2.ran,ABtrialID,priorLag,image,memFeedback.started,memFeedback.frame,memFeedback.ended,memFeedback.stopped,bonus.started,bonus.stopped,memoryBlockABInstruct.started,memoryBlockABInstruct.stopped,key_resp_6.keys,key_resp_6.rt,key_resp_6.duration,AB_block_1.thisRepN,AB_block_1.thisTrialN,AB_block_1.thisN,AB_block_1.thisIndex,AB_block_1.ran,img16Add,img17Add,AB_break1.started,AB_break1.stopped,PerceiveBlockABInstruct.started,PerceiveBlockABInstruct.stopped,key_resp_7.keys,key_resp_7.rt,key_resp_7.duration,AB_block_2.thisRepN,AB_block_2.thisTrialN,AB_block_2.thisN,AB_block_2.thisIndex,AB_block_2.ran,AB_break2.started,AB_break2.stopped,AB_block_3.thisRepN,AB_block_3.thisTrialN,AB_block_3.thisN,AB_block_3.thisIndex,AB_block_3.ran,AB_break3.started,AB_break3.stopped,AB_block_4.thisRepN,AB_block_4.thisTrialN,AB_block_4.thisN,AB_block_4.thisIndex,AB_block_4.ran,AB_break4.started,AB_break4.stopped,AB_block_5.thisRepN,AB_block_5.thisTrialN,AB_block_5.thisN,AB_block_5.thisIndex,AB_block_5.ran,AB_break5.started,AB_break5.stopped,AB_block_6.thisRepN,AB_block_6.thisTrialN,AB_block_6.thisN,AB_block_6.thisIndex,AB_block_6.ran,AB_break6.started,AB_break6.stopped,MemInstructionSURPRISE.started,MemInstructionSURPRISE.stopped,MemInstruction.started,MemInstruction.stopped,memBreak.started,memBreak.stopped,Mem_block_1.thisRepN,Mem_block_1.thisTrialN,Mem_block_1.thisN,Mem_block_1.thisIndex,Mem_block_1.ran
0.0001,15.0435,space,15.0282,,65cbb33505f664b0a9c1fd1b,6669d216483b4754e2264ff7,6669dba991f47920e1ef29e5,24,Female,English,2024-06-12_10h35.11.242,ABmemTask3,2023.2.3,Win32,59.88023952,,,,,,,,,,,,,,,,,,,,,,,,,,,,,,,,,,,,,,,,,,,,,,,,,,,,,,,,,,,,,,,,,,,,,,,,,,,,,,,,,,,,,,,,,,,,,,,,,,,,,,,,,,,,,,,,,,,,,,,,,,,,,,,,,,,,,,,,,,,,,,,,,,,,,,,,,,,,,,,,,,,,,,,,,,,,,,,,,,,,,,,,,,,,,,,,,,,,,,,,,,,
,,,,,65cbb33505f664b0a9c1fd1b,6669d216483b4754e2264ff7,6669dba991f47920e1ef29e5,24,Female,English,2024-06-12_10h35.11.242,ABmemTask3,2023.2.3,Win32,59.88023952,15.0436,19.8334,space,4.7563,,,,,,,,,,,,,,,,,,,,,,,,,,,,,,,,,,,,,,,,,,,,,,,,,,,,,,,,,,,,,,,,,,,,,,,,,,,,,,,,,,,,,,,,,,,,,,,,,,,,,,,,,,,,,,,,,,,,,,,,,,,,,,,,,,,,,,,,,,,,,,,,,,,,,,,,,,,,,,,,,,,,,,,,,,,,,,,,,,,,,,,,,,,,,,,,,,,,,,,
,,,,,65cbb33505f664b0a9c1fd1b,6669d216483b4754e2264ff7,6669dba991f47920e1ef29e5,24,Female,English,2024-06-12_10h35.11.242,ABmemTask3,2023.2.3,Win32,59.88023952,,,,,,19.8336,22.0723,space,2.2113,,,,,,,,,,,,,,,,,,,,,,,,,,,,,,,,,,,,,,,,,,,,,,,,,,,,,,,,,,,,,,,,,,,,,,,,,,,,,,,,,,,,,,,,,,,,,,,,,,,,,,,,,,,,,,,,,,,,,,,,,,,,,,,,,,,,,,,,,,,,,,,,,,,,,,,,,,,,,,,,,,,,,,,,,,,,,,,,,,,,,,,,,,,,,,,,,,
,,,,,65cbb33505f664b0a9c1fd1b,6669d216483b4754e2264ff7,6669dba991f47920e1ef29e5,24,Female,English,2024-06-12_10h35.11.242,ABmemTask3,2023.2.3,Win32,59.88023952,,,,,,,,,,,22.0723,49.0072,space,26.9102,,,,,,,,,,,,,,,,,,,,,,,,,,,,,,,,,,,,,,,,,,,,,,,,,,,,,,,,,,,,,,,,,,,,,,,,,,,,,,,,,,,,,,,,,,,,,,,,,,,,,,,,,,,,,,,,,,,,,,,,,,,,,,,,,,,,,,,,,,,,,,,,,,,,,,,,,,,,,,,,,,,,,,,,,,,,,,,,,,,,,,,,,,,,,
,,,,,65cbb33505f664b0a9c1fd1b,6669d216483b4754e2264ff7,6669dba991f47920e1ef29e5,24,Female,English,2024-06-12_10h35.11.242,ABmemTask3,2023.2.3,Win32,59.88023952,,,,,,,,,,,,,,,,49.0073,50.7633,space,1.7264,,,,,,,,,,,,,,,,,,,,,,,,,,,,,,,,,,,,,,,,,,,,,,,,,,,,,,,,,,,,,,,,,,,,,,,,,,,,,,,,,,,,,,,,,,,,,,,,,,,,,,,,,,,,,,,,,,,,,,,,,,,,,,,,,,,,,,,,,,,,,,,,,,,,,,,,,,,,,,,,,,,,,,,,,,,,,,,,,,,,,,,,
,,,,,65cbb33505f664b0a9c1fd1b,6669d216483b4754e2264ff7,6669dba991f47920e1ef29e5,24,Female,English,2024-06-12_10h35.11.242,ABmemTask3,2023.2.3,Win32,59.88023952,,,,,,,,,,,,,,,,,,,,,50.7635,64.437,space,13.636,,,,,,,,,,,,,,,,,,,,,,,,,,,,,,,,,,,,,,,,,,,,,,,,,,,,,,,,,,,,,,,,,,,,,,,,,,,,,,,,,,,,,,,,,,,,,,,,,,,,,,,,,,,,,,,,,,,,,,,,,,,,,,,,,,,,,,,,,,,,,,,,,,,,,,,,,,,,,,,,,,,,,,,,,,,,,,,,,,,
,,,,,65cbb33505f664b0a9c1fd1b,6669d216483b4754e2264ff7,6669dba991f47920e1ef29e5,24,Female,English,2024-06-12_10h35.11.242,ABmemTask3,2023.2.3,Win32,59.88023952,,,,,,,,,,,,,,,,,,,,,,,,,,64.437,109.4249,space,44.9676,,,,,,,,,,,,,,,,,,,,,,,,,,,,,,,,,,,,,,,,,,,,,,,,,,,,,,,,,,,,,,,,,,,,,,,,,,,,,,,,,,,,,,,,,,,,,,,,,,,,,,,,,,,,,,,,,,,,,,,,,,,,,,,,,,,,,,,,,,,,,,,,,,,,,,,,,,,,,,,,,,,,,,,,,,,,,,
,,,,,65cbb33505f664b0a9c1fd1b,6669d216483b4754e2264ff7,6669dba991f47920e1ef29e5,24,Female,English,2024-06-12_10h35.11.242,ABmemTask3,2023.2.3,Win32,59.88023952,,,,,,,,,,,,,,,,,,,,,,,,,,,,,,,109.4361,110.4262,110.4263,15,110.927,113.6838,0.0011,113.9338,0.2501,0.2498,0.2515,0.25,0.2507,0.2526,0.2486,0.2498,0.2508,0.2514,0.2504,113.9342,121.3521,right,7.4015,,121.3522,123.122,left,1.7549,,2,0,2,123.1222,124.1241,0,0,0,0,1,prac_AB,L1_T1P_T2A,1,1,0,6,7,5,5,12,cat,Did you see the cat,0.25,0,resources/,pics/shipinabottle.jpg,pics/table01.jpg,pics/dustpan.jpg,pics/golfball.jpg,pics/giraffe.jpg,pics/cat.jpg,pics/peanut01.jpg,pics/pictureframe04.jpg,pics/fanblades.jpg,pics/laptop01a.jpg,pics/ball02.jpg,pics/blender.jpg,blankImage,blankImage,blankImage,blankImage,blankImage,cat,8,,,,,,,,,,,,,,,,,,,,,,,,,,,,,,,,,,,,,,,,,,,,,,,,,,,,,,,,,,,,,,,,,,,,,,,,,,,,,,,,,,,,,,,,,,,,,,,,,,,,
,,,,,65cbb33505f664b0a9c1fd1b,6669d216483b4754e2264ff7,6669dba991f47920e1ef29e5,24,Female,English,2024-06-12_10h35.11.242,ABmemTask3,2023.2.3,Win32,59.88023952,,,,,,,,,,,,,,,,,,,,,,,,,,,,,,,124.1295,125.1265,125.1265,14,125.6271,127.7329,0.0006,127.9661,0.2341,0.2334,0.2344,0.2334,0.2335,0.2343,0.2334,0.2346,0.2342,,,127.9662,130.0714,left,2.0893,,130.0715,130.9062,right,0.8191,,2,0,4,130.9062,131.9091,0,1,1,1,1,prac_AB,L1_T1P_T2P,1,1,1,5,6,4,4,10,tree,Did you see the tree,0.24,0,resources/,pics/carrot01.jpg,pics/hammerheadshark.jpg,pics/kangaroo.jpg,pics/proboscismonkey.jpg,pics/tree.jpg,pics/stapler07.jpg,pics/siamesecat.jpg,pics/ball02.jpg,pics/pictureframe04.jpg,pics/mummy.jpg,blankImage,blankImage,blankImage,blankImage,blankImage,blankImage,blankImage,tree,1,,,,,,,,,,,,,,,,,,,,,,,,,,,,,,,,,,,,,,,,,,,,,,,,,,,,,,,,,,,,,,,,,,,,,,,,,,,,,,,,,,,,,,,,,,,,,,,,,,,,
,,,,,65cbb33505f664b0a9c1fd1b,6669d216483b4754e2264ff7,6669dba991f47920e1ef29e5,24,Female,English,2024-06-12_10h35.11.242,ABmemTask3,2023.2.3,Win32,59.88023952,,,,,,,,,,,,,,,,,,,,,,,,,,,,,,,131.9144,132.9101,132.9101,14,133.4121,135.984,0.0005,136.2174,0.2335,0.2337,0.234,0.2337,0.2336,0.2337,0.2339,0.234,0.2342,0.2344,0.2327,136.2174,138.2229,right,1.9887,,138.2229,138.8908,left,0.6521,,-2,0,6,138.8908,139.8924,0,2,2,2,1,prac_AB,L1_T1A_T2P,1,0,1,7,8,6,4,12,grapes,Did you see the grapes,0.23,0,resources/,pics/sailboat.jpg,pics/butterfly.jpg,pics/giraffe.jpg,pics/spoon01.jpg,pics/hose.jpg,pics/nutcracker01.jpg,pics/table01.jpg,pics/stapler13.jpg,pics/pencil01.jpg,pics/football.jpg,pics/triangle.jpg,pics/hairdryer02a.jpg,blankImage,blankImage,blankImage,blankImage,blankImage,grape01,6,,,,,,,,,,,,,,,,,,,,,,,,,,,,,,,,,,,,,,,,,,,,,,,,,,,,,,,,,,,,,,,,,,,,,,,,,,,,,,,,,,,,,,,,,,,,,,,,,,,,
,,,,,65cbb33505f664b0a9c1fd1b,6669d216483b4754e2264ff7,6669dba991f47920e1ef29e5,24,Female,English,2024-06-12_10h35.11.242,ABmemTask3,2023.2.3,Win32,59.88023952,,,,,,,,,,,,,,,,,,,,,,,,,,,,,,,139.8985,140.8947,140.8947,13,141.3958,144.4362,0.0006,144.6534,0.2175,0.2171,0.2168,0.2176,0.2172,0.2166,0.2179,0.2163,0.2174,0.2167,0.2178,144.6534,146.8753,left,2.205,,146.8753,147.3434,right,0.4517,,-2,0,8,147.3434,148.3457,0,3,3,3,1,prac_AB,L5_T1P_T2P,5,1,1,7,12,6,3,15,Human skull,Did you see the Human skull,0.22,0,resources/,pics/peach01.jpg,pics/proboscismonkey.jpg,pics/hose.jpg,pics/laptop01a.jpg,pics/hammerheadshark.jpg,pics/nutcracker01.jpg,pics/humanskull.jpg,pics/table01.jpg,pics/icecube01.jpg,pics/boot02b.jpg,pics/calendar.jpg,pics/stapler03a.jpg,pics/ashtray01.jpg,pics/giraffe.jpg,pics/dromedary.jpg,blankImage,blankImage,humanskull,12,0.2167,0.2171,0.217,,,,,,,,,,,,,,,,,,,,,,,,,,,,,,,,,,,,,,,,,,,,,,,,,,,,,,,,,,,,,,,,,,,,,,,,,,,,,,,,,,,,,,,,,,,,,,,,,
,,,,,65cbb33505f664b0a9c1fd1b,6669d216483b4754e2264ff7,6669dba991f47920e1ef29e5,24,Female,English,2024-06-12_10h35.11.242,ABmemTask3,2023.2.3,Win32,59.88023952,,,,,,,,,,,,,,,,,,,,,,,,,,,,,,,148.351,149.3517,149.3517,13,149.8533,152.0243,0.0006,152.2416,0.217,0.2296,0.2168,0.204,0.2201,0.2148,0.2174,0.2297,0.2038,0.2173,,152.2417,154.2766,left,2.006,,154.2766,154.9796,right,0.6862,,0,0,10,154.9797,155.9825,0,4,4,4,1,prac_AB,L1_T1A_T2P,1,0,1,7,8,6,3,11,dog,Did you see the dog,0.21,0,resources/,pics/ball02.jpg,pics/binder03b.jpg,pics/dromedary.jpg,pics/shipinabottle.jpg,pics/proboscismonkey.jpg,pics/laptop01a.jpg,pics/chainsaw.jpg,pics/stapler13.jpg,pics/nutcracker01.jpg,pics/carrot01.jpg,pics/calendar.jpg,blankImage,blankImage,blankImage,blankImage,blankImage,blankImage,saintbernard,7,,,,,,,,,,,,,,,,,,,,,,,,,,,,,,,,,,,,,,,,,,,,,,,,,,,,,,,,,,,,,,,,,,,,,,,,,,,,,,,,,,,,,,,,,,,,,,,,,,,,
,,,,,65cbb33505f664b0a9c1fd1b,6669d216483b4754e2264ff7,6669dba991f47920e1ef29e5,24,Female,English,2024-06-12_10h35.11.242,ABmemTask3,2023.2.3,Win32,59.88023952,,,,,,,,,,,,,,,,,,,,,,,,,,,,,,,155.9879,156.984,156.984,12,157.485,160.2903,0.001,160.4915,0.2004,0.1989,0.2005,0.2014,0.1995,0.2008,0.2005,0.2007,0.2006,0.1999,0.2006,160.4915,161.9269,right,1.4194,,161.927,162.396,right,0.4527,,2,0,12,162.3961,163.3967,0,5,5,5,1,prac_AB,L5_T1P_T2P,5,1,1,5,10,4,5,15,grater,Did you see the grater,0.2,0,resources/,pics/pencil01.jpg,pics/laptop01a.jpg,pics/hammerheadshark.jpg,pics/cork02.jpg,pics/grater01a.jpg,pics/shipinabottle.jpg,pics/binder03b.jpg,pics/dromedary.jpg,pics/pictureframe04.jpg,pics/stapler04b.jpg,pics/fanblades.jpg,pics/aquarium.jpg,pics/hairdryer02a.jpg,pics/lightswitch01.jpg,pics/piggybank.jpg,blankImage,blankImage,grater01a,11,0.2002,0.2008,0.1997,,,,,,,,,,,,,,,,,,,,,,,,,,,,,,,,,,,,,,,,,,,,,,,,,,,,,,,,,,,,,,,,,,,,,,,,,,,,,,,,,,,,,,,,,,,,,,,,,
,,,,,65cbb33505f664b0a9c1fd1b,6669d216483b4754e2264ff7,6669dba991f47920e1ef29e5,24,Female,English,2024-06-12_10h35.11.242,ABmemTask3,2023.2.3,Win32,59.88023952,,,,,,,,,,,,,,,,,,,,,,,,,,,,,,,163.3971,164.3993,164.3993,11,164.9003,166.3704,0.0005,166.5535,0.183,0.1843,0.1836,0.1841,0.1837,0.1834,0.1835,0.1841,,,,166.5536,169.6116,left,3.0414,,169.6117,169.9963,left,0.3684,,2,0,14,169.9964,170.9972,0,6,6,6,1,prac_AB,L1_T1P_T2A,1,1,0,4,5,3,4,9,chalk,Did you see the chalk,0.19,0,resources/,pics/necklace.jpg,pics/starfish01.jpg,pics/safetypin.jpg,pics/chalk.jpg,pics/candleholder01.jpg,pics/bowtie.jpg,pics/match.jpg,pics/candle01.jpg,pics/pencilsharpener02a.jpg,blankImage,blankImage,blankImage,blankImage,blankImage,blankImage,blankImage,blankImage,chalk,9,,,,,,,,,,,,,,,,,,,,,,,,,,,,,,,,,,,,,,,,,,,,,,,,,,,,,,,,,,,,,,,,,,,,,,,,,,,,,,,,,,,,,,,,,,,,,,,,,,,,
,,,,,65cbb33505f664b0a9c1fd1b,6669d216483b4754e2264ff7,6669dba991f47920e1ef29e5,24,Female,English,2024-06-12_10h35.11.242,ABmemTask3,2023.2.3,Win32,59.88023952,,,,,,,,,,,,,,,,,,,,,,,,,,,,,,,171.0029,172.0003,172.0003,11,172.501,174.1547,0.0006,174.3386,0.1841,0.1834,0.1836,0.1843,0.184,0.1834,0.1834,0.1838,0.1832,,,174.3386,175.4407,right,1.085,,175.4407,175.8428,right,0.3857,,4,0,16,175.8428,176.8442,0,7,7,7,1,prac_AB,L1_T1P_T2P,1,1,1,5,6,4,4,10,pants,Did you see the pants,0.18,0,resources/,pics/kangaroo.jpg,pics/safetypin.jpg,pics/salmon.jpg,pics/sandbarshark.jpg,pics/pants.jpg,pics/stapler03a.jpg,pics/sink.jpg,pics/calendar.jpg,pics/butterfly.jpg,pics/fanblades.jpg,blankImage,blankImage,blankImage,blankImage,blankImage,blankImage,blankImage,pants,2,,,,,,,,,,,,,,,,,,,,,,,,,,,,,,,,,,,,,,,,,,,,,,,,,,,,,,,,,,,,,,,,,,,,,,,,,,,,,,,,,,,,,,,,,,,,,,,,,,,,
,,,,,65cbb33505f664b0a9c1fd1b,6669d216483b4754e2264ff7,6669dba991f47920e1ef29e5,24,Female,English,2024-06-12_10h35.11.242,ABmemTask3,2023.2.3,Win32,59.88023952,,,,,,,,,,,,,,,,,,,,,,,,,,,,,,,176.8446,177.8464,177.8464,10,178.3468,180.6861,0.0006,180.8533,0.1676,0.1672,0.1681,0.166,0.1665,0.1679,0.1661,0.1667,0.1677,0.1671,0.1672,180.8533,182.2562,left,1.3863,,182.2564,182.6238,right,0.3509,,6,0,18,182.6239,183.6257,0,8,8,8,1,prac_AB,L5_T1A_T2P,5,0,1,7,12,6,3,15,shirt,Did you see the shirt,0.17,0,resources/,pics/banjo.jpg,pics/chainsaw.jpg,pics/sailboat.jpg,pics/shipinabottle.jpg,pics/lightswitch01.jpg,pics/starfish01.jpg,pics/hen.jpg,pics/ball02.jpg,pics/bowlingpin.jpg,pics/hammerheadshark.jpg,pics/footballhelmet.jpg,pics/stapler10.jpg,pics/laptop01a.jpg,pics/cannon.jpg,pics/golfball.jpg,blankImage,blankImage,shirt02,13,0.1667,0.167,0.167,,,,,,,,,,,,,,,,,,,,,,,,,,,,,,,,,,,,,,,,,,,,,,,,,,,,,,,,,,,,,,,,,,,,,,,,,,,,,,,,,,,,,,,,,,,,,,,,,
,,,,,65cbb33505f664b0a9c1fd1b,6669d216483b4754e2264ff7,6669dba991f47920e1ef29e5,24,Female,English,2024-06-12_10h35.11.242,ABmemTask3,2023.2.3,Win32,59.88023952,,,,,,,,,,,,,,,,,,,,,,,,,,,,,,,183.626,184.628,184.6281,10,185.1289,186.7996,0.0005,186.9672,0.167,0.167,0.1673,0.1669,0.167,0.1669,0.1671,0.1672,0.1668,0.1671,,186.9673,188.1361,right,1.1527,,188.1361,188.4873,right,0.3348,,8,0,20,188.4873,189.4894,0,9,9,9,1,prac_AB,L1_T1P_T2P,1,1,1,7,8,6,3,11,tongs,Did you see the tongs,0.16,0,resources/,pics/sewingmachine01a.jpg,pics/shovel01.jpg,pics/football.jpg,pics/hen.jpg,pics/banjo.jpg,pics/zebra.jpg,pics/tongs01b.jpg,pics/stapler11.jpg,pics/shipinabottle.jpg,pics/match.jpg,pics/candle01.jpg,blankImage,blankImage,blankImage,blankImage,blankImage,blankImage,tongs01b,5,,,,,,,,,,,,,,,,,,,,,,,,,,,,,,,,,,,,,,,,,,,,,,,,,,,,,,,,,,,,,,,,,,,,,,,,,,,,,,,,,,,,,,,,,,,,,,,,,,,,
,,,,,65cbb33505f664b0a9c1fd1b,6669d216483b4754e2264ff7,6669dba991f47920e1ef29e5,24,Female,English,2024-06-12_10h35.11.242,ABmemTask3,2023.2.3,Win32,59.88023952,,,,,,,,,,,,,,,,,,,,,,,,,,,,,,,189.4898,190.4913,190.4913,9,190.9923,192.6468,0.0005,192.7965,0.1504,0.15,0.1505,0.1503,0.151,0.1499,0.1506,0.1509,0.1493,0.1503,0.1509,192.7965,193.8827,left,1.069,,193.8828,194.25,left,0.3511,,10,0,22,194.25,195.2526,0,10,10,10,1,prac_AB,L1_T1A_T2A,1,0,0,7,8,6,4,12,camera,Did you see the camera,0.15,0,resources/,pics/lightswitch01.jpg,pics/table01.jpg,pics/aquarium.jpg,pics/boot02b.jpg,pics/butterfly.jpg,pics/chainsaw.jpg,pics/binoculars01b.jpg,pics/giraffe.jpg,pics/triangle.jpg,pics/microscope.jpg,pics/mummy.jpg,pics/icecube01.jpg,blankImage,blankImage,blankImage,blankImage,blankImage,camera01a,10,,,,,,,,,,,,,,,,,,,,,,,,,,,,,,,,,,,,,,,,,,,,,,,,,,,,,,,,,,,,,,,,,,,,,,,,,,,,,,,,,,,,,,,,,,,,,,,,,,,,
,,,,,65cbb33505f664b0a9c1fd1b,6669d216483b4754e2264ff7,6669dba991f47920e1ef29e5,24,Female,English,2024-06-12_10h35.11.242,ABmemTask3,2023.2.3,Win32,59.88023952,,,,,,,,,,,,,,,,,,,,,,,,,,,,,,,195.253,196.2542,196.2543,8,196.7562,197.9586,0.0004,198.092,0.1333,0.1335,0.1336,0.1339,0.1334,0.1337,0.1333,0.1334,0.134,,,198.0921,199.4957,left,1.3875,,199.4957,199.8462,right,0.3339,,10,0,24,199.8463,200.8487,0,11,11,11,1,prac_AB,L1_T1P_T2P,1,1,1,6,7,5,3,10,shorts,Did you see the shorts,0.14,0,resources/,pics/snowshoe.jpg,pics/chainsaw.jpg,pics/sailboat.jpg,pics/ball02.jpg,pics/candleholder01.jpg,pics/shorts01.jpg,pics/stapler07.jpg,pics/peach01.jpg,pics/proboscismonkey.jpg,pics/hen.jpg,blankImage,blankImage,blankImage,blankImage,blankImage,blankImage,blankImage,shorts01,4,,,,,,,,,,,,,,,,,,,,,,,,,,,,,,,,,,,,,,,,,,,,,,,,,,,,,,,,,,,,,,,,,,,,,,,,,,,,,,,,,,,,,,,,,,,,,,,,,,,,
,,,,,65cbb33505f664b0a9c1fd1b,6669d216483b4754e2264ff7,6669dba991f47920e1ef29e5,24,Female,English,2024-06-12_10h35.11.242,ABmemTask3,2023.2.3,Win32,59.88023952,,,,,,,,,,,,,,,,,,,,,,,,,,,,,,,200.854,201.8682,201.8682,8,202.372,203.9762,0.0005,204.1103,0.1337,0.1331,0.1337,0.1345,0.1352,0.1322,0.1341,0.132,0.1334,0.1344,0.1471,204.1104,204.9771,right,0.8371,,204.9771,205.328,left,0.3194,,12,0,26,205.3281,206.3302,0,12,12,12,1,prac_AB,L5_T1P_T2A,5,1,0,5,10,4,3,13,fish,Did you see the fish,0.13,0,resources/,pics/football.jpg,pics/safetypin.jpg,pics/shovel01.jpg,pics/sink.jpg,pics/holdfast.jpg,pics/nutcracker01.jpg,pics/starfish01.jpg,pics/onion.jpg,pics/footballhelmet.jpg,pics/boot02b.jpg,pics/sewingmachine01a.jpg,pics/kangaroo.jpg,pics/banjo.jpg,blankImage,blankImage,blankImage,blankImage,holdfast,14,0.1204,,,,,,,,,,,,,,,,,,,,,,,,,,,,,,,,,,,,,,,,,,,,,,,,,,,,,,,,,,,,,,,,,,,,,,,,,,,,,,,,,,,,,,,,,,,,,,,,,,,
,,,,,65cbb33505f664b0a9c1fd1b,6669d216483b4754e2264ff7,6669dba991f47920e1ef29e5,24,Female,English,2024-06-12_10h35.11.242,ABmemTask3,2023.2.3,Win32,59.88023952,,,,,,,,,,,,,,,,,,,,,,,,,,,,,,,206.3354,207.3316,207.3316,7,207.8298,208.8682,0.0004,208.9849,0.1142,0.106,0.1173,0.118,0.1158,0.1161,0.117,0.1168,0.117,,,208.9849,209.988,right,0.986,,209.988,210.4043,right,0.401,,14,0,28,210.4043,211.4063,0,13,13,13,1,prac_AB,L1_T1P_T2P,1,1,1,5,6,4,4,10,fish,Did you see the fish,0.12,0,resources/,pics/butterfly.jpg,pics/banjo.jpg,pics/leaf02a.jpg,pics/dustpan.jpg,pics/sturgeon.jpg,pics/stapler02.jpg,pics/necklace.jpg,pics/shovel01.jpg,pics/starfish01.jpg,pics/chainsaw.jpg,blankImage,blankImage,blankImage,blankImage,blankImage,blankImage,blankImage,sturgeon,3,,,,,,,,,,,,,,,,,,,,,,,,,,,,,,,,,,,,,,,,,,,,,,,,,,,,,,,,,,,,,,,,,,,,,,,,,,,,,,,,,,,,,,,,,,,,,,,,,,,,
,,,,,65cbb33505f664b0a9c1fd1b,6669d216483b4754e2264ff7,6669dba991f47920e1ef29e5,24,Female,English,2024-06-12_10h35.11.242,ABmemTask3,2023.2.3,Win32,59.88023952,,,,,,,,,,,,,,,,,,,,,,,,,,,,,,,,,,,,,,,,,,,,,,,,,,,,,,,,,,,,,,,,,,,,,,,,,,,,,,,,,,,,,,,,,,,,,,,,,,,,,,,,,,,211.4069,221.9477,space,10.5237,,,,,,,,,,,,,,,,,,,,,,,,,,,,,,,,,,,,,,,,,,,,,,,,,,,,,,,,,,,,,,,,,,,,,,,,,,,,,,,,,,,,,,,,,,,,,
,,,,,65cbb33505f664b0a9c1fd1b,6669d216483b4754e2264ff7,6669dba991f47920e1ef29e5,24,Female,English,2024-06-12_10h35.11.242,ABmemTask3,2023.2.3,Win32,59.88023952,,,,,,,,,,,,,,,,,,,,,,,,,,,,,,,221.9557,222.949,222.9491,15,223.4506,226.2075,0.0006,226.4577,0.25,0.2512,0.25,0.2504,0.2505,0.2513,0.2501,0.251,0.2507,0.2504,0.2507,226.4578,227.426,right,0.9521,,227.426,227.9779,left,0.5348,,2,0,2,227.9779,228.98,0,0,0,0,1,prac_AB,L1_T1P_T2A,1,1,0,6,7,5,5,12,cat,Did you see the cat,0.25,0,resources/,pics/shipinabottle.jpg,pics/table01.jpg,pics/dustpan.jpg,pics/golfball.jpg,pics/giraffe.jpg,pics/cat.jpg,pics/peanut01.jpg,pics/pictureframe04.jpg,pics/fanblades.jpg,pics/laptop01a.jpg,pics/ball02.jpg,pics/blender.jpg,blankImage,blankImage,blankImage,blankImage,blankImage,cat,8,,,,,,,,,,,,,,,,,,,,,,,,,,,,,,,,,,,,,,,,,,,,,,,,,,,,,,,,,,,,,,,,,,,,,,,,,,,,,,,,,,,,,,,,,,,,,,,,,,,,
,,,,,65cbb33505f664b0a9c1fd1b,6669d216483b4754e2264ff7,6669dba991f47920e1ef29e5,24,Female,English,2024-06-12_10h35.11.242,ABmemTask3,2023.2.3,Win32,59.88023952,,,,,,,,,,,,,,,,,,,,,,,,,,,,,,,228.9803,229.9825,229.9826,14,230.4827,232.5882,0.0005,232.8217,0.2337,0.2344,0.2337,0.2336,0.2338,0.2341,0.2338,0.2338,0.2342,,,232.8218,233.7739,right,0.9356,,233.7739,234.2253,right,0.4343,,4,0,4,234.2254,235.2269,0,1,1,1,1,prac_AB,L1_T1P_T2P,1,1,1,5,6,4,4,10,tree,Did you see the tree,0.24,0,resources/,pics/carrot01.jpg,pics/hammerheadshark.jpg,pics/kangaroo.jpg,pics/proboscismonkey.jpg,pics/tree.jpg,pics/stapler07.jpg,pics/siamesecat.jpg,pics/ball02.jpg,pics/pictureframe04.jpg,pics/mummy.jpg,blankImage,blankImage,blankImage,blankImage,blankImage,blankImage,blankImage,tree,1,,,,,,,,,,,,,,,,,,,,,,,,,,,,,,,,,,,,,,,,,,,,,,,,,,,,,,,,,,,,,,,,,,,,,,,,,,,,,,,,,,,,,,,,,,,,,,,,,,,,
,,,,,65cbb33505f664b0a9c1fd1b,6669d216483b4754e2264ff7,6669dba991f47920e1ef29e5,24,Female,English,2024-06-12_10h35.11.242,ABmemTask3,2023.2.3,Win32,59.88023952,,,,,,,,,,,,,,,,,,,,,,,,,,,,,,,235.2272,236.2289,236.2289,14,236.7301,239.3027,0.0004,239.5369,0.2339,0.2336,0.2345,0.2339,0.2342,0.2332,0.234,0.234,0.2332,0.2338,0.234,239.5369,240.7225,left,1.1688,,240.7225,241.1411,right,0.4022,,6,0,6,241.1411,242.1425,0,2,2,2,1,prac_AB,L1_T1A_T2P,1,0,1,7,8,6,4,12,grapes,Did you see the grapes,0.23,0,resources/,pics/sailboat.jpg,pics/butterfly.jpg,pics/giraffe.jpg,pics/spoon01.jpg,pics/hose.jpg,pics/nutcracker01.jpg,pics/table01.jpg,pics/stapler13.jpg,pics/pencil01.jpg,pics/football.jpg,pics/triangle.jpg,pics/hairdryer02a.jpg,blankImage,blankImage,blankImage,blankImage,blankImage,grape01,6,,,,,,,,,,,,,,,,,,,,,,,,,,,,,,,,,,,,,,,,,,,,,,,,,,,,,,,,,,,,,,,,,,,,,,,,,,,,,,,,,,,,,,,,,,,,,,,,,,,,
,,,,,65cbb33505f664b0a9c1fd1b,6669d216483b4754e2264ff7,6669dba991f47920e1ef29e5,24,Female,English,2024-06-12_10h35.11.242,ABmemTask3,2023.2.3,Win32,59.88023952,,,,,,,,,,,,,,,,,,,,,,,,,,,,,,,242.1477,243.1445,243.1446,13,243.6459,246.6868,0.0006,246.9033,0.217,0.2172,0.2173,0.2176,0.2167,0.217,0.218,0.2169,0.2164,0.2177,0.2166,246.9034,247.6561,right,0.7361,,247.6561,248.1234,right,0.4515,,8,0,8,248.1234,249.1256,0,3,3,3,1,prac_AB,L5_T1P_T2P,5,1,1,7,12,6,3,15,Human skull,Did you see the Human skull,0.22,0,resources/,pics/peach01.jpg,pics/proboscismonkey.jpg,pics/hose.jpg,pics/laptop01a.jpg,pics/hammerheadshark.jpg,pics/nutcracker01.jpg,pics/humanskull.jpg,pics/table01.jpg,pics/icecube01.jpg,pics/boot02b.jpg,pics/calendar.jpg,pics/stapler03a.jpg,pics/ashtray01.jpg,pics/giraffe.jpg,pics/dromedary.jpg,blankImage,blankImage,humanskull,12,0.2182,0.2162,0.2177,,,,,,,,,,,,,,,,,,,,,,,,,,,,,,,,,,,,,,,,,,,,,,,,,,,,,,,,,,,,,,,,,,,,,,,,,,,,,,,,,,,,,,,,,,,,,,,,,
,,,,,65cbb33505f664b0a9c1fd1b,6669d216483b4754e2264ff7,6669dba991f47920e1ef29e5,24,Female,English,2024-06-12_10h35.11.242,ABmemTask3,2023.2.3,Win32,59.88023952,,,,,,,,,,,,,,,,,,,,,,,,,,,,,,,249.1259,250.1274,250.1274,13,250.6283,252.8001,0.0005,253.0171,0.2177,0.217,0.2174,0.2168,0.2172,0.2167,0.2171,0.2171,0.2173,0.2171,,253.0171,254.1032,left,1.0692,,254.1033,254.4547,right,0.3351,,10,0,10,254.4548,255.4564,0,4,4,4,1,prac_AB,L1_T1A_T2P,1,0,1,7,8,6,3,11,dog,Did you see the dog,0.21,0,resources/,pics/ball02.jpg,pics/binder03b.jpg,pics/dromedary.jpg,pics/shipinabottle.jpg,pics/proboscismonkey.jpg,pics/laptop01a.jpg,pics/chainsaw.jpg,pics/stapler13.jpg,pics/nutcracker01.jpg,pics/carrot01.jpg,pics/calendar.jpg,blankImage,blankImage,blankImage,blankImage,blankImage,blankImage,saintbernard,7,,,,,,,,,,,,,,,,,,,,,,,,,,,,,,,,,,,,,,,,,,,,,,,,,,,,,,,,,,,,,,,,,,,,,,,,,,,,,,,,,,,,,,,,,,,,,,,,,,,,
,,,,,65cbb33505f664b0a9c1fd1b,6669d216483b4754e2264ff7,6669dba991f47920e1ef29e5,24,Female,English,2024-06-12_10h35.11.242,ABmemTask3,2023.2.3,Win32,59.88023952,,,,,,,,,,,,,,,,,,,,,,,,,,,,,,,255.4568,256.4583,256.4583,12,256.9598,259.7686,0.0006,259.968,0.2003,0.1998,0.2028,0.2002,0.2008,0.201,0.2006,0.2,0.2005,0.2006,0.2005,259.9681,261.9885,right,2.0045,,261.9885,262.4058,right,0.4015,,12,0,12,262.4059,263.4078,0,5,5,5,1,prac_AB,L5_T1P_T2P,5,1,1,5,10,4,5,15,grater,Did you see the grater,0.2,0,resources/,pics/pencil01.jpg,pics/laptop01a.jpg,pics/hammerheadshark.jpg,pics/cork02.jpg,pics/grater01a.jpg,pics/shipinabottle.jpg,pics/binder03b.jpg,pics/dromedary.jpg,pics/pictureframe04.jpg,pics/stapler04b.jpg,pics/fanblades.jpg,pics/aquarium.jpg,pics/hairdryer02a.jpg,pics/lightswitch01.jpg,pics/piggybank.jpg,blankImage,blankImage,grater01a,11,0.2001,0.1996,0.2015,,,,,,,,,,,,,,,,,,,,,,,,,,,,,,,,,,,,,,,,,,,,,,,,,,,,,,,,,,,,,,,,,,,,,,,,,,,,,,,,,,,,,,,,,,,,,,,,,
,,,,,65cbb33505f664b0a9c1fd1b,6669d216483b4754e2264ff7,6669dba991f47920e1ef29e5,24,Female,English,2024-06-12_10h35.11.242,ABmemTask3,2023.2.3,Win32,59.88023952,,,,,,,,,,,,,,,,,,,,,,,,,,,,,,,263.4131,264.411,264.411,11,264.9138,266.3818,0.0005,266.5644,0.1808,0.1842,0.1831,0.1851,0.1833,0.1844,0.1841,0.1827,,,,266.5644,267.6682,right,1.0866,,267.6682,267.9863,left,0.3025,,14,0,14,267.9863,268.987,0,6,6,6,1,prac_AB,L1_T1P_T2A,1,1,0,4,5,3,4,9,chalk,Did you see the chalk,0.19,0,resources/,pics/necklace.jpg,pics/starfish01.jpg,pics/safetypin.jpg,pics/chalk.jpg,pics/candleholder01.jpg,pics/bowtie.jpg,pics/match.jpg,pics/candle01.jpg,pics/pencilsharpener02a.jpg,blankImage,blankImage,blankImage,blankImage,blankImage,blankImage,blankImage,blankImage,chalk,9,,,,,,,,,,,,,,,,,,,,,,,,,,,,,,,,,,,,,,,,,,,,,,,,,,,,,,,,,,,,,,,,,,,,,,,,,,,,,,,,,,,,,,,,,,,,,,,,,,,,
,,,,,65cbb33505f664b0a9c1fd1b,6669d216483b4754e2264ff7,6669dba991f47920e1ef29e5,24,Female,English,2024-06-12_10h35.11.242,ABmemTask3,2023.2.3,Win32,59.88023952,,,,,,,,,,,,,,,,,,,,,,,,,,,,,,,268.9873,269.9907,269.9907,11,270.4905,272.1443,0.0004,272.3287,0.1851,0.1828,0.1835,0.1833,0.1852,0.1829,0.1836,0.1841,0.183,,,272.3288,273.181,right,0.8363,,273.181,273.5153,right,0.3173,,16,0,16,273.5154,274.5167,0,7,7,7,1,prac_AB,L1_T1P_T2P,1,1,1,5,6,4,4,10,pants,Did you see the pants,0.18,0,resources/,pics/kangaroo.jpg,pics/safetypin.jpg,pics/salmon.jpg,pics/sandbarshark.jpg,pics/pants.jpg,pics/stapler03a.jpg,pics/sink.jpg,pics/calendar.jpg,pics/butterfly.jpg,pics/fanblades.jpg,blankImage,blankImage,blankImage,blankImage,blankImage,blankImage,blankImage,pants,2,,,,,,,,,,,,,,,,,,,,,,,,,,,,,,,,,,,,,,,,,,,,,,,,,,,,,,,,,,,,,,,,,,,,,,,,,,,,,,,,,,,,,,,,,,,,,,,,,,,,
,,,,,65cbb33505f664b0a9c1fd1b,6669d216483b4754e2264ff7,6669dba991f47920e1ef29e5,24,Female,English,2024-06-12_10h35.11.242,ABmemTask3,2023.2.3,Win32,59.88023952,,,,,,,,,,,,,,,,,,,,,,,,,,,,,,,274.5217,275.519,275.519,10,276.0204,278.3589,0.0005,278.526,0.1668,0.1668,0.1669,0.1676,0.1668,0.1675,0.1672,0.1666,0.1673,0.1673,0.1661,278.5261,279.5955,left,1.053,,279.5955,279.9126,right,0.3011,,18,0,18,279.9126,280.9145,0,8,8,8,1,prac_AB,L5_T1A_T2P,5,0,1,7,12,6,3,15,shirt,Did you see the shirt,0.17,0,resources/,pics/banjo.jpg,pics/chainsaw.jpg,pics/sailboat.jpg,pics/shipinabottle.jpg,pics/lightswitch01.jpg,pics/starfish01.jpg,pics/hen.jpg,pics/ball02.jpg,pics/bowlingpin.jpg,pics/hammerheadshark.jpg,pics/footballhelmet.jpg,pics/stapler10.jpg,pics/laptop01a.jpg,pics/cannon.jpg,pics/golfball.jpg,blankImage,blankImage,shirt02,13,0.1675,0.1666,0.1671,,,,,,,,,,,,,,,,,,,,,,,,,,,,,,,,,,,,,,,,,,,,,,,,,,,,,,,,,,,,,,,,,,,,,,,,,,,,,,,,,,,,,,,,,,,,,,,,,
,,,,,65cbb33505f664b0a9c1fd1b,6669d216483b4754e2264ff7,6669dba991f47920e1ef29e5,24,Female,English,2024-06-12_10h35.11.242,ABmemTask3,2023.2.3,Win32,59.88023952,,,,,,,,,,,,,,,,,,,,,,,,,,,,,,,280.9148,281.9173,281.9173,10,282.418,284.0884,0.0005,284.2556,0.1668,0.1682,0.166,0.1672,0.1667,0.1673,0.1672,0.1672,0.1669,0.1664,,284.2556,285.4755,left,1.2031,,285.4755,285.7931,right,0.302,,18,0,20,285.7931,286.7943,0,9,9,9,1,prac_AB,L1_T1P_T2P,1,1,1,7,8,6,3,11,tongs,Did you see the tongs,0.16,0,resources/,pics/sewingmachine01a.jpg,pics/shovel01.jpg,pics/football.jpg,pics/hen.jpg,pics/banjo.jpg,pics/zebra.jpg,pics/tongs01b.jpg,pics/stapler11.jpg,pics/shipinabottle.jpg,pics/match.jpg,pics/candle01.jpg,blankImage,blankImage,blankImage,blankImage,blankImage,blankImage,tongs01b,5,,,,,,,,,,,,,,,,,,,,,,,,,,,,,,,,,,,,,,,,,,,,,,,,,,,,,,,,,,,,,,,,,,,,,,,,,,,,,,,,,,,,,,,,,,,,,,,,,,,,
,,,,,65cbb33505f664b0a9c1fd1b,6669d216483b4754e2264ff7,6669dba991f47920e1ef29e5,24,Female,English,2024-06-12_10h35.11.242,ABmemTask3,2023.2.3,Win32,59.88023952,,,,,,,,,,,,,,,,,,,,,,,,,,,,,,,286.7996,287.7965,287.7966,9,288.2974,289.9515,0.0005,290.1017,0.1506,0.1504,0.1505,0.15,0.1507,0.1498,0.1506,0.1504,0.15,0.1508,0.1499,290.1017,291.7396,left,1.6213,,291.7396,292.7745,right,1.0186,,16,0,22,292.7745,293.7768,0,10,10,10,1,prac_AB,L1_T1A_T2A,1,0,0,7,8,6,4,12,camera,Did you see the camera,0.15,0,resources/,pics/lightswitch01.jpg,pics/table01.jpg,pics/aquarium.jpg,pics/boot02b.jpg,pics/butterfly.jpg,pics/chainsaw.jpg,pics/binoculars01b.jpg,pics/giraffe.jpg,pics/triangle.jpg,pics/microscope.jpg,pics/mummy.jpg,pics/icecube01.jpg,blankImage,blankImage,blankImage,blankImage,blankImage,camera01a,10,,,,,,,,,,,,,,,,,,,,,,,,,,,,,,,,,,,,,,,,,,,,,,,,,,,,,,,,,,,,,,,,,,,,,,,,,,,,,,,,,,,,,,,,,,,,,,,,,,,,
,,,,,65cbb33505f664b0a9c1fd1b,6669d216483b4754e2264ff7,6669dba991f47920e1ef29e5,24,Female,English,2024-06-12_10h35.11.242,ABmemTask3,2023.2.3,Win32,59.88023952,,,,,,,,,,,,,,,,,,,,,,,,,,,,,,,293.7822,294.7799,294.7799,8,295.2806,296.484,0.0005,296.6165,0.1332,0.1335,0.1336,0.1339,0.1331,0.1346,0.1336,0.1333,0.1342,,,296.6165,297.2352,right,0.6016,,297.2352,297.6696,right,0.4184,,18,0,24,297.6696,298.6712,0,11,11,11,1,prac_AB,L1_T1P_T2P,1,1,1,6,7,5,3,10,shorts,Did you see the shorts,0.14,0,resources/,pics/snowshoe.jpg,pics/chainsaw.jpg,pics/sailboat.jpg,pics/ball02.jpg,pics/candleholder01.jpg,pics/shorts01.jpg,pics/stapler07.jpg,pics/peach01.jpg,pics/proboscismonkey.jpg,pics/hen.jpg,blankImage,blankImage,blankImage,blankImage,blankImage,blankImage,blankImage,shorts01,4,,,,,,,,,,,,,,,,,,,,,,,,,,,,,,,,,,,,,,,,,,,,,,,,,,,,,,,,,,,,,,,,,,,,,,,,,,,,,,,,,,,,,,,,,,,,,,,,,,,,
,,,,,65cbb33505f664b0a9c1fd1b,6669d216483b4754e2264ff7,6669dba991f47920e1ef29e5,24,Female,English,2024-06-12_10h35.11.242,ABmemTask3,2023.2.3,Win32,59.88023952,,,,,,,,,,,,,,,,,,,,,,,,,,,,,,,298.6715,299.6741,299.6742,8,300.1745,301.7785,0.0005,301.912,0.1338,0.1336,0.1342,0.1343,0.133,0.1332,0.134,0.1334,0.1332,0.1337,0.1341,301.912,302.5978,right,0.6694,,302.5978,302.8988,right,0.2849,,16,0,26,302.8988,303.9,0,12,12,12,1,prac_AB,L5_T1P_T2A,5,1,0,5,10,4,3,13,fish,Did you see the fish,0.13,0,resources/,pics/football.jpg,pics/safetypin.jpg,pics/shovel01.jpg,pics/sink.jpg,pics/holdfast.jpg,pics/nutcracker01.jpg,pics/starfish01.jpg,pics/onion.jpg,pics/footballhelmet.jpg,pics/boot02b.jpg,pics/sewingmachine01a.jpg,pics/kangaroo.jpg,pics/banjo.jpg,blankImage,blankImage,blankImage,blankImage,holdfast,14,0.1332,,,,,,,,,,,,,,,,,,,,,,,,,,,,,,,,,,,,,,,,,,,,,,,,,,,,,,,,,,,,,,,,,,,,,,,,,,,,,,,,,,,,,,,,,,,,,,,,,,,
,,,,,65cbb33505f664b0a9c1fd1b,6669d216483b4754e2264ff7,6669dba991f47920e1ef29e5,24,Female,English,2024-06-12_10h35.11.242,ABmemTask3,2023.2.3,Win32,59.88023952,,,,,,,,,,,,,,,,,,,,,,,,,,,,,,,303.9003,304.9027,304.9027,7,305.4037,306.4565,0.0004,306.573,0.1173,0.1165,0.1164,0.1171,0.1169,0.1172,0.1172,0.1164,0.1174,,,306.573,308.7451,right,2.1559,,308.7451,308.8949,left,0.1326,,16,0,28,308.8949,309.8986,0,13,13,13,1,prac_AB,L1_T1P_T2P,1,1,1,5,6,4,4,10,fish,Did you see the fish,0.12,0,resources/,pics/butterfly.jpg,pics/banjo.jpg,pics/leaf02a.jpg,pics/dustpan.jpg,pics/sturgeon.jpg,pics/stapler02.jpg,pics/necklace.jpg,pics/shovel01.jpg,pics/starfish01.jpg,pics/chainsaw.jpg,blankImage,blankImage,blankImage,blankImage,blankImage,blankImage,blankImage,sturgeon,3,,,,,,,,,,,,,,,,,,,,,,,,,,,,,,,,,,,,,,,,,,,,,,,,,,,,,,,,,,,,,,,,,,,,,,,,,,,,,,,,,,,,,,,,,,,,,,,,,,,,
,,,,,65cbb33505f664b0a9c1fd1b,6669d216483b4754e2264ff7,6669dba991f47920e1ef29e5,24,Female,English,2024-06-12_10h35.11.242,ABmemTask3,2023.2.3,Win32,59.88023952,,,,,,,,,,,,,,,,,,,,,,,,,,,,,,,,,,,,,,,,,,,,,,,,,,,,,,,,,,,,,,,,,,,,,,,,,,,,,,,,,,,,,,,,,,,,,,,,,,,,,,,,,,,309.8987,316.5475,space,6.6324,,,,,,,,,,,,,,,,,,,,,,,,,,,,,,,,,,,,,,,,,,,,,,,,,,,,,,,,,,,,,,,,,,,,,,,,,,,,,,,,,,,,,,,,,,,,,
,,,,,65cbb33505f664b0a9c1fd1b,6669d216483b4754e2264ff7,6669dba991f47920e1ef29e5,24,Female,English,2024-06-12_10h35.11.242,ABmemTask3,2023.2.3,Win32,59.88023952,,,,,,,,,,,,,,,,,,,,,,,,,,,,,,,316.5557,317.5475,317.5475,15,318.0493,320.806,0.0005,321.0558,0.2513,0.2496,0.2501,0.2505,0.2512,0.2507,0.2503,0.2509,0.2515,0.2494,0.2508,321.0559,321.8753,right,0.8028,,321.8753,322.3269,left,0.436,,2,0,2,322.3269,323.3284,0,0,0,0,1,prac_AB,L1_T1P_T2A,1,1,0,6,7,5,5,12,cat,Did you see the cat,0.25,0,resources/,pics/shipinabottle.jpg,pics/table01.jpg,pics/dustpan.jpg,pics/golfball.jpg,pics/giraffe.jpg,pics/cat.jpg,pics/peanut01.jpg,pics/pictureframe04.jpg,pics/fanblades.jpg,pics/laptop01a.jpg,pics/ball02.jpg,pics/blender.jpg,blankImage,blankImage,blankImage,blankImage,blankImage,cat,8,,,,,,,,,,,,,,,,,,,,,,,,,,,,,,,,,,,,,,,,,,,,,,,,,,,,,,,,,,,,,,,,,,,,,,,,,,,,,,,,,,,,,,,,,,,,,,,,,,,,
,,,,,65cbb33505f664b0a9c1fd1b,6669d216483b4754e2264ff7,6669dba991f47920e1ef29e5,24,Female,English,2024-06-12_10h35.11.242,ABmemTask3,2023.2.3,Win32,59.88023952,,,,,,,,,,,,,,,,,,,,,,,,,,,,,,,323.3287,324.3308,324.3309,14,324.8321,326.9366,0.0004,327.1704,0.2339,0.2334,0.2339,0.2336,0.2343,0.2333,0.2338,0.2341,0.234,,,327.1705,327.6717,right,0.4846,,327.6718,328.0059,right,0.3182,,4,0,4,328.0059,329.0078,0,1,1,1,1,prac_AB,L1_T1P_T2P,1,1,1,5,6,4,4,10,tree,Did you see the tree,0.24,0,resources/,pics/carrot01.jpg,pics/hammerheadshark.jpg,pics/kangaroo.jpg,pics/proboscismonkey.jpg,pics/tree.jpg,pics/stapler07.jpg,pics/siamesecat.jpg,pics/ball02.jpg,pics/pictureframe04.jpg,pics/mummy.jpg,blankImage,blankImage,blankImage,blankImage,blankImage,blankImage,blankImage,tree,1,,,,,,,,,,,,,,,,,,,,,,,,,,,,,,,,,,,,,,,,,,,,,,,,,,,,,,,,,,,,,,,,,,,,,,,,,,,,,,,,,,,,,,,,,,,,,,,,,,,,
,,,,,65cbb33505f664b0a9c1fd1b,6669d216483b4754e2264ff7,6669dba991f47920e1ef29e5,24,Female,English,2024-06-12_10h35.11.242,ABmemTask3,2023.2.3,Win32,59.88023952,,,,,,,,,,,,,,,,,,,,,,,,,,,,,,,329.0081,330.0103,330.0103,14,330.511,333.0843,0.0006,333.3175,0.2347,0.2328,0.2338,0.2348,0.2328,0.2342,0.2353,0.2322,0.2341,0.2354,0.2327,333.3176,334.6554,left,1.3213,,334.6554,335.0391,right,0.3682,,6,0,6,335.0392,336.0401,0,2,2,2,1,prac_AB,L1_T1A_T2P,1,0,1,7,8,6,4,12,grapes,Did you see the grapes,0.23,0,resources/,pics/sailboat.jpg,pics/butterfly.jpg,pics/giraffe.jpg,pics/spoon01.jpg,pics/hose.jpg,pics/nutcracker01.jpg,pics/table01.jpg,pics/stapler13.jpg,pics/pencil01.jpg,pics/football.jpg,pics/triangle.jpg,pics/hairdryer02a.jpg,blankImage,blankImage,blankImage,blankImage,blankImage,grape01,6,,,,,,,,,,,,,,,,,,,,,,,,,,,,,,,,,,,,,,,,,,,,,,,,,,,,,,,,,,,,,,,,,,,,,,,,,,,,,,,,,,,,,,,,,,,,,,,,,,,,
,,,,,65cbb33505f664b0a9c1fd1b,6669d216483b4754e2264ff7,6669dba991f47920e1ef29e5,24,Female,English,2024-06-12_10h35.11.242,ABmemTask3,2023.2.3,Win32,59.88023952,,,,,,,,,,,,,,,,,,,,,,,,,,,,,,,336.0405,337.0432,337.0432,13,337.5433,340.5838,0.0005,340.8004,0.2179,0.2167,0.2171,0.2169,0.2173,0.217,0.2173,0.217,0.2182,0.2164,0.2173,340.8005,341.4698,right,0.6523,,341.4699,341.8203,right,0.3347,,8,0,8,341.8204,342.8224,0,3,3,3,1,prac_AB,L5_T1P_T2P,5,1,1,7,12,6,3,15,Human skull,Did you see the Human skull,0.22,0,resources/,pics/peach01.jpg,pics/proboscismonkey.jpg,pics/hose.jpg,pics/laptop01a.jpg,pics/hammerheadshark.jpg,pics/nutcracker01.jpg,pics/humanskull.jpg,pics/table01.jpg,pics/icecube01.jpg,pics/boot02b.jpg,pics/calendar.jpg,pics/stapler03a.jpg,pics/ashtray01.jpg,pics/giraffe.jpg,pics/dromedary.jpg,blankImage,blankImage,humanskull,12,0.2167,0.2176,0.2168,,,,,,,,,,,,,,,,,,,,,,,,,,,,,,,,,,,,,,,,,,,,,,,,,,,,,,,,,,,,,,,,,,,,,,,,,,,,,,,,,,,,,,,,,,,,,,,,,
,,,,,65cbb33505f664b0a9c1fd1b,6669d216483b4754e2264ff7,6669dba991f47920e1ef29e5,24,Female,English,2024-06-12_10h35.11.242,ABmemTask3,2023.2.3,Win32,59.88023952,,,,,,,,,,,,,,,,,,,,,,,,,,,,,,,342.8281,343.8318,343.8318,13,344.3326,346.5034,0.0006,346.7209,0.2265,0.2082,0.2264,0.2077,0.2166,0.2178,0.2161,0.2174,0.2274,0.2062,,346.7209,347.6398,left,0.8858,,347.6398,347.9844,right,0.3183,,10,0,10,347.9844,348.9761,0,4,4,4,1,prac_AB,L1_T1A_T2P,1,0,1,7,8,6,3,11,dog,Did you see the dog,0.21,0,resources/,pics/ball02.jpg,pics/binder03b.jpg,pics/dromedary.jpg,pics/shipinabottle.jpg,pics/proboscismonkey.jpg,pics/laptop01a.jpg,pics/chainsaw.jpg,pics/stapler13.jpg,pics/nutcracker01.jpg,pics/carrot01.jpg,pics/calendar.jpg,blankImage,blankImage,blankImage,blankImage,blankImage,blankImage,saintbernard,7,,,,,,,,,,,,,,,,,,,,,,,,,,,,,,,,,,,,,,,,,,,,,,,,,,,,,,,,,,,,,,,,,,,,,,,,,,,,,,,,,,,,,,,,,,,,,,,,,,,,
,,,,,65cbb33505f664b0a9c1fd1b,6669d216483b4754e2264ff7,6669dba991f47920e1ef29e5,24,Female,English,2024-06-12_10h35.11.242,ABmemTask3,2023.2.3,Win32,59.88023952,,,,,,,,,,,,,,,,,,,,,,,,,,,,,,,348.983,349.9723,349.9724,12,350.462,353.2666,0.0006,353.4676,0.2002,0.2004,0.2005,0.2,0.1995,0.2005,0.2006,0.2006,0.2017,0.1989,0.2007,353.4676,354.0351,right,0.5339,,354.0352,354.3823,right,0.3181,,12,0,12,354.3824,355.3717,0,5,5,5,1,prac_AB,L5_T1P_T2P,5,1,1,5,10,4,5,15,grater,Did you see the grater,0.2,0,resources/,pics/pencil01.jpg,pics/laptop01a.jpg,pics/hammerheadshark.jpg,pics/cork02.jpg,pics/grater01a.jpg,pics/shipinabottle.jpg,pics/binder03b.jpg,pics/dromedary.jpg,pics/pictureframe04.jpg,pics/stapler04b.jpg,pics/fanblades.jpg,pics/aquarium.jpg,pics/hairdryer02a.jpg,pics/lightswitch01.jpg,pics/piggybank.jpg,blankImage,blankImage,grater01a,11,0.1999,0.2,0.2004,,,,,,,,,,,,,,,,,,,,,,,,,,,,,,,,,,,,,,,,,,,,,,,,,,,,,,,,,,,,,,,,,,,,,,,,,,,,,,,,,,,,,,,,,,,,,,,,,
,,,,,65cbb33505f664b0a9c1fd1b,6669d216483b4754e2264ff7,6669dba991f47920e1ef29e5,24,Female,English,2024-06-12_10h35.11.242,ABmemTask3,2023.2.3,Win32,59.88023952,,,,,,,,,,,,,,,,,,,,,,,,,,,,,,,355.372,356.3866,356.3866,11,356.8748,358.3444,0.0007,358.5279,0.1862,0.1939,0.17,0.1838,0.1963,0.1851,0.1689,0.1847,,,,358.5279,359.662,left,1.1034,,359.662,360.0311,right,0.3508,,8,0,14,360.0311,361.0327,0,6,6,6,1,prac_AB,L1_T1P_T2A,1,1,0,4,5,3,4,9,chalk,Did you see the chalk,0.19,0,resources/,pics/necklace.jpg,pics/starfish01.jpg,pics/safetypin.jpg,pics/chalk.jpg,pics/candleholder01.jpg,pics/bowtie.jpg,pics/match.jpg,pics/candle01.jpg,pics/pencilsharpener02a.jpg,blankImage,blankImage,blankImage,blankImage,blankImage,blankImage,blankImage,blankImage,chalk,9,,,,,,,,,,,,,,,,,,,,,,,,,,,,,,,,,,,,,,,,,,,,,,,,,,,,,,,,,,,,,,,,,,,,,,,,,,,,,,,,,,,,,,,,,,,,,,,,,,,,
,,,,,65cbb33505f664b0a9c1fd1b,6669d216483b4754e2264ff7,6669dba991f47920e1ef29e5,24,Female,English,2024-06-12_10h35.11.242,ABmemTask3,2023.2.3,Win32,59.88023952,,,,,,,,,,,,,,,,,,,,,,,,,,,,,,,361.0383,362.0339,362.0339,11,362.5351,364.1881,0.0004,364.3715,0.1837,0.1839,0.1829,0.1852,0.1836,0.1823,0.1836,0.1847,0.1829,,,364.3715,365.1575,right,0.7695,,365.1575,365.4743,left,0.3014,,8,0,16,365.4743,366.4768,0,7,7,7,1,prac_AB,L1_T1P_T2P,1,1,1,5,6,4,4,10,pants,Did you see the pants,0.18,0,resources/,pics/kangaroo.jpg,pics/safetypin.jpg,pics/salmon.jpg,pics/sandbarshark.jpg,pics/pants.jpg,pics/stapler03a.jpg,pics/sink.jpg,pics/calendar.jpg,pics/butterfly.jpg,pics/fanblades.jpg,blankImage,blankImage,blankImage,blankImage,blankImage,blankImage,blankImage,pants,2,,,,,,,,,,,,,,,,,,,,,,,,,,,,,,,,,,,,,,,,,,,,,,,,,,,,,,,,,,,,,,,,,,,,,,,,,,,,,,,,,,,,,,,,,,,,,,,,,,,,
,,,,,65cbb33505f664b0a9c1fd1b,6669d216483b4754e2264ff7,6669dba991f47920e1ef29e5,24,Female,English,2024-06-12_10h35.11.242,ABmemTask3,2023.2.3,Win32,59.88023952,,,,,,,,,,,,,,,,,,,,,,,,,,,,,,,366.477,367.4781,367.4781,10,367.9802,370.3194,0.0005,370.4852,0.166,0.1684,0.1661,0.1665,0.1672,0.1689,0.1655,0.1667,0.1674,0.1684,0.1653,370.4853,371.5551,left,1.0534,,371.5552,371.872,right,0.301,,10,0,18,371.872,372.8744,0,8,8,8,1,prac_AB,L5_T1A_T2P,5,0,1,7,12,6,3,15,shirt,Did you see the shirt,0.17,0,resources/,pics/banjo.jpg,pics/chainsaw.jpg,pics/sailboat.jpg,pics/shipinabottle.jpg,pics/lightswitch01.jpg,pics/starfish01.jpg,pics/hen.jpg,pics/ball02.jpg,pics/bowlingpin.jpg,pics/hammerheadshark.jpg,pics/footballhelmet.jpg,pics/stapler10.jpg,pics/laptop01a.jpg,pics/cannon.jpg,pics/golfball.jpg,blankImage,blankImage,shirt02,13,0.1668,0.1677,0.1677,,,,,,,,,,,,,,,,,,,,,,,,,,,,,,,,,,,,,,,,,,,,,,,,,,,,,,,,,,,,,,,,,,,,,,,,,,,,,,,,,,,,,,,,,,,,,,,,,
,,,,,65cbb33505f664b0a9c1fd1b,6669d216483b4754e2264ff7,6669dba991f47920e1ef29e5,24,Female,English,2024-06-12_10h35.11.242,ABmemTask3,2023.2.3,Win32,59.88023952,,,,,,,,,,,,,,,,,,,,,,,,,,,,,,,372.8803,373.8762,373.8762,10,374.3782,376.0486,0.0004,376.2153,0.1672,0.1668,0.1671,0.1664,0.1676,0.1667,0.1676,0.1678,0.166,0.1669,,376.2154,376.8508,right,0.6189,,376.8508,377.0847,right,0.2176,,12,0,20,377.0847,378.0868,0,9,9,9,1,prac_AB,L1_T1P_T2P,1,1,1,7,8,6,3,11,tongs,Did you see the tongs,0.16,0,resources/,pics/sewingmachine01a.jpg,pics/shovel01.jpg,pics/football.jpg,pics/hen.jpg,pics/banjo.jpg,pics/zebra.jpg,pics/tongs01b.jpg,pics/stapler11.jpg,pics/shipinabottle.jpg,pics/match.jpg,pics/candle01.jpg,blankImage,blankImage,blankImage,blankImage,blankImage,blankImage,tongs01b,5,,,,,,,,,,,,,,,,,,,,,,,,,,,,,,,,,,,,,,,,,,,,,,,,,,,,,,,,,,,,,,,,,,,,,,,,,,,,,,,,,,,,,,,,,,,,,,,,,,,,
,,,,,65cbb33505f664b0a9c1fd1b,6669d216483b4754e2264ff7,6669dba991f47920e1ef29e5,24,Female,English,2024-06-12_10h35.11.242,ABmemTask3,2023.2.3,Win32,59.88023952,,,,,,,,,,,,,,,,,,,,,,,,,,,,,,,378.0871,379.0888,379.0888,9,379.5902,381.2433,0.0005,381.3939,0.1506,0.1494,0.1502,0.1509,0.1502,0.1496,0.1515,0.1508,0.1494,0.1509,0.1492,381.3939,382.3799,left,0.9698,,382.3799,382.6806,left,0.2848,,14,0,22,382.6807,383.682,0,10,10,10,1,prac_AB,L1_T1A_T2A,1,0,0,7,8,6,4,12,camera,Did you see the camera,0.15,0,resources/,pics/lightswitch01.jpg,pics/table01.jpg,pics/aquarium.jpg,pics/boot02b.jpg,pics/butterfly.jpg,pics/chainsaw.jpg,pics/binoculars01b.jpg,pics/giraffe.jpg,pics/triangle.jpg,pics/microscope.jpg,pics/mummy.jpg,pics/icecube01.jpg,blankImage,blankImage,blankImage,blankImage,blankImage,camera01a,10,,,,,,,,,,,,,,,,,,,,,,,,,,,,,,,,,,,,,,,,,,,,,,,,,,,,,,,,,,,,,,,,,,,,,,,,,,,,,,,,,,,,,,,,,,,,,,,,,,,,
,,,,,65cbb33505f664b0a9c1fd1b,6669d216483b4754e2264ff7,6669dba991f47920e1ef29e5,24,Female,English,2024-06-12_10h35.11.242,ABmemTask3,2023.2.3,Win32,59.88023952,,,,,,,,,,,,,,,,,,,,,,,,,,,,,,,383.6823,384.6847,384.6847,8,385.1855,386.3893,0.0006,386.5221,0.1339,0.1328,0.1344,0.133,0.1339,0.134,0.1332,0.1349,0.133,,,386.5221,387.0067,right,0.4683,,387.0067,387.2071,right,0.184,,16,0,24,387.2071,388.2096,0,11,11,11,1,prac_AB,L1_T1P_T2P,1,1,1,6,7,5,3,10,shorts,Did you see the shorts,0.14,0,resources/,pics/snowshoe.jpg,pics/chainsaw.jpg,pics/sailboat.jpg,pics/ball02.jpg,pics/candleholder01.jpg,pics/shorts01.jpg,pics/stapler07.jpg,pics/peach01.jpg,pics/proboscismonkey.jpg,pics/hen.jpg,blankImage,blankImage,blankImage,blankImage,blankImage,blankImage,blankImage,shorts01,4,,,,,,,,,,,,,,,,,,,,,,,,,,,,,,,,,,,,,,,,,,,,,,,,,,,,,,,,,,,,,,,,,,,,,,,,,,,,,,,,,,,,,,,,,,,,,,,,,,,,
,,,,,65cbb33505f664b0a9c1fd1b,6669d216483b4754e2264ff7,6669dba991f47920e1ef29e5,24,Female,English,2024-06-12_10h35.11.242,ABmemTask3,2023.2.3,Win32,59.88023952,,,,,,,,,,,,,,,,,,,,,,,,,,,,,,,388.21,389.2112,389.2113,8,389.7131,391.3165,0.0005,391.4503,0.1324,0.1343,0.1331,0.134,0.1337,0.1334,0.1338,0.1335,0.1335,0.1339,0.1339,391.4503,392.619,right,1.1519,,392.619,393.0038,left,0.3684,,18,0,26,393.0038,394.0054,0,12,12,12,1,prac_AB,L5_T1P_T2A,5,1,0,5,10,4,3,13,fish,Did you see the fish,0.13,0,resources/,pics/football.jpg,pics/safetypin.jpg,pics/shovel01.jpg,pics/sink.jpg,pics/holdfast.jpg,pics/nutcracker01.jpg,pics/starfish01.jpg,pics/onion.jpg,pics/footballhelmet.jpg,pics/boot02b.jpg,pics/sewingmachine01a.jpg,pics/kangaroo.jpg,pics/banjo.jpg,blankImage,blankImage,blankImage,blankImage,holdfast,14,0.1334,,,,,,,,,,,,,,,,,,,,,,,,,,,,,,,,,,,,,,,,,,,,,,,,,,,,,,,,,,,,,,,,,,,,,,,,,,,,,,,,,,,,,,,,,,,,,,,,,,,
,,,,,65cbb33505f664b0a9c1fd1b,6669d216483b4754e2264ff7,6669dba991f47920e1ef29e5,24,Female,English,2024-06-12_10h35.11.242,ABmemTask3,2023.2.3,Win32,59.88023952,,,,,,,,,,,,,,,,,,,,,,,,,,,,,,,394.0057,395.0077,395.0077,7,395.5089,396.5622,0.0005,396.6781,0.1173,0.1166,0.1169,0.1167,0.1174,0.1166,0.117,0.1166,0.1177,,,396.6782,397.1809,right,0.4859,,397.1809,397.4145,right,0.2186,,20,0,28,397.4146,398.4164,0,13,13,13,1,prac_AB,L1_T1P_T2P,1,1,1,5,6,4,4,10,fish,Did you see the fish,0.12,0,resources/,pics/butterfly.jpg,pics/banjo.jpg,pics/leaf02a.jpg,pics/dustpan.jpg,pics/sturgeon.jpg,pics/stapler02.jpg,pics/necklace.jpg,pics/shovel01.jpg,pics/starfish01.jpg,pics/chainsaw.jpg,blankImage,blankImage,blankImage,blankImage,blankImage,blankImage,blankImage,sturgeon,3,,,,,,,,,,,,,,,,,,,,,,,,,,,,,,,,,,,,,,,,,,,,,,,,,,,,,,,,,,,,,,,,,,,,,,,,,,,,,,,,,,,,,,,,,,,,,,,,,,,,
,,,,,65cbb33505f664b0a9c1fd1b,6669d216483b4754e2264ff7,6669dba991f47920e1ef29e5,24,Female,English,2024-06-12_10h35.11.242,ABmemTask3,2023.2.3,Win32,59.88023952,,,,,,,,,,,,,,,,,,,,,,,,,,,,,,,,,,,,,,,,,,,,,,,,,,,,,,,,,,,,,,,,,,,,,,,,,,,,,,,,,,,,,,,,,,,,,,,,,,,,,,,,,,,398.4165,401.8738,space,3.4403,,,,,,,,,,,,,,,,,,,,,,,,,,,,,,,,,,,,,,,,,,,,,,,,,,,,,,,,,,,,,,,,,,,,,,,,,,,,,,,,,,,,,,,,,,,,,
,,,,,65cbb33505f664b0a9c1fd1b,6669d216483b4754e2264ff7,6669dba991f47920e1ef29e5,24,Female,English,2024-06-12_10h35.11.242,ABmemTask3,2023.2.3,Win32,59.88023952,,,,,,,,,,,,,,,,,,,,,,,,,,,,,,,,,,,,,,,,,,,,,,,,,,,,,,,,,,,,,,,,,,,,,,,,,,,,,,,,,,,,,,,,,,,,,,,,,,,,,,,,,,,401.8805,401.8818,,,,,,,,,,,,,,,,,,,,,,,,,,,,,,,,,,,,,,,,,,,,,,,,,,,,,,,,,,,,,,,,,,,,,,,,,,,,,,,,,,,,,,,,,,,,,,,
,,,,,65cbb33505f664b0a9c1fd1b,6669d216483b4754e2264ff7,6669dba991f47920e1ef29e5,24,Female,English,2024-06-12_10h35.11.242,ABmemTask3,2023.2.3,Win32,59.88023952,,,,,,,,,,,,,,,,,,,,,,,,,,,,,,,,,,,,,,,,,,,,,,,,,,,,,,,,,,,,,,,,,,,,,,,,,,,,,,,,,,,,,,,,,,,,,,,,,,,,,,,,,,,401.8838,401.8841,,,,,,,,,,,,,,,,,,,,,,,,,,,,,,,,,,,,,,,,,,,,,,,,,,,,,,,,,,,,,,,,,,,,,,,,,,,,,,,,,,,,,,,,,,,,,,,
,,,,,65cbb33505f664b0a9c1fd1b,6669d216483b4754e2264ff7,6669dba991f47920e1ef29e5,24,Female,English,2024-06-12_10h35.11.242,ABmemTask3,2023.2.3,Win32,59.88023952,,,,,,,,,,,,,,,,,,,,,,,,,,,,,,,,,,,,,,,,,,,,,,,,,,,,,,,,,,,,,,,,,,,,,,,,,,,,,,,,,,,,,,,,,,,,,,,,,,,,,,,,,,,401.8863,401.8864,,,,,,,,,,,,,,,,,,,,,,,,,,,,,,,,,,,,,,,,,,,,,,,,,,,,,,,,,,,,,,,,,,,,,,,,,,,,,,,,,,,,,,,,,,,,,,,
,,,,,65cbb33505f664b0a9c1fd1b,6669d216483b4754e2264ff7,6669dba991f47920e1ef29e5,24,Female,English,2024-06-12_10h35.11.242,ABmemTask3,2023.2.3,Win32,59.88023952,,,,,,,,,,,,,,,,,,,,,,,,,,,,,,,,,,,,,,,,,,,,,,,,,,,,,,,,,,,,,,,,,,,,,,,,,,,,,,,,,,,,,,,,,,,,,,,,,,,,,,,,,,,401.8871,401.8871,,,,,,,,,,,,,,,,,,,,,,,,,,,,,,,,,,,,,,,,,,,,,,,,,,,,,,,,,,,,,,,,,,,,,,,,,,,,,,,,,,,,,,,,,,,,,,,
,,,,,65cbb33505f664b0a9c1fd1b,6669d216483b4754e2264ff7,6669dba991f47920e1ef29e5,24,Female,English,2024-06-12_10h35.11.242,ABmemTask3,2023.2.3,Win32,59.88023952,,,,,,,,,,,,,,,,,,,,,,,,,,,,,,,,,,,,,,,,,,,,,,,,,,,,,,,,,,,,,,,,,,,,,,,,,,,,,,,,,,,,,,,,,,,,,,,,,,,,,,,,,,,401.888,401.888,,,,,,,,,,,,,,,,,,,,,,,,,,,,,,,,,,,,,,,,,,,,,,,,,,,,,,,,,,,,,,,,,,,,,,,,,,,,,,,,,,,,,,,,,,,,,,,
,,,,,65cbb33505f664b0a9c1fd1b,6669d216483b4754e2264ff7,6669dba991f47920e1ef29e5,24,Female,English,2024-06-12_10h35.11.242,ABmemTask3,2023.2.3,Win32,59.88023952,,,,,,,,,,,,,,,,,,,,,,,,,,,,,,,,,,,,,,,,,,,,,,,,,,,,,,,,,,,,,,,,,,,,,,,,,,,,,,,,,,,,,,,,,,,,,,,,,,,,,,,,,,,401.8887,401.8887,,,,,,,,,,,,,,,,,,,,,,,,,,,,,,,,,,,,,,,,,,,,,,,,,,,,,,,,,,,,,,,,,,,,,,,,,,,,,,,,,,,,,,,,,,,,,,,
,,,,,65cbb33505f664b0a9c1fd1b,6669d216483b4754e2264ff7,6669dba991f47920e1ef29e5,24,Female,English,2024-06-12_10h35.11.242,ABmemTask3,2023.2.3,Win32,59.88023952,,,,,,,,,,,,,,,,,,,,,,,,,,,,,,,,,,,,,,,,,,,,,,,,,,,,,,,,,,,,,,,,,,,,,,,,,,,,,,,,,,,,,,,,,,,,,,,,,,,,,,,,,,,401.8898,401.8898,,,,,,,,,,,,,,,,,,,,,,,,,,,,,,,,,,,,,,,,,,,,,,,,,,,,,,,,,,,,,,,,,,,,,,,,,,,,,,,,,,,,,,,,,,,,,,,
,,,,,65cbb33505f664b0a9c1fd1b,6669d216483b4754e2264ff7,6669dba991f47920e1ef29e5,24,Female,English,2024-06-12_10h35.11.242,ABmemTask3,2023.2.3,Win32,59.88023952,,,,,,,,,,,,,,,,,,,,,,,,,,,,,,,,,,,,,,,,,,,,,,,,,,,,,,,,,,,,,,,,,,,,,,,,,,,,,,,,,,,,,,,,,,,,,,,,,,,,,,,,,,,401.8904,401.8904,,,,,,,,,,,,,,,,,,,,,,,,,,,,,,,,,,,,,,,,,,,,,,,,,,,,,,,,,,,,,,,,,,,,,,,,,,,,,,,,,,,,,,,,,,,,,,,
,,,,,65cbb33505f664b0a9c1fd1b,6669d216483b4754e2264ff7,6669dba991f47920e1ef29e5,24,Female,English,2024-06-12_10h35.11.242,ABmemTask3,2023.2.3,Win32,59.88023952,,,,,,,,,,,,,,,,,,,,,,,,,,,,,,,,,,,,,,,,,,,,,,,,,,,,,,,,,,,,,,,,,,,,,,,,,,,,,,,,,,,,,,,,,,,,,,,,,,,,,,,,,,,401.891,401.891,,,,,,,,,,,,,,,,,,,,,,,,,,,,,,,,,,,,,,,,,,,,,,,,,,,,,,,,,,,,,,,,,,,,,,,,,,,,,,,,,,,,,,,,,,,,,,,
,,,,,65cbb33505f664b0a9c1fd1b,6669d216483b4754e2264ff7,6669dba991f47920e1ef29e5,24,Female,English,2024-06-12_10h35.11.242,ABmemTask3,2023.2.3,Win32,59.88023952,,,,,,,,,,,,,,,,,,,,,,,,,,,,,,,,,,,,,,,,,,,,,,,,,,,,,,,,,,,,,,,,,,,,,,,,,,,,,,,,,,,,,,,,,,,,,,,,,,,,,,,,,,,401.8919,401.8919,,,,,,,,,,,,,,,,,,,,,,,,,,,,,,,,,,,,,,,,,,,,,,,,,,,,,,,,,,,,,,,,,,,,,,,,,,,,,,,,,,,,,,,,,,,,,,,
,,,,,65cbb33505f664b0a9c1fd1b,6669d216483b4754e2264ff7,6669dba991f47920e1ef29e5,24,Female,English,2024-06-12_10h35.11.242,ABmemTask3,2023.2.3,Win32,59.88023952,,,,,,,,,,,,,,,,,,,,,,,,,,,,,,,,,,,,,,,,,,,,,,,,,,,,,,,,,,,,,,,,,,,,,,,,,,,,,,,,,,,,,,,,,,,,,,,,,,,,,,,,,,,401.8926,401.8926,,,,,,,,,,,,,,,,,,,,,,,,,,,,,,,,,,,,,,,,,,,,,,,,,,,,,,,,,,,,,,,,,,,,,,,,,,,,,,,,,,,,,,,,,,,,,,,
,,,,,65cbb33505f664b0a9c1fd1b,6669d216483b4754e2264ff7,6669dba991f47920e1ef29e5,24,Female,English,2024-06-12_10h35.11.242,ABmemTask3,2023.2.3,Win32,59.88023952,,,,,,,,,,,,,,,,,,,,,,,,,,,,,,,,,,,,,,,,,,,,,,,,,,,,,,,,,,,,,,,,,,,,,,,,,,,,,,,,,,,,,,,,,,,,,,,,,,,,,,,,,,,401.8932,401.8932,,,,,,,,,,,,,,,,,,,,,,,,,,,,,,,,,,,,,,,,,,,,,,,,,,,,,,,,,,,,,,,,,,,,,,,,,,,,,,,,,,,,,,,,,,,,,,,
,,,,,65cbb33505f664b0a9c1fd1b,6669d216483b4754e2264ff7,6669dba991f47920e1ef29e5,24,Female,English,2024-06-12_10h35.11.242,ABmemTask3,2023.2.3,Win32,59.88023952,,,,,,,,,,,,,,,,,,,,,,,,,,,,,,,,,,,,,,,,,,,,,,,,,,,,,,,,,,,,,,,,,,,,,,,,,,,,,,,,,,,,,,,,,,,,,,,,,,,,,,,,,,,401.8939,401.8941,,,,,,,,,,,,,,,,,,,,,,,,,,,,,,,,,,,,,,,,,,,,,,,,,,,,,,,,,,,,,,,,,,,,,,,,,,,,,,,,,,,,,,,,,,,,,,,
,,,,,65cbb33505f664b0a9c1fd1b,6669d216483b4754e2264ff7,6669dba991f47920e1ef29e5,24,Female,English,2024-06-12_10h35.11.242,ABmemTask3,2023.2.3,Win32,59.88023952,,,,,,,,,,,,,,,,,,,,,,,,,,,,,,,,,,,,,,,,,,,,,,,,,,,,,,,,,,,,,,,,,,,,,,,,,,,,,,,,,,,,,,,,,,,,,,,,,,,,,,,,,,,401.8968,401.8969,,,,,,,,,,,,,,,,,,,,,,,,,,,,,,,,,,,,,,,,,,,,,,,,,,,,,,,,,,,,,,,,,,,,,,,,,,,,,,,,,,,,,,,,,,,,,,,
,,,,,65cbb33505f664b0a9c1fd1b,6669d216483b4754e2264ff7,6669dba991f47920e1ef29e5,24,Female,English,2024-06-12_10h35.11.242,ABmemTask3,2023.2.3,Win32,59.88023952,,,,,,,,,,,,,,,,,,,,,,,,,,,,,,,,,,,,,,,,,,,,,,,,,,,,,,,,,,,,,,,,,,,,,,,,,,,,,,,,,,,,,,,,,,,,,,,,,,,,,,,,,,,401.8985,401.8985,,,,,,,,,,,,,,,,,,,,,,,,,,,,,,,,,,,,,,,,,,,,,,,,,,,,,,,,,,,,,,,,,,,,,,,,,,,,,,,,,,,,,,,,,,,,,,,
,,,,,65cbb33505f664b0a9c1fd1b,6669d216483b4754e2264ff7,6669dba991f47920e1ef29e5,24,Female,English,2024-06-12_10h35.11.242,ABmemTask3,2023.2.3,Win32,59.88023952,,,,,,,,,,,,,,,,,,,,,,,,,,,,,,,,,,,,,,,,,,,,,,,,,,,,,,,,,,,,,,,,,,,,,,,,,,,,,,,,,,,,,,,,,,,,,,,,,,,,,,,,,,,401.9025,401.9027,,,,,,,,,,,,,,,,,,,,,,,,,,,,,,,,,,,,,,,,,,,,,,,,,,,,,,,,,,,,,,,,,,,,,,,,,,,,,,,,,,,,,,,,,,,,,,,
,,,,,65cbb33505f664b0a9c1fd1b,6669d216483b4754e2264ff7,6669dba991f47920e1ef29e5,24,Female,English,2024-06-12_10h35.11.242,ABmemTask3,2023.2.3,Win32,59.88023952,,,,,,,,,,,,,,,,,,,,,,,,,,,,,,,,,,,,,,,,,,,,,,,,,,,,,,,,,,,,,,,,,,,,,,,,,,,,,,,,,,,,,,,,,,,,,,,,,,,,,,,,,,,401.9055,401.9056,,,,,,,,,,,,,,,,,,,,,,,,,,,,,,,,,,,,,,,,,,,,,,,,,,,,,,,,,,,,,,,,,,,,,,,,,,,,,,,,,,,,,,,,,,,,,,,
,,,,,65cbb33505f664b0a9c1fd1b,6669d216483b4754e2264ff7,6669dba991f47920e1ef29e5,24,Female,English,2024-06-12_10h35.11.242,ABmemTask3,2023.2.3,Win32,59.88023952,,,,,,,,,,,,,,,,,,,,,,,,,,,,,,,,,,,,,,,,,,,,,,,,,,,,,,,,,,,,,,,,,,,,,,,,,,,,,,,,,,,,,,,,,,,,,,,,,,,,,,,,,,,401.9065,401.9065,,,,,,,,,,,,,,,,,,,,,,,,,,,,,,,,,,,,,,,,,,,,,,,,,,,,,,,,,,,,,,,,,,,,,,,,,,,,,,,,,,,,,,,,,,,,,,,
,,,,,65cbb33505f664b0a9c1fd1b,6669d216483b4754e2264ff7,6669dba991f47920e1ef29e5,24,Female,English,2024-06-12_10h35.11.242,ABmemTask3,2023.2.3,Win32,59.88023952,,,,,,,,,,,,,,,,,,,,,,,,,,,,,,,,,,,,,,,,,,,,,,,,,,,,,,,,,,,,,,,,,,,,,,,,,,,,,,,,,,,,,,,,,,,,,,,,,,,,,,,,,,,401.9073,401.9073,,,,,,,,,,,,,,,,,,,,,,,,,,,,,,,,,,,,,,,,,,,,,,,,,,,,,,,,,,,,,,,,,,,,,,,,,,,,,,,,,,,,,,,,,,,,,,,
,,,,,65cbb33505f664b0a9c1fd1b,6669d216483b4754e2264ff7,6669dba991f47920e1ef29e5,24,Female,English,2024-06-12_10h35.11.242,ABmemTask3,2023.2.3,Win32,59.88023952,,,,,,,,,,,,,,,,,,,,,,,,,,,,,,,,,,,,,,,,,,,,,,,,,,,,,,,,,,,,,,,,,,,,,,,,,,,,,,,,,,,,,,,,,,,,,,,,,,,,,,,,,,,,,,,,401.9077,433.976,space,32.0493,,,,,,,,,,,,,,,,,,,,,,,,,,,,,,,,,,,,,,,,,,,,,,,,,,,,,,,,,,,,,,,,,,,,,,,,,,,,,,,,,,,,,,,,
,,,,,65cbb33505f664b0a9c1fd1b,6669d216483b4754e2264ff7,6669dba991f47920e1ef29e5,24,Female,English,2024-06-12_10h35.11.242,ABmemTask3,2023.2.3,Win32,59.88023952,,,,,,,,,,,,,,,,,,,,,,,,,,,,,,,,,433.9828,599,434.4768,,,,,,,,,,,,,,,,,,,,,,,,,,0,,,,,,,,,prac_MEM,old,,,,,,,,,,,10,,,,,,,,,,,,,,,,,,,,,,,,,,,,,,,,,,,434.4769,439.6364,3,6,5.1283,,439.6381,440.6275,0,0,0,4,1,5,1,pics/tongs01b.jpg,,,,,,,,,,,,,,,,,,,,,,,,,,,,,,,,,,,,,,,,,,,,,,,,,,,,,,,,,,,,,,,,,,,,,,,
,,,,,65cbb33505f664b0a9c1fd1b,6669d216483b4754e2264ff7,6669dba991f47920e1ef29e5,24,Female,English,2024-06-12_10h35.11.242,ABmemTask3,2023.2.3,Win32,59.88023952,,,,,,,,,,,,,,,,,,,,,,,,,,,,,,,,,440.6359,599,441.1245,,,,,,,,,,,,,,,,,,,,,,,,,,0,,,,,,,,,prac_MEM,new,,,,,,,,,,,10,,,,,,,,,,,,,,,,,,,,,,,,,,,,,,,,,,,441.1249,442.7921,-6,6,1.6364,,442.7922,443.794,0,1,1,10,1,999,999,pics/tomato01.jpg,,,,,,,,,,,,,,,,,,,,,,,,,,,,,,,,,,,,,,,,,,,,,,,,,,,,,,,,,,,,,,,,,,,,,,,
,,,,,65cbb33505f664b0a9c1fd1b,6669d216483b4754e2264ff7,6669dba991f47920e1ef29e5,24,Female,English,2024-06-12_10h35.11.242,ABmemTask3,2023.2.3,Win32,59.88023952,,,,,,,,,,,,,,,,,,,,,,,,,,,,,,,,,443.7942,599,444.2944,,,,,,,,,,,,,,,,,,,,,,,,,,0,,,,,,,,,prac_MEM,old,,,,,,,,,,,10,,,,,,,,,,,,,,,,,,,,,,,,,,,,,,,,,,,444.2944,446.7158,-3,6,2.3887,,446.7163,447.7188,0,2,2,3,1,4,1,pics/shorts01.jpg,,,,,,,,,,,,,,,,,,,,,,,,,,,,,,,,,,,,,,,,,,,,,,,,,,,,,,,,,,,,,,,,,,,,,,,
,,,,,65cbb33505f664b0a9c1fd1b,6669d216483b4754e2264ff7,6669dba991f47920e1ef29e5,24,Female,English,2024-06-12_10h35.11.242,ABmemTask3,2023.2.3,Win32,59.88023952,,,,,,,,,,,,,,,,,,,,,,,,,,,,,,,,,447.7191,599,448.2187,,,,,,,,,,,,,,,,,,,,,,,,,,0,,,,,,,,,prac_MEM,new,,,,,,,,,,,10,,,,,,,,,,,,,,,,,,,,,,,,,,,,,,,,,,,448.2188,449.7886,0,1,1.5366,,449.7887,450.7911,0,3,3,7,1,999,999,pics/cherry01.jpg,,,,,,,,,,,,,,,,,,,,,,,,,,,,,,,,,,,,,,,,,,,,,,,,,,,,,,,,,,,,,,,,,,,,,,,
,,,,,65cbb33505f664b0a9c1fd1b,6669d216483b4754e2264ff7,6669dba991f47920e1ef29e5,24,Female,English,2024-06-12_10h35.11.242,ABmemTask3,2023.2.3,Win32,59.88023952,,,,,,,,,,,,,,,,,,,,,,,,,,,,,,,,,450.7914,599,451.3029,,,,,,,,,,,,,,,,,,,,,,,,,,0,,,,,,,,,prac_MEM,new,,,,,,,,,,,10,,,,,,,,,,,,,,,,,,,,,,,,,,,,,,,,,,,451.3029,453.8962,1,3,2.5738,,453.8966,454.8983,0,4,4,9,1,999,999,pics/moth.jpg,,,,,,,,,,,,,,,,,,,,,,,,,,,,,,,,,,,,,,,,,,,,,,,,,,,,,,,,,,,,,,,,,,,,,,,
,,,,,65cbb33505f664b0a9c1fd1b,6669d216483b4754e2264ff7,6669dba991f47920e1ef29e5,24,Female,English,2024-06-12_10h35.11.242,ABmemTask3,2023.2.3,Win32,59.88023952,,,,,,,,,,,,,,,,,,,,,,,,,,,,,,,,,454.9035,599,455.3994,,,,,,,,,,,,,,,,,,,,,,,,,,0,,,,,,,,,prac_MEM,old,,,,,,,,,,,10,,,,,,,,,,,,,,,,,,,,,,,,,,,,,,,,,,,455.3995,458.7411,4,6,3.3085,,458.7415,459.7413,0,5,5,5,1,11,5,pics/grater01a.jpg,,,,,,,,,,,,,,,,,,,,,,,,,,,,,,,,,,,,,,,,,,,,,,,,,,,,,,,,,,,,,,,,,,,,,,,
,,,,,65cbb33505f664b0a9c1fd1b,6669d216483b4754e2264ff7,6669dba991f47920e1ef29e5,24,Female,English,2024-06-12_10h35.11.242,ABmemTask3,2023.2.3,Win32,59.88023952,,,,,,,,,,,,,,,,,,,,,,,,,,,,,,,,,459.7464,599,460.2553,,,,,,,,,,,,,,,,,,,,,,,,,,0,,,,,,,,,prac_MEM,old,,,,,,,,,,,10,,,,,,,,,,,,,,,,,,,,,,,,,,,,,,,,,,,460.2553,461.4112,7,6,1.1373,,461.4113,462.4136,0,6,6,6,1,12,5,pics/humanskull.jpg,,,,,,,,,,,,,,,,,,,,,,,,,,,,,,,,,,,,,,,,,,,,,,,,,,,,,,,,,,,,,,,,,,,,,,,
,,,,,65cbb33505f664b0a9c1fd1b,6669d216483b4754e2264ff7,6669dba991f47920e1ef29e5,24,Female,English,2024-06-12_10h35.11.242,ABmemTask3,2023.2.3,Win32,59.88023952,,,,,,,,,,,,,,,,,,,,,,,,,,,,,,,,,462.4138,599,462.9141,,,,,,,,,,,,,,,,,,,,,,,,,,0,,,,,,,,,prac_MEM,old,,,,,,,,,,,10,,,,,,,,,,,,,,,,,,,,,,,,,,,,,,,,,,,462.9141,464.4512,10,6,1.5206,,464.4516,465.4532,0,7,7,1,1,2,1,pics/pants.jpg,,,,,,,,,,,,,,,,,,,,,,,,,,,,,,,,,,,,,,,,,,,,,,,,,,,,,,,,,,,,,,,,,,,,,,,
,,,,,65cbb33505f664b0a9c1fd1b,6669d216483b4754e2264ff7,6669dba991f47920e1ef29e5,24,Female,English,2024-06-12_10h35.11.242,ABmemTask3,2023.2.3,Win32,59.88023952,,,,,,,,,,,,,,,,,,,,,,,,,,,,,,,,,465.4535,599,465.9533,,,,,,,,,,,,,,,,,,,,,,,,,,0,,,,,,,,,prac_MEM,new,,,,,,,,,,,10,,,,,,,,,,,,,,,,,,,,,,,,,,,,,,,,,,,465.9533,467.2563,13,1,1.2856,,467.2565,468.2591,0,8,8,8,1,999,999,pics/thread02.jpg,,,,,,,,,,,,,,,,,,,,,,,,,,,,,,,,,,,,,,,,,,,,,,,,,,,,,,,,,,,,,,,,,,,,,,,
,,,,,65cbb33505f664b0a9c1fd1b,6669d216483b4754e2264ff7,6669dba991f47920e1ef29e5,24,Female,English,2024-06-12_10h35.11.242,ABmemTask3,2023.2.3,Win32,59.88023952,,,,,,,,,,,,,,,,,,,,,,,,,,,,,,,,,468.2643,599,468.7591,,,,,,,,,,,,,,,,,,,,,,,,,,0,,,,,,,,,prac_MEM,old,,,,,,,,,,,10,,,,,,,,,,,,,,,,,,,,,,,,,,,,,,,,,,,468.7591,470.0625,16,6,1.2861,,470.0626,471.0645,0,9,9,2,1,3,1,pics/sturgeon.jpg,,,,,,,,,,,,,,,,,,,,,,,,,,,,,,,,,,,,,,,,,,,,,,,,,,,,,,,,,,,,,,,,,,,,,,,
,,,,,65cbb33505f664b0a9c1fd1b,6669d216483b4754e2264ff7,6669dba991f47920e1ef29e5,24,Female,English,2024-06-12_10h35.11.242,ABmemTask3,2023.2.3,Win32,59.88023952,,,,,,,,,,,,,,,,,,,,,,,,,,,,,,,,,471.0647,599,471.5665,,,,,,,,,,,,,,,,,,,,,,,,,,0,,,,,,,,,prac_MEM,old,,,,,,,,,,,10,,,,,,,,,,,,,,,,,,,,,,,,,,,,,,,,,,,471.5665,473.0036,19,6,1.4204,,473.0042,474.0044,0,10,10,0,1,1,1,pics/tree.jpg,,,,,,,,,,,,,,,,,,,,,,,,,,,,,,,,,,,,,,,,,,,,,,,,,,,,,,,,,,,,,,,,,,,,,,,
,,,,,65cbb33505f664b0a9c1fd1b,6669d216483b4754e2264ff7,6669dba991f47920e1ef29e5,24,Female,English,2024-06-12_10h35.11.242,ABmemTask3,2023.2.3,Win32,59.88023952,,,,,,,,,,,,,,,,,,,,,,,,,,,,,,,,,,,,,,,,,,,,,,,,,,,,,,,,,,,,,,,,,,,,,,,,,,,,,,,,,,,,,,,,,,,,,,,,,,,,,,,,,,,,,,,,,,,,,,,,,,,,,,,,,,,,,474.0046,475.4594,475.4595,475.4596,,,,,,,,,,,,,,,,,,,,,,,,,,,,,,,,,,,,,,,,,,,,,,,,,,,,,,,,,,,,,,,,,,,
,,,,,65cbb33505f664b0a9c1fd1b,6669d216483b4754e2264ff7,6669dba991f47920e1ef29e5,24,Female,English,2024-06-12_10h35.11.242,ABmemTask3,2023.2.3,Win32,59.88023952,,,,,,,,,,,,,,,,,,space,38.986,,,,,,,,,,,,,,,,,,,,,,,,,,,,,,,,,,,,,,,,,,,,,,,,,,,,,,,,,,,,,,,,,,,,,,,,,,,,,,,,,,,,,,,,,,,,,,,,,,,,,,,,,,,,,,,,,,,,,,475.4597,514.4656,,,,,,,,,,,,,,,,,,,,,,,,,,,,,,,,,,,,,,,,,,,,,,,,,,,,,,,,,,,,,,,,,
,,,,,65cbb33505f664b0a9c1fd1b,6669d216483b4754e2264ff7,6669dba991f47920e1ef29e5,24,Female,English,2024-06-12_10h35.11.242,ABmemTask3,2023.2.3,Win32,59.88023952,,,,,,,,,,,,,,,,,,,,,,,,,,,,,,,,,,,,,,,,,,,,,,,,,,,,,,,,,,,,,,,,,,,,,,,,,,,,,,,,,,,,,,,,,,,,,,,,,,,,,,,,,,,,,,,,,,,,,,,,,,,,,,,,,,,,,,,,,,,514.4658,547.841,space,33.3529,,,,,,,,,,,,,,,,,,,,,,,,,,,,,,,,,,,,,,,,,,,,,,,,,,,,,,,,,,,,,
,,,,,65cbb33505f664b0a9c1fd1b,6669d216483b4754e2264ff7,6669dba991f47920e1ef29e5,24,Female,English,2024-06-12_10h35.11.242,ABmemTask3,2023.2.3,Win32,59.88023952,,,,,,,,,,,,,,,,,,,,,,,,,,,,,,,547.8471,548.8493,548.8493,7,549.36,550.5188,0.0007,550.6364,0.1061,0.117,0.1169,0.1172,0.1166,0.1166,0.1175,0.1166,0.1171,0.1166,,550.6365,557.0156,right,6.3483,,557.0157,558.0666,left,1.0197,,2,0,2,558.0667,559.0683,,,,,,1_AB,L1_T1P_T2A,1,1,0,6,7,5,4,11,lamp,Did you see the lamp,0.12,0,resources/,pics/chainsaw.jpg,pics/fanblades.jpg,pics/salmon.jpg,pics/proboscismonkey.jpg,pics/boot02b.jpg,pics/lamp04a.jpg,pics/blender.jpg,pics/sink.jpg,pics/pencil01.jpg,pics/floortile02.jpg,pics/shovel01.jpg,blankImage,blankImage,blankImage,blankImage,blankImage,blankImage,lamp04a,37,,,,,,,,,,,,,,,,,,,,,,,,,,,,,,,,,,,,,,,,,0,0,0,36,1,,,,,,,,,,,,,,,,,,,,,,,,,,,,,,,,,,,,,,,,,,,,,,,,,,,,,,,
,,,,,65cbb33505f664b0a9c1fd1b,6669d216483b4754e2264ff7,6669dba991f47920e1ef29e5,24,Female,English,2024-06-12_10h35.11.242,ABmemTask3,2023.2.3,Win32,59.88023952,,,,,,,,,,,,,,,,,,,,,,,,,,,,,,,559.0742,560.0706,560.0707,7,560.5712,562.1063,0.0007,562.2079,0.1166,0.1169,0.1171,0.1214,0.116,0.1283,0.1161,0.118,0.1014,0.1173,0.1162,562.2079,563.5152,right,1.2754,,563.5152,564.2953,left,0.7522,,4,0,4,564.2953,565.2971,,,,,,1_AB,L5_T1P_T2A,5,1,0,4,9,3,5,14,Frisbee,Did you see the Frisbee,0.12,0,resources/,pics/giraffe.jpg,pics/christmaslights.jpg,pics/bowtie.jpg,pics/frisbee.jpg,pics/banjo.jpg,pics/calendar.jpg,pics/butterfly.jpg,pics/onion.jpg,pics/starfish01.jpg,pics/footballhelmet.jpg,pics/blender.jpg,pics/candleholder01.jpg,pics/hairdryer02a.jpg,pics/dromedary.jpg,blankImage,blankImage,blankImage,frisbee,58,0.1174,0.1318,,,,,,,,,,,,,,,,,,,,,,,,,,,,,,,,,,,,,,,0,1,1,57,1,,,,,,,,,,,,,,,,,,,,,,,,,,,,,,,,,,,,,,,,,,,,,,,,,,,,,,,
,,,,,65cbb33505f664b0a9c1fd1b,6669d216483b4754e2264ff7,6669dba991f47920e1ef29e5,24,Female,English,2024-06-12_10h35.11.242,ABmemTask3,2023.2.3,Win32,59.88023952,,,,,,,,,,,,,,,,,,,,,,,,,,,,,,,565.3039,566.2993,566.2993,7,566.8005,568.5544,0.0005,568.6712,0.1167,0.117,0.1167,0.1165,0.1176,0.1164,0.1174,0.1173,0.1169,0.1164,0.1169,568.6713,569.5569,right,0.8694,,569.5569,569.9243,left,0.3509,,6,0,6,569.9243,570.9257,,,,,,1_AB,L5_T1P_T2A,5,1,0,6,11,5,5,16,belt,Did you see the belt,0.12,0,resources/,pics/banjo.jpg,pics/birdhouse.jpg,pics/spoon01.jpg,pics/table01.jpg,pics/candle01.jpg,pics/belt02a.jpg,pics/peach01.jpg,pics/chainsaw.jpg,pics/toiletpaper01a.jpg,pics/proboscismonkey.jpg,pics/cymbal.jpg,pics/binoculars01b.jpg,pics/cannon.jpg,pics/noparkingsign.jpg,pics/sailboat.jpg,pics/carrot01.jpg,blankImage,belt02a,61,0.1169,0.1174,0.1169,,,,,,,,,,,,,,,,,,,,,,,,,,,,,,,,,,,,,,0,2,2,60,1,0.1166,,,,,,,,,,,,,,,,,,,,,,,,,,,,,,,,,,,,,,,,,,,,,,,,,,,,,,
,,,,,65cbb33505f664b0a9c1fd1b,6669d216483b4754e2264ff7,6669dba991f47920e1ef29e5,24,Female,English,2024-06-12_10h35.11.242,ABmemTask3,2023.2.3,Win32,59.88023952,,,,,,,,,,,,,,,,,,,,,,,,,,,,,,,570.9259,571.9291,571.9292,7,572.429,573.5999,0.0005,573.7154,0.1185,0.1153,0.1181,0.1161,0.1175,0.1159,0.1178,0.1161,0.1166,0.1185,,573.7154,574.6178,right,0.8859,,574.6178,575.003,left,0.369,,6,0,8,575.0031,576.004,,,,,,1_AB,L1_T1P_T2P,1,1,1,7,8,6,3,11,Eiffel tower,Did you see the Eiffel tower,0.12,0,resources/,pics/seagull.jpg,pics/cymbal.jpg,pics/match.jpg,pics/binoculars01b.jpg,pics/ball02.jpg,pics/onion.jpg,pics/eiffeltower.jpg,pics/stapler11.jpg,pics/peach01.jpg,pics/sandbarshark.jpg,pics/boot02b.jpg,blankImage,blankImage,blankImage,blankImage,blankImage,blankImage,eiffeltower,1,,,,,,,,,,,,,,,,,,,,,,,,,,,,,,,,,,,,,,,,,0,3,3,0,1,,,,,,,,,,,,,,,,,,,,,,,,,,,,,,,,,,,,,,,,,,,,,,,,,,,,,,,
,,,,,65cbb33505f664b0a9c1fd1b,6669d216483b4754e2264ff7,6669dba991f47920e1ef29e5,24,Female,English,2024-06-12_10h35.11.242,ABmemTask3,2023.2.3,Win32,59.88023952,,,,,,,,,,,,,,,,,,,,,,,,,,,,,,,576.0043,577.0066,577.0066,7,577.5078,578.6772,0.0005,578.7947,0.1167,0.1175,0.1164,0.1177,0.1167,0.1167,0.1172,0.1169,0.1168,0.1164,,578.7948,579.3959,right,0.5846,,579.3959,579.7644,right,0.3523,,8,0,10,579.7644,580.7658,,,,,,1_AB,L1_T1P_T2P,1,1,1,7,8,6,3,11,sock,Did you see the sock,0.12,0,resources/,pics/hen.jpg,pics/christmaslights.jpg,pics/salmon.jpg,pics/sealion.jpg,pics/seaturtle.jpg,pics/giraffe.jpg,pics/athleticsock.jpg,pics/stapler01.jpg,pics/shovel01.jpg,pics/leaf02a.jpg,pics/backpack01a.jpg,blankImage,blankImage,blankImage,blankImage,blankImage,blankImage,athleticsock,11,,,,,,,,,,,,,,,,,,,,,,,,,,,,,,,,,,,,,,,,,0,4,4,10,1,,,,,,,,,,,,,,,,,,,,,,,,,,,,,,,,,,,,,,,,,,,,,,,,,,,,,,,
,,,,,65cbb33505f664b0a9c1fd1b,6669d216483b4754e2264ff7,6669dba991f47920e1ef29e5,24,Female,English,2024-06-12_10h35.11.242,ABmemTask3,2023.2.3,Win32,59.88023952,,,,,,,,,,,,,,,,,,,,,,,,,,,,,,,580.7661,581.7681,581.7682,7,582.2694,583.3221,0.0008,583.4384,0.1163,0.1163,0.1177,0.1166,0.1166,0.1173,0.117,0.1163,0.1179,,,583.4385,583.9563,right,0.5011,,583.9563,584.3414,right,0.3685,,10,0,12,584.3414,585.3427,,,,,,1_AB,L1_T1P_T2P,1,1,1,4,5,3,5,10,chair,Did you see the chair,0.12,0,resources/,pics/zebra.jpg,pics/floortile02.jpg,pics/cork02.jpg,pics/chair.jpg,pics/stapler07.jpg,pics/sealion.jpg,pics/shovel01.jpg,pics/piggybank.jpg,pics/candleholder01.jpg,pics/laptop01a.jpg,blankImage,blankImage,blankImage,blankImage,blankImage,blankImage,blankImage,chair,3,,,,,,,,,,,,,,,,,,,,,,,,,,,,,,,,,,,,,,,,,0,5,5,2,1,,,,,,,,,,,,,,,,,,,,,,,,,,,,,,,,,,,,,,,,,,,,,,,,,,,,,,,
,,,,,65cbb33505f664b0a9c1fd1b,6669d216483b4754e2264ff7,6669dba991f47920e1ef29e5,24,Female,English,2024-06-12_10h35.11.242,ABmemTask3,2023.2.3,Win32,59.88023952,,,,,,,,,,,,,,,,,,,,,,,,,,,,,,,585.343,586.3447,586.3448,7,586.8465,588.4844,0.0006,588.5998,0.1158,0.1182,0.116,0.1175,0.1165,0.1168,0.1171,0.1167,0.1171,0.1166,0.1176,588.5998,589.2187,right,0.6024,,589.2187,589.6189,right,0.3845,,12,0,14,589.6189,590.6215,,,,,,1_AB,L5_T1P_T2P,5,1,1,5,10,4,5,15,ribbon,Did you see the ribbon,0.12,0,resources/,pics/giraffe.jpg,pics/boot02b.jpg,pics/cymbal.jpg,pics/leaf02a.jpg,pics/ribbon04.jpg,pics/lightswitch01.jpg,pics/necklace.jpg,pics/calendar.jpg,pics/kangaroo.jpg,pics/stapler12.jpg,pics/hose.jpg,pics/carrot01.jpg,pics/match.jpg,pics/sink.jpg,pics/candleholder01.jpg,blankImage,blankImage,ribbon04,53,0.1163,0.1171,0.1181,,,,,,,,,,,,,,,,,,,,,,,,,,,,,,,,,,,,,,0,6,6,52,1,,,,,,,,,,,,,,,,,,,,,,,,,,,,,,,,,,,,,,,,,,,,,,,,,,,,,,,
,,,,,65cbb33505f664b0a9c1fd1b,6669d216483b4754e2264ff7,6669dba991f47920e1ef29e5,24,Female,English,2024-06-12_10h35.11.242,ABmemTask3,2023.2.3,Win32,59.88023952,,,,,,,,,,,,,,,,,,,,,,,,,,,,,,,590.6217,591.6231,591.6232,7,592.124,593.4104,0.0005,593.5275,0.1177,0.1166,0.1174,0.1163,0.1167,0.1163,0.1175,0.1166,0.1172,0.1166,0.1171,593.5276,594.0956,right,0.5505,,594.0956,594.3799,right,0.268,,14,0,16,594.38,595.3817,,,,,,1_AB,L1_T1P_T2P,1,1,1,7,8,6,4,12,hammer,Did you see the hammer,0.12,0,resources/,pics/microscope.jpg,pics/blender.jpg,pics/dustpan.jpg,pics/snowshoe.jpg,pics/mummy.jpg,pics/bowtie.jpg,pics/hammer01.jpg,pics/stapler04b.jpg,pics/seaturtle.jpg,pics/candle01.jpg,pics/necklace.jpg,pics/cannon.jpg,blankImage,blankImage,blankImage,blankImage,blankImage,hammer01,21,,,,,,,,,,,,,,,,,,,,,,,,,,,,,,,,,,,,,,,,,0,7,7,20,1,,,,,,,,,,,,,,,,,,,,,,,,,,,,,,,,,,,,,,,,,,,,,,,,,,,,,,,
,,,,,65cbb33505f664b0a9c1fd1b,6669d216483b4754e2264ff7,6669dba991f47920e1ef29e5,24,Female,English,2024-06-12_10h35.11.242,ABmemTask3,2023.2.3,Win32,59.88023952,,,,,,,,,,,,,,,,,,,,,,,,,,,,,,,595.3819,596.3841,596.3842,7,596.8847,597.9377,0.0005,598.0542,0.117,0.1163,0.1173,0.1183,0.1159,0.1165,0.117,0.1173,0.1169,,,598.0542,599.592,left,1.5214,,599.5921,601.9468,left,2.3391,,14,0,18,601.9468,602.9495,,,,,,1_AB,L1_T1A_T2P,1,0,1,5,6,4,4,10,Rabbit,Did you see the Rabbit,0.12,0,resources/,pics/cannon.jpg,pics/proboscismonkey.jpg,pics/salmon.jpg,pics/nutcracker01.jpg,pics/seagull.jpg,pics/stapler02.jpg,pics/table01.jpg,pics/laptop01a.jpg,pics/necklace.jpg,pics/pencilsharpener02a.jpg,blankImage,blankImage,blankImage,blankImage,blankImage,blankImage,blankImage,jackrabbit,31,,,,,,,,,,,,,,,,,,,,,,,,,,,,,,,,,,,,,,,,,0,8,8,30,1,,,,,,,,,,,,,,,,,,,,,,,,,,,,,,,,,,,,,,,,,,,,,,,,,,,,,,,
,,,,,65cbb33505f664b0a9c1fd1b,6669d216483b4754e2264ff7,6669dba991f47920e1ef29e5,24,Female,English,2024-06-12_10h35.11.242,ABmemTask3,2023.2.3,Win32,59.88023952,,,,,,,,,,,,,,,,,,,,,,,,,,,,,,,602.9552,603.9565,603.9565,7,604.4576,605.7436,0.0006,605.8715,0.1162,0.1177,0.1166,0.1169,0.1183,0.1159,0.1163,0.1182,0.1165,0.1159,0.117,605.8715,606.445,right,0.5508,,606.445,606.7816,right,0.3076,,12,0,20,606.7816,607.7931,,,,,,1_AB,L1_T1P_T2A,1,1,0,7,8,6,4,12,Tennis racket,Did you see the Tennis racket,0.12,0,resources/,pics/banjo.jpg,pics/leaf02a.jpg,pics/shovel01.jpg,pics/microscope.jpg,pics/cork02.jpg,pics/seagull.jpg,pics/tennisracket.jpg,pics/binder03b.jpg,pics/floortile02.jpg,pics/carrot01.jpg,pics/candle01.jpg,pics/siamesecat.jpg,blankImage,blankImage,blankImage,blankImage,blankImage,tennisracket,38,,,,,,,,,,,,,,,,,,,,,,,,,,,,,,,,,,,,,,,,,0,9,9,37,1,,,,,,,,,,,,,,,,,,,,,,,,,,,,,,,,,,,,,,,,,,,,,,,,,,,,,,,
,,,,,65cbb33505f664b0a9c1fd1b,6669d216483b4754e2264ff7,6669dba991f47920e1ef29e5,24,Female,English,2024-06-12_10h35.11.242,ABmemTask3,2023.2.3,Win32,59.88023952,,,,,,,,,,,,,,,,,,,,,,,,,,,,,,,607.7934,608.783,608.783,7,609.283,610.9201,0.0008,611.0508,0.1165,0.1175,0.1168,0.1169,0.1168,0.1193,0.1148,0.117,0.117,0.1167,0.1166,611.0509,611.4352,right,0.368,,611.4352,611.7193,right,0.2681,,14,0,22,611.7193,612.7208,,,,,,1_AB,L5_T1P_T2P,5,1,1,6,11,5,4,15,toast,Did you see the toast,0.12,0,resources/,pics/piggybank.jpg,pics/leaf02a.jpg,pics/carrot01.jpg,pics/birdhouse.jpg,pics/bowlingpin.jpg,pics/toast.jpg,pics/spiderweb.jpg,pics/cork02.jpg,pics/sink.jpg,pics/nutcracker01.jpg,pics/stapler02.jpg,pics/ashtray01.jpg,pics/fanblades.jpg,pics/pencil01.jpg,pics/lightswitch01.jpg,blankImage,blankImage,toast,46,0.117,0.1174,0.116,,,,,,,,,,,,,,,,,,,,,,,,,,,,,,,,,,,,,,0,10,10,45,1,,,,,,,,,,,,,,,,,,,,,,,,,,,,,,,,,,,,,,,,,,,,,,,,,,,,,,,
,,,,,65cbb33505f664b0a9c1fd1b,6669d216483b4754e2264ff7,6669dba991f47920e1ef29e5,24,Female,English,2024-06-12_10h35.11.242,ABmemTask3,2023.2.3,Win32,59.88023952,,,,,,,,,,,,,,,,,,,,,,,,,,,,,,,612.7211,613.7389,613.7389,7,614.2412,615.1625,0.0006,615.2788,0.1015,0.1176,0.1168,0.1163,0.1177,0.1178,0.1159,0.1173,,,,615.2789,616.648,right,1.3548,,616.6481,617.0483,left,0.3847,,14,0,24,617.0483,618.0502,,,,,,1_AB,L1_T1P_T2P,1,1,1,5,6,4,3,9,cabbage,Did you see the cabbage,0.12,0,resources/,pics/match.jpg,pics/icecube01.jpg,pics/noparkingsign.jpg,pics/christmaslights.jpg,pics/cabbage.jpg,pics/stapler03a.jpg,pics/carrot01.jpg,pics/dustpan.jpg,pics/cannon.jpg,blankImage,blankImage,blankImage,blankImage,blankImage,blankImage,blankImage,blankImage,cabbage,14,,,,,,,,,,,,,,,,,,,,,,,,,,,,,,,,,,,,,,,,,0,11,11,13,1,,,,,,,,,,,,,,,,,,,,,,,,,,,,,,,,,,,,,,,,,,,,,,,,,,,,,,,
,,,,,65cbb33505f664b0a9c1fd1b,6669d216483b4754e2264ff7,6669dba991f47920e1ef29e5,24,Female,English,2024-06-12_10h35.11.242,ABmemTask3,2023.2.3,Win32,59.88023952,,,,,,,,,,,,,,,,,,,,,,,,,,,,,,,618.0558,619.0521,619.0522,7,619.5537,621.1907,0.0004,621.307,0.117,0.1163,0.1173,0.1169,0.117,0.1164,0.1174,0.1166,0.1174,0.1165,0.1177,621.3071,622.6273,left,1.3035,,622.6274,622.9277,right,0.2845,,16,0,26,622.9277,623.9318,,,,,,1_AB,L5_T1A_T2P,5,0,1,7,12,6,3,15,scissors,Did you see the scissors,0.12,0,resources/,pics/cannon.jpg,pics/mummy.jpg,pics/shovel01.jpg,pics/christmaslights.jpg,pics/snowshoe.jpg,pics/candle01.jpg,pics/bowtie.jpg,pics/giraffe.jpg,pics/carrot01.jpg,pics/spoon01.jpg,pics/seaturtle.jpg,pics/stapler10.jpg,pics/footballhelmet.jpg,pics/onion.jpg,pics/wheel01.jpg,blankImage,blankImage,scissors01,57,0.1166,0.1165,0.1172,,,,,,,,,,,,,,,,,,,,,,,,,,,,,,,,,,,,,,0,12,12,56,1,,,,,,,,,,,,,,,,,,,,,,,,,,,,,,,,,,,,,,,,,,,,,,,,,,,,,,,
,,,,,65cbb33505f664b0a9c1fd1b,6669d216483b4754e2264ff7,6669dba991f47920e1ef29e5,24,Female,English,2024-06-12_10h35.11.242,ABmemTask3,2023.2.3,Win32,59.88023952,,,,,,,,,,,,,,,,,,,,,,,,,,,,,,,623.9379,624.9322,624.9322,7,625.4332,626.9541,0.0008,627.0709,0.1174,0.1162,0.1179,0.1162,0.1171,0.1168,0.1179,0.1165,0.1173,0.1168,0.1168,627.071,627.606,right,0.5176,,627.606,627.9232,right,0.3011,,14,0,28,627.9232,628.9256,,,,,,1_AB,L5_T1P_T2A,5,1,0,6,11,5,3,14,Kiwi,Did you see the Kiwi,0.12,0,resources/,pics/candleholder01.jpg,pics/kangaroo.jpg,pics/banjo.jpg,pics/binoculars01b.jpg,pics/microscope.jpg,pics/kiwi03.jpg,pics/bowtie.jpg,pics/peanut01.jpg,pics/backpack01a.jpg,pics/zebra.jpg,pics/toiletpaper01a.jpg,pics/hen.jpg,pics/spoon01.jpg,pics/calendar.jpg,blankImage,blankImage,blankImage,kiwi03,59,0.1175,0.1157,,,,,,,,,,,,,,,,,,,,,,,,,,,,,,,,,,,,,,,0,13,13,58,1,,,,,,,,,,,,,,,,,,,,,,,,,,,,,,,,,,,,,,,,,,,,,,,,,,,,,,,
,,,,,65cbb33505f664b0a9c1fd1b,6669d216483b4754e2264ff7,6669dba991f47920e1ef29e5,24,Female,English,2024-06-12_10h35.11.242,ABmemTask3,2023.2.3,Win32,59.88023952,,,,,,,,,,,,,,,,,,,,,,,,,,,,,,,628.9258,629.9275,629.9275,7,630.4286,631.4816,0.0004,631.5983,0.1173,0.1169,0.1174,0.1164,0.117,0.1173,0.1167,0.1168,0.1169,,,631.5984,633.4024,left,1.7878,,633.4025,633.9039,right,0.485,,10,0,30,633.9039,634.9053,,,,,,1_AB,L1_T1P_T2A,1,1,0,6,7,5,3,10,Electric toothbrush,Did you see the Electric toothbrush,0.12,0,resources/,pics/football.jpg,pics/sailboat.jpg,pics/cymbal.jpg,pics/hen.jpg,pics/pencil01.jpg,pics/electrictoothbrush01c.jpg,pics/bowlingpin.jpg,pics/wheel01.jpg,pics/birdhouse.jpg,pics/leaf02a.jpg,blankImage,blankImage,blankImage,blankImage,blankImage,blankImage,blankImage,electrictoothbrush01c,34,,,,,,,,,,,,,,,,,,,,,,,,,,,,,,,,,,,,,,,,,0,14,14,33,1,,,,,,,,,,,,,,,,,,,,,,,,,,,,,,,,,,,,,,,,,,,,,,,,,,,,,,,
,,,,,65cbb33505f664b0a9c1fd1b,6669d216483b4754e2264ff7,6669dba991f47920e1ef29e5,24,Female,English,2024-06-12_10h35.11.242,ABmemTask3,2023.2.3,Win32,59.88023952,,,,,,,,,,,,,,,,,,,,,,,,,,,,,,,634.9107,635.9075,635.9075,7,636.4087,637.4617,0.0005,637.5783,0.117,0.1177,0.1175,0.1154,0.1179,0.1162,0.1171,0.117,0.1169,,,637.5784,638.3136,right,0.719,,638.3136,639.2495,right,0.92,,8,0,32,639.2495,640.2507,,,,,,1_AB,L1_T1P_T2A,1,1,0,6,7,5,3,10,Duct tape,Did you see the Duct tape,0.12,0,resources/,pics/butterfly.jpg,pics/noparkingsign.jpg,pics/pictureframe04.jpg,pics/cork02.jpg,pics/fanblades.jpg,pics/ducttape.jpg,pics/icecube01.jpg,pics/siamesecat.jpg,pics/sink.jpg,pics/sandbarshark.jpg,blankImage,blankImage,blankImage,blankImage,blankImage,blankImage,blankImage,ducttape,36,,,,,,,,,,,,,,,,,,,,,,,,,,,,,,,,,,,,,,,,,0,15,15,35,1,,,,,,,,,,,,,,,,,,,,,,,,,,,,,,,,,,,,,,,,,,,,,,,,,,,,,,,
,,,,,65cbb33505f664b0a9c1fd1b,6669d216483b4754e2264ff7,6669dba991f47920e1ef29e5,24,Female,English,2024-06-12_10h35.11.242,ABmemTask3,2023.2.3,Win32,59.88023952,,,,,,,,,,,,,,,,,,,,,,,,,,,,,,,640.2557,641.2526,641.2527,7,641.7537,642.6893,0.0005,642.8066,0.1174,0.1162,0.1174,0.1164,0.1173,0.1168,0.1173,0.1165,,,,642.8067,643.4247,right,0.6013,,643.4247,643.792,left,0.3514,,8,0,34,643.792,644.7943,,,,,,1_AB,L1_T1P_T2P,1,1,1,5,6,4,3,9,Ant,Did you see the Ant,0.12,0,resources/,pics/kangaroo.jpg,pics/giraffe.jpg,pics/footballhelmet.jpg,pics/onion.jpg,pics/ant.jpg,pics/stapler04b.jpg,pics/banjo.jpg,pics/zebra.jpg,pics/dromedary.jpg,blankImage,blankImage,blankImage,blankImage,blankImage,blankImage,blankImage,blankImage,ant,15,,,,,,,,,,,,,,,,,,,,,,,,,,,,,,,,,,,,,,,,,0,16,16,14,1,,,,,,,,,,,,,,,,,,,,,,,,,,,,,,,,,,,,,,,,,,,,,,,,,,,,,,,
,,,,,65cbb33505f664b0a9c1fd1b,6669d216483b4754e2264ff7,6669dba991f47920e1ef29e5,24,Female,English,2024-06-12_10h35.11.242,ABmemTask3,2023.2.3,Win32,59.88023952,,,,,,,,,,,,,,,,,,,,,,,,,,,,,,,644.7946,645.7969,645.797,7,646.2985,647.5847,0.0005,647.7013,0.1156,0.117,0.1171,0.1168,0.1174,0.1169,0.1168,0.1166,0.1173,0.1167,0.1177,647.7013,648.0025,right,0.2851,,648.0025,648.2693,right,0.2508,,10,0,36,648.2694,649.2717,,,,,,1_AB,L1_T1P_T2P,1,1,1,6,7,5,5,12,rope,Did you see the rope,0.12,0,resources/,pics/toiletpaper01a.jpg,pics/sewingmachine01a.jpg,pics/birdhouse.jpg,pics/sealion.jpg,pics/safetypin.jpg,pics/rope03.jpg,pics/stapler04.jpg,pics/binder03b.jpg,pics/ashtray01.jpg,pics/sandbarshark.jpg,pics/chainsaw.jpg,pics/nutcracker01.jpg,blankImage,blankImage,blankImage,blankImage,blankImage,rope03,4,,,,,,,,,,,,,,,,,,,,,,,,,,,,,,,,,,,,,,,,,0,17,17,3,1,,,,,,,,,,,,,,,,,,,,,,,,,,,,,,,,,,,,,,,,,,,,,,,,,,,,,,,
,,,,,65cbb33505f664b0a9c1fd1b,6669d216483b4754e2264ff7,6669dba991f47920e1ef29e5,24,Female,English,2024-06-12_10h35.11.242,ABmemTask3,2023.2.3,Win32,59.88023952,,,,,,,,,,,,,,,,,,,,,,,,,,,,,,,649.2719,650.273,650.273,7,650.775,651.944,0.0006,652.0628,0.1171,0.1166,0.1162,0.117,0.1166,0.1168,0.1175,0.1165,0.117,0.117,,652.0628,652.6125,right,0.535,,652.6126,652.8793,right,0.2512,,12,0,38,652.8793,653.8825,,,,,,1_AB,L1_T1P_T2P,1,1,1,7,8,6,3,11,bird,Did you see the bird,0.12,0,resources/,pics/sealion.jpg,pics/backpack01a.jpg,pics/hose.jpg,pics/table01.jpg,pics/wheel01.jpg,pics/seaturtle.jpg,pics/americangoldfinch.jpg,pics/stapler08.jpg,pics/siamesecat.jpg,pics/hammerheadshark.jpg,pics/ashtray01.jpg,blankImage,blankImage,blankImage,blankImage,blankImage,blankImage,americangoldfinch,23,,,,,,,,,,,,,,,,,,,,,,,,,,,,,,,,,,,,,,,,,0,18,18,22,1,,,,,,,,,,,,,,,,,,,,,,,,,,,,,,,,,,,,,,,,,,,,,,,,,,,,,,,
,,,,,65cbb33505f664b0a9c1fd1b,6669d216483b4754e2264ff7,6669dba991f47920e1ef29e5,24,Female,English,2024-06-12_10h35.11.242,ABmemTask3,2023.2.3,Win32,59.88023952,,,,,,,,,,,,,,,,,,,,,,,,,,,,,,,653.8828,654.8836,654.8836,7,655.3851,656.555,0.0006,656.6712,0.1164,0.1169,0.1179,0.116,0.1185,0.1154,0.1176,0.1164,0.1171,0.1172,,656.6712,657.5237,left,0.8355,,657.5237,657.8241,left,0.2842,,14,0,40,657.8241,658.8264,,,,,,1_AB,L1_T1A_T2A,1,0,0,7,8,6,3,11,Poker chips,Did you see the Poker chips,0.12,0,resources/,pics/candle01.jpg,pics/proboscismonkey.jpg,pics/fanblades.jpg,pics/dromedary.jpg,pics/aquarium.jpg,pics/salmon.jpg,pics/hose.jpg,pics/kangaroo.jpg,pics/noparkingsign.jpg,pics/carrot01.jpg,pics/leaf02a.jpg,blankImage,blankImage,blankImage,blankImage,blankImage,blankImage,pokerchips,41,,,,,,,,,,,,,,,,,,,,,,,,,,,,,,,,,,,,,,,,,0,19,19,40,1,,,,,,,,,,,,,,,,,,,,,,,,,,,,,,,,,,,,,,,,,,,,,,,,,,,,,,,
,,,,,65cbb33505f664b0a9c1fd1b,6669d216483b4754e2264ff7,6669dba991f47920e1ef29e5,24,Female,English,2024-06-12_10h35.11.242,ABmemTask3,2023.2.3,Win32,59.88023952,,,,,,,,,,,,,,,,,,,,,,,,,,,,,,,658.8266,659.8288,659.8288,7,660.3294,661.7333,0.0005,661.8502,0.1179,0.116,0.1175,0.1165,0.1174,0.1164,0.1165,0.1169,0.1177,0.1168,0.1166,661.8502,662.2522,right,0.3858,,662.2523,662.5188,right,0.2511,,16,0,42,662.5188,663.5222,,,,,,1_AB,L5_T1P_T2P,5,1,1,4,9,3,4,13,Forklift,Did you see the Forklift,0.12,0,resources/,pics/dustpan.jpg,pics/table01.jpg,pics/sink.jpg,pics/forklift.jpg,pics/dromedary.jpg,pics/proboscismonkey.jpg,pics/cymbal.jpg,pics/shovel01.jpg,pics/stapler10.jpg,pics/backpack01a.jpg,pics/binder03b.jpg,pics/banjo.jpg,pics/candleholder01.jpg,blankImage,blankImage,blankImage,blankImage,forklift,47,0.1174,,,,,,,,,,,,,,,,,,,,,,,,,,,,,,,,,,,,,,,,0,20,20,46,1,,,,,,,,,,,,,,,,,,,,,,,,,,,,,,,,,,,,,,,,,,,,,,,,,,,,,,,
,,,,,65cbb33505f664b0a9c1fd1b,6669d216483b4754e2264ff7,6669dba991f47920e1ef29e5,24,Female,English,2024-06-12_10h35.11.242,ABmemTask3,2023.2.3,Win32,59.88023952,,,,,,,,,,,,,,,,,,,,,,,,,,,,,,,663.5226,664.5249,664.5249,7,665.0251,665.9613,0.0006,666.0775,0.1173,0.1172,0.1165,0.1167,0.1166,0.1171,0.1174,0.1169,,,,666.0776,667.2967,left,1.2031,,667.2967,667.5974,right,0.2808,,18,0,44,667.5974,668.5988,,,,,,1_AB,L1_T1A_T2P,1,0,1,5,6,4,3,9,Trailer,Did you see the Trailer,0.12,0,resources/,pics/pencil01.jpg,pics/football.jpg,pics/hairdryer02a.jpg,pics/wheel01.jpg,pics/chainsaw.jpg,pics/stapler10.jpg,pics/peanut01.jpg,pics/triangle.jpg,pics/sink.jpg,blankImage,blankImage,blankImage,blankImage,blankImage,blankImage,blankImage,blankImage,boxtrailer,29,,,,,,,,,,,,,,,,,,,,,,,,,,,,,,,,,,,,,,,,,0,21,21,28,1,,,,,,,,,,,,,,,,,,,,,,,,,,,,,,,,,,,,,,,,,,,,,,,,,,,,,,,
,,,,,65cbb33505f664b0a9c1fd1b,6669d216483b4754e2264ff7,6669dba991f47920e1ef29e5,24,Female,English,2024-06-12_10h35.11.242,ABmemTask3,2023.2.3,Win32,59.88023952,,,,,,,,,,,,,,,,,,,,,,,,,,,,,,,668.5992,669.6019,669.6019,7,670.1026,671.3881,0.0005,671.5048,0.1157,0.1178,0.1163,0.1168,0.1176,0.1162,0.1171,0.1166,0.1173,0.1167,0.117,671.5048,671.922,right,0.3989,,671.922,672.2229,right,0.2719,,20,0,46,672.2229,673.2256,,,,,,1_AB,L1_T1P_T2P,1,1,1,6,7,5,5,12,Bear,Did you see the Bear,0.12,0,resources/,pics/necklace.jpg,pics/hen.jpg,pics/dromedary.jpg,pics/piggybank.jpg,pics/sandbarshark.jpg,pics/grizzly.jpg,pics/stapler12.jpg,pics/bowlingpin.jpg,pics/christmaslights.jpg,pics/icecube01.jpg,pics/match.jpg,pics/lock03a.jpg,blankImage,blankImage,blankImage,blankImage,blankImage,grizzly,18,,,,,,,,,,,,,,,,,,,,,,,,,,,,,,,,,,,,,,,,,0,22,22,17,1,,,,,,,,,,,,,,,,,,,,,,,,,,,,,,,,,,,,,,,,,,,,,,,,,,,,,,,
,,,,,65cbb33505f664b0a9c1fd1b,6669d216483b4754e2264ff7,6669dba991f47920e1ef29e5,24,Female,English,2024-06-12_10h35.11.242,ABmemTask3,2023.2.3,Win32,59.88023952,,,,,,,,,,,,,,,,,,,,,,,,,,,,,,,673.226,674.2265,674.2265,7,674.7277,676.4836,0.0006,676.5982,0.1174,0.1169,0.116,0.1175,0.1198,0.1139,0.1165,0.119,0.1166,0.1168,0.1153,676.5982,677.5536,right,0.9359,,677.5536,679.103,left,1.5243,,22,0,48,679.103,680.0926,,,,,,1_AB,L5_T1P_T2A,5,1,0,7,12,6,4,16,boat,Did you see the boat,0.12,0,resources/,pics/butterfly.jpg,pics/onion.jpg,pics/hose.jpg,pics/ball02.jpg,pics/ashtray01.jpg,pics/bowtie.jpg,pics/boat.jpg,pics/seaturtle.jpg,pics/blender.jpg,pics/zebra.jpg,pics/pictureframe04.jpg,pics/shovel01.jpg,pics/spoon01.jpg,pics/peanut01.jpg,pics/nutcracker01.jpg,pics/aquarium.jpg,blankImage,boat,60,0.1172,0.1165,0.117,,,,,,,,,,,,,,,,,,,,,,,,,,,,,,,,,,,,,,0,23,23,59,1,0.119,,,,,,,,,,,,,,,,,,,,,,,,,,,,,,,,,,,,,,,,,,,,,,,,,,,,,,
,,,,,65cbb33505f664b0a9c1fd1b,6669d216483b4754e2264ff7,6669dba991f47920e1ef29e5,24,Female,English,2024-06-12_10h35.11.242,ABmemTask3,2023.2.3,Win32,59.88023952,,,,,,,,,,,,,,,,,,,,,,,,,,,,,,,680.0981,681.0954,681.0955,7,681.5919,682.8778,0.0005,682.9939,0.1199,0.1181,0.1123,0.1162,0.1225,0.1158,0.1129,0.1171,0.117,0.1178,0.1159,682.9941,683.5004,right,0.4849,,683.5004,683.7842,right,0.2679,,24,0,50,683.7842,684.7812,,,,,,1_AB,L1_T1P_T2P,1,1,1,7,8,6,4,12,Turnstile,Did you see the Turnstile,0.12,0,resources/,pics/golfball.jpg,pics/hose.jpg,pics/siamesecat.jpg,pics/binoculars01b.jpg,pics/hen.jpg,pics/candleholder01.jpg,pics/turnstile.jpg,pics/stapler03a.jpg,pics/giraffe.jpg,pics/pictureframe04.jpg,pics/sandbarshark.jpg,pics/spoon01.jpg,blankImage,blankImage,blankImage,blankImage,blankImage,turnstile,13,,,,,,,,,,,,,,,,,,,,,,,,,,,,,,,,,,,,,,,,,0,24,24,12,1,,,,,,,,,,,,,,,,,,,,,,,,,,,,,,,,,,,,,,,,,,,,,,,,,,,,,,,
,,,,,65cbb33505f664b0a9c1fd1b,6669d216483b4754e2264ff7,6669dba991f47920e1ef29e5,24,Female,English,2024-06-12_10h35.11.242,ABmemTask3,2023.2.3,Win32,59.88023952,,,,,,,,,,,,,,,,,,,,,,,,,,,,,,,684.7816,685.7883,685.7883,7,686.2846,687.808,0.0007,687.9217,0.1165,0.117,0.1166,0.1224,0.117,0.1118,0.1168,0.1172,0.1164,0.1172,0.1169,687.9218,688.3451,right,0.4015,,688.3451,688.5899,right,0.2225,,26,0,52,688.59,689.592,,,,,,1_AB,L5_T1P_T2P,5,1,1,5,10,4,4,14,Fox,Did you see the Fox,0.12,0,resources/,pics/hammerheadshark.jpg,pics/bowlingpin.jpg,pics/pictureframe04.jpg,pics/peanut01.jpg,pics/redfox.jpg,pics/cymbal.jpg,pics/spoon01.jpg,pics/banjo.jpg,pics/butterfly.jpg,pics/stapler11.jpg,pics/football.jpg,pics/safetypin.jpg,pics/triangle.jpg,pics/onion.jpg,blankImage,blankImage,blankImage,redfox,45,0.117,0.12,,,,,,,,,,,,,,,,,,,,,,,,,,,,,,,,,,,,,,,0,25,25,44,1,,,,,,,,,,,,,,,,,,,,,,,,,,,,,,,,,,,,,,,,,,,,,,,,,,,,,,,
,,,,,65cbb33505f664b0a9c1fd1b,6669d216483b4754e2264ff7,6669dba991f47920e1ef29e5,24,Female,English,2024-06-12_10h35.11.242,ABmemTask3,2023.2.3,Win32,59.88023952,,,,,,,,,,,,,,,,,,,,,,,,,,,,,,,689.5923,690.5987,690.5987,7,691.095,692.2646,0.0009,692.3861,0.1166,0.1171,0.1214,0.1167,0.1178,0.1115,0.1221,0.1112,0.1176,0.1168,,692.3861,692.9331,right,0.5234,,692.9331,693.1709,right,0.2172,,24,0,54,693.171,694.1674,,,,,,1_AB,L1_T1P_T2A,1,1,0,7,8,6,3,11,garlic,Did you see the garlic,0.12,0,resources/,pics/zebra.jpg,pics/banjo.jpg,pics/pencilsharpener02a.jpg,pics/football.jpg,pics/candle01.jpg,pics/footballhelmet.jpg,pics/garlic01a.jpg,pics/birdhouse.jpg,pics/peach01.jpg,pics/pictureframe04.jpg,pics/binder03b.jpg,blankImage,blankImage,blankImage,blankImage,blankImage,blankImage,garlic01a,33,,,,,,,,,,,,,,,,,,,,,,,,,,,,,,,,,,,,,,,,,0,26,26,32,1,,,,,,,,,,,,,,,,,,,,,,,,,,,,,,,,,,,,,,,,,,,,,,,,,,,,,,,
,,,,,65cbb33505f664b0a9c1fd1b,6669d216483b4754e2264ff7,6669dba991f47920e1ef29e5,24,Female,English,2024-06-12_10h35.11.242,ABmemTask3,2023.2.3,Win32,59.88023952,,,,,,,,,,,,,,,,,,,,,,,,,,,,,,,694.1689,695.1744,695.1745,7,695.6764,696.6047,0.0007,696.7207,0.1083,0.1182,0.1158,0.1175,0.1172,0.1165,0.1164,0.1179,,,,696.7207,697.6633,left,0.9175,,697.6633,698.066,left,0.3847,,26,0,56,698.066,699.0582,,,,,,1_AB,L1_T1A_T2A,1,0,0,4,5,3,4,9,License Plate,Did you see the License Plate,0.12,0,resources/,pics/snowshoe.jpg,pics/kangaroo.jpg,pics/noparkingsign.jpg,pics/match.jpg,pics/hose.jpg,pics/blender.jpg,pics/ashtray01.jpg,pics/ball02.jpg,pics/sink.jpg,blankImage,blankImage,blankImage,blankImage,blankImage,blankImage,blankImage,blankImage,licenseplate,40,,,,,,,,,,,,,,,,,,,,,,,,,,,,,,,,,,,,,,,,,0,27,27,39,1,,,,,,,,,,,,,,,,,,,,,,,,,,,,,,,,,,,,,,,,,,,,,,,,,,,,,,,
,,,,,65cbb33505f664b0a9c1fd1b,6669d216483b4754e2264ff7,6669dba991f47920e1ef29e5,24,Female,English,2024-06-12_10h35.11.242,ABmemTask3,2023.2.3,Win32,59.88023952,,,,,,,,,,,,,,,,,,,,,,,,,,,,,,,699.0585,700.061,700.0611,7,700.5613,701.9752,0.0005,702.0812,0.1271,0.1065,0.1174,0.1164,0.1171,0.1167,0.1273,0.1074,0.1252,0.1083,0.1163,702.0812,703.3171,left,1.2052,,703.3171,703.6185,left,0.2729,,26,0,58,703.6186,704.6192,,,,,,1_AB,L1_T1A_T2P,1,0,1,7,8,6,5,13,Basketball,Did you see the Basketball,0.12,0,resources/,pics/cork02.jpg,pics/table01.jpg,pics/christmaslights.jpg,pics/nutcracker01.jpg,pics/golfball.jpg,pics/hammerheadshark.jpg,pics/seaturtle.jpg,pics/stapler04b.jpg,pics/lock03a.jpg,pics/snowshoe.jpg,pics/sewingmachine01a.jpg,pics/peach01.jpg,pics/hose.jpg,blankImage,blankImage,blankImage,blankImage,basketball01,24,0.1277,,,,,,,,,,,,,,,,,,,,,,,,,,,,,,,,,,,,,,,,0,28,28,23,1,,,,,,,,,,,,,,,,,,,,,,,,,,,,,,,,,,,,,,,,,,,,,,,,,,,,,,,
,,,,,65cbb33505f664b0a9c1fd1b,6669d216483b4754e2264ff7,6669dba991f47920e1ef29e5,24,Female,English,2024-06-12_10h35.11.242,ABmemTask3,2023.2.3,Win32,59.88023952,,,,,,,,,,,,,,,,,,,,,,,,,,,,,,,704.6195,705.622,705.622,7,706.1171,707.2756,0.0006,707.3913,0.1053,0.1171,0.1172,0.1161,0.1172,0.1169,0.129,0.1052,0.117,0.1169,,707.3914,708.2276,right,0.8018,,708.2277,709.0244,left,0.786,,26,0,60,709.0245,710.0134,,,,,,1_AB,L1_T1P_T2P,1,1,1,7,8,6,3,11,pliers,Did you see the pliers,0.12,0,resources/,pics/mummy.jpg,pics/binder03b.jpg,pics/bowtie.jpg,pics/toiletpaper01a.jpg,pics/football.jpg,pics/blender.jpg,pics/needlenosepliers01.jpg,pics/stapler13.jpg,pics/zebra.jpg,pics/hammerheadshark.jpg,pics/sealion.jpg,blankImage,blankImage,blankImage,blankImage,blankImage,blankImage,needlenosepliers01,6,,,,,,,,,,,,,,,,,,,,,,,,,,,,,,,,,,,,,,,,,0,29,29,5,1,,,,,,,,,,,,,,,,,,,,,,,,,,,,,,,,,,,,,,,,,,,,,,,,,,,,,,,
,,,,,65cbb33505f664b0a9c1fd1b,6669d216483b4754e2264ff7,6669dba991f47920e1ef29e5,24,Female,English,2024-06-12_10h35.11.242,ABmemTask3,2023.2.3,Win32,59.88023952,,,,,,,,,,,,,,,,,,,,,,,,,,,,,,,710.0191,711.0152,711.0152,7,711.5168,712.4523,0.0005,712.569,0.1168,0.1166,0.1169,0.1169,0.1302,0.1027,0.122,0.1129,,,,712.569,713.0023,right,0.4012,,713.0024,713.2844,right,0.2514,,28,0,62,713.2844,714.2725,,,,,,1_AB,L1_T1P_T2P,1,1,1,4,5,3,4,9,antenna,Did you see the antenna,0.12,0,resources/,pics/microscope.jpg,pics/spoon01.jpg,pics/dromedary.jpg,pics/antenna.jpg,pics/stapler03.jpg,pics/hen.jpg,pics/leaf02a.jpg,pics/candle01.jpg,pics/sealion.jpg,blankImage,blankImage,blankImage,blankImage,blankImage,blankImage,blankImage,blankImage,antenna,9,,,,,,,,,,,,,,,,,,,,,,,,,,,,,,,,,,,,,,,,,0,30,30,8,1,,,,,,,,,,,,,,,,,,,,,,,,,,,,,,,,,,,,,,,,,,,,,,,,,,,,,,,
,,,,,65cbb33505f664b0a9c1fd1b,6669d216483b4754e2264ff7,6669dba991f47920e1ef29e5,24,Female,English,2024-06-12_10h35.11.242,ABmemTask3,2023.2.3,Win32,59.88023952,,,,,,,,,,,,,,,,,,,,,,,,,,,,,,,714.2728,715.274,715.274,7,715.7752,717.4112,0.0006,717.5278,0.1167,0.1167,0.1162,0.1178,0.1313,0.1063,0.1169,0.1131,0.1158,0.117,0.1173,717.5278,718.6802,left,1.136,,718.6803,718.9978,right,0.3013,,30,0,64,718.9979,719.9994,,,,,,1_AB,L5_T1A_T2P,5,0,1,5,10,4,5,15,scorpion,Did you see the scorpion,0.12,0,resources/,pics/pictureframe04.jpg,pics/binder03b.jpg,pics/pencil01.jpg,pics/leaf02a.jpg,pics/icecube01.jpg,pics/dromedary.jpg,pics/toiletpaper01a.jpg,pics/peanut01.jpg,pics/golfball.jpg,pics/stapler03.jpg,pics/carrot01.jpg,pics/peach01.jpg,pics/sealion.jpg,pics/football.jpg,pics/zebra.jpg,blankImage,blankImage,scorpion,54,0.1167,0.117,0.1167,,,,,,,,,,,,,,,,,,,,,,,,,,,,,,,,,,,,,,0,31,31,53,1,,,,,,,,,,,,,,,,,,,,,,,,,,,,,,,,,,,,,,,,,,,,,,,,,,,,,,,
,,,,,65cbb33505f664b0a9c1fd1b,6669d216483b4754e2264ff7,6669dba991f47920e1ef29e5,24,Female,English,2024-06-12_10h35.11.242,ABmemTask3,2023.2.3,Win32,59.88023952,,,,,,,,,,,,,,,,,,,,,,,,,,,,,,,719.9998,721.0021,721.0022,7,721.5023,722.9075,0.0007,723.0228,0.117,0.1172,0.1175,0.1159,0.1171,0.1169,0.1168,0.1176,0.116,0.1177,0.1164,723.0229,723.4407,right,0.4006,,723.4407,723.6751,right,0.2188,,32,0,66,723.6751,724.6774,,,,,,1_AB,L1_T1P_T2P,1,1,1,7,8,6,5,13,strawberry,Did you see the strawberry,0.12,0,resources/,pics/sealion.jpg,pics/backpack01a.jpg,pics/binoculars01b.jpg,pics/ball02.jpg,pics/proboscismonkey.jpg,pics/pictureframe04.jpg,pics/strawberry.jpg,pics/stapler12.jpg,pics/seaturtle.jpg,pics/dustpan.jpg,pics/bowlingpin.jpg,pics/hammerheadshark.jpg,pics/hen.jpg,blankImage,blankImage,blankImage,blankImage,strawberry,10,0.1187,,,,,,,,,,,,,,,,,,,,,,,,,,,,,,,,,,,,,,,,0,32,32,9,1,,,,,,,,,,,,,,,,,,,,,,,,,,,,,,,,,,,,,,,,,,,,,,,,,,,,,,,
,,,,,65cbb33505f664b0a9c1fd1b,6669d216483b4754e2264ff7,6669dba991f47920e1ef29e5,24,Female,English,2024-06-12_10h35.11.242,ABmemTask3,2023.2.3,Win32,59.88023952,,,,,,,,,,,,,,,,,,,,,,,,,,,,,,,724.6777,725.6784,725.6785,7,726.18,727.7003,0.0007,727.8174,0.1167,0.118,0.1158,0.1174,0.1161,0.1172,0.1171,0.1175,0.1162,0.117,0.1169,727.8176,728.2687,right,0.4346,,728.2687,728.5024,right,0.2179,,34,0,68,728.5024,729.5045,,,,,,1_AB,L5_T1P_T2P,5,1,1,4,9,3,5,14,pliers,Did you see the pliers,0.12,0,resources/,pics/calendar.jpg,pics/footballhelmet.jpg,pics/seaturtle.jpg,pics/pliers02b.jpg,pics/wheel01.jpg,pics/cannon.jpg,pics/proboscismonkey.jpg,pics/shovel01.jpg,pics/stapler06.jpg,pics/football.jpg,pics/hose.jpg,pics/dustpan.jpg,pics/spiderweb.jpg,pics/golfball.jpg,blankImage,blankImage,blankImage,pliers02b,48,0.1168,0.1169,,,,,,,,,,,,,,,,,,,,,,,,,,,,,,,,,,,,,,,0,33,33,47,1,,,,,,,,,,,,,,,,,,,,,,,,,,,,,,,,,,,,,,,,,,,,,,,,,,,,,,,
,,,,,65cbb33505f664b0a9c1fd1b,6669d216483b4754e2264ff7,6669dba991f47920e1ef29e5,24,Female,English,2024-06-12_10h35.11.242,ABmemTask3,2023.2.3,Win32,59.88023952,,,,,,,,,,,,,,,,,,,,,,,,,,,,,,,729.5049,730.5066,730.5067,7,731.0082,732.1778,0.0005,732.2945,0.1167,0.1177,0.116,0.117,0.117,0.1171,0.1168,0.1174,0.117,0.1165,,732.2946,732.8464,right,0.5356,,732.8464,733.0797,right,0.2172,,36,0,70,733.0797,734.0818,,,,,,1_AB,L1_T1P_T2P,1,1,1,7,8,6,3,11,toothpick,Did you see the toothpick,0.12,0,resources/,pics/candleholder01.jpg,pics/blender.jpg,pics/siamesecat.jpg,pics/peanut01.jpg,pics/spiderweb.jpg,pics/football.jpg,pics/toothpick02.jpg,pics/stapler04b.jpg,pics/seagull.jpg,pics/pictureframe04.jpg,pics/shipinabottle.jpg,blankImage,blankImage,blankImage,blankImage,blankImage,blankImage,toothpick02,17,,,,,,,,,,,,,,,,,,,,,,,,,,,,,,,,,,,,,,,,,0,34,34,16,1,,,,,,,,,,,,,,,,,,,,,,,,,,,,,,,,,,,,,,,,,,,,,,,,,,,,,,,
,,,,,65cbb33505f664b0a9c1fd1b,6669d216483b4754e2264ff7,6669dba991f47920e1ef29e5,24,Female,English,2024-06-12_10h35.11.242,ABmemTask3,2023.2.3,Win32,59.88023952,,,,,,,,,,,,,,,,,,,,,,,,,,,,,,,734.0822,735.0837,735.0838,7,735.5851,737.1055,0.0007,737.2221,0.1174,0.1165,0.117,0.1168,0.1169,0.1168,0.117,0.1173,0.1167,0.1167,0.1168,737.2221,738.5925,left,1.3537,,738.5926,739.0942,right,0.486,,38,0,72,739.0942,740.0957,,,,,,1_AB,L5_T1A_T2P,5,0,1,4,9,3,5,14,lemon,Did you see the lemon,0.12,0,resources/,pics/seaturtle.jpg,pics/lightswitch01.jpg,pics/candle01.jpg,pics/cannon.jpg,pics/seagull.jpg,pics/spoon01.jpg,pics/spiderweb.jpg,pics/sewingmachine01a.jpg,pics/stapler05.jpg,pics/binoculars01b.jpg,pics/zebra.jpg,pics/sealion.jpg,pics/shovel01.jpg,pics/wheel01.jpg,blankImage,blankImage,blankImage,lemon02,56,0.1165,0.1174,,,,,,,,,,,,,,,,,,,,,,,,,,,,,,,,,,,,,,,0,35,35,55,1,,,,,,,,,,,,,,,,,,,,,,,,,,,,,,,,,,,,,,,,,,,,,,,,,,,,,,,
,,,,,65cbb33505f664b0a9c1fd1b,6669d216483b4754e2264ff7,6669dba991f47920e1ef29e5,24,Female,English,2024-06-12_10h35.11.242,ABmemTask3,2023.2.3,Win32,59.88023952,,,,,,,,,,,,,,,,,,,,,,,,,,,,,,,740.096,741.0983,741.0983,7,741.5986,743.1188,0.0004,743.2357,0.1174,0.1164,0.117,0.1173,0.1161,0.1179,0.1166,0.1173,0.1161,0.1174,0.1162,743.2357,743.7537,right,0.5019,,743.7537,743.9212,right,0.1516,,40,0,74,743.9212,744.9222,,,,,,1_AB,L5_T1P_T2P,5,1,1,6,11,5,3,14,mail box,Did you see the mail box,0.12,0,resources/,pics/pictureframe04.jpg,pics/seaturtle.jpg,pics/blender.jpg,pics/carrot01.jpg,pics/nutcracker01.jpg,pics/mailbox02.jpg,pics/seagull.jpg,pics/sink.jpg,pics/siamesecat.jpg,pics/spiderweb.jpg,pics/stapler08.jpg,pics/safetypin.jpg,pics/candle01.jpg,pics/mummy.jpg,blankImage,blankImage,blankImage,mailbox02,43,0.1173,0.1168,,,,,,,,,,,,,,,,,,,,,,,,,,,,,,,,,,,,,,,0,36,36,42,1,,,,,,,,,,,,,,,,,,,,,,,,,,,,,,,,,,,,,,,,,,,,,,,,,,,,,,,
,,,,,65cbb33505f664b0a9c1fd1b,6669d216483b4754e2264ff7,6669dba991f47920e1ef29e5,24,Female,English,2024-06-12_10h35.11.242,ABmemTask3,2023.2.3,Win32,59.88023952,,,,,,,,,,,,,,,,,,,,,,,,,,,,,,,744.9226,745.9253,745.9253,7,746.4259,747.2454,0.0004,747.3612,0.1176,0.1165,0.1166,0.1185,0.1157,0.1163,0.1179,,,,,747.3612,748.6152,left,1.2375,,748.6152,748.9986,right,0.3673,,42,0,76,748.9986,750.0016,,,,,,1_AB,L1_T1A_T2P,1,0,1,4,5,3,3,8,Parking meter,Did you see the Parking meter,0.12,0,resources/,pics/leaf02a.jpg,pics/carrot01.jpg,pics/sink.jpg,pics/butterfly.jpg,pics/stapler10.jpg,pics/pictureframe04.jpg,pics/spiderweb.jpg,pics/icecube01.jpg,blankImage,blankImage,blankImage,blankImage,blankImage,blankImage,blankImage,blankImage,blankImage,parkingmeter,30,,,,,,,,,,,,,,,,,,,,,,,,,,,,,,,,,,,,,,,,,0,37,37,29,1,,,,,,,,,,,,,,,,,,,,,,,,,,,,,,,,,,,,,,,,,,,,,,,,,,,,,,,
,,,,,65cbb33505f664b0a9c1fd1b,6669d216483b4754e2264ff7,6669dba991f47920e1ef29e5,24,Female,English,2024-06-12_10h35.11.242,ABmemTask3,2023.2.3,Win32,59.88023952,,,,,,,,,,,,,,,,,,,,,,,,,,,,,,,750.0019,751.0027,751.0027,7,751.5044,752.7915,0.0005,752.9076,0.1168,0.1167,0.1171,0.1167,0.1168,0.117,0.1174,0.1163,0.1176,0.1163,0.1179,752.9076,753.3922,right,0.468,,753.3922,753.6091,right,0.2009,,44,0,78,753.6091,754.6121,,,,,,1_AB,L1_T1P_T2P,1,1,1,6,7,5,5,12,jeep,Did you see the jeep,0.12,0,resources/,pics/sandbarshark.jpg,pics/laptop01a.jpg,pics/peach01.jpg,pics/binoculars01b.jpg,pics/giraffe.jpg,pics/jeep.jpg,pics/stapler03b.jpg,pics/fanblades.jpg,pics/cannon.jpg,pics/starfish01.jpg,pics/piggybank.jpg,pics/noparkingsign.jpg,blankImage,blankImage,blankImage,blankImage,blankImage,jeep,2,,,,,,,,,,,,,,,,,,,,,,,,,,,,,,,,,,,,,,,,,0,38,38,1,1,,,,,,,,,,,,,,,,,,,,,,,,,,,,,,,,,,,,,,,,,,,,,,,,,,,,,,,
,,,,,65cbb33505f664b0a9c1fd1b,6669d216483b4754e2264ff7,6669dba991f47920e1ef29e5,24,Female,English,2024-06-12_10h35.11.242,ABmemTask3,2023.2.3,Win32,59.88023952,,,,,,,,,,,,,,,,,,,,,,,,,,,,,,,754.6124,755.6134,755.6135,7,756.1148,757.0501,0.0004,757.167,0.1173,0.1166,0.1172,0.1167,0.1174,0.1169,0.1166,0.1164,,,,757.1671,758.0866,left,0.9029,,758.0867,758.4372,right,0.3348,,44,0,80,758.4372,759.4392,,,,,,1_AB,L1_T1P_T2P,1,1,1,4,5,3,4,9,Chefs hat,Did you see the Chefs hat,0.12,0,resources/,pics/sewingmachine01a.jpg,pics/icecube01.jpg,pics/fanblades.jpg,pics/chefshat.jpg,pics/stapler06.jpg,pics/ashtray01.jpg,pics/blender.jpg,pics/sandbarshark.jpg,pics/lock03a.jpg,blankImage,blankImage,blankImage,blankImage,blankImage,blankImage,blankImage,blankImage,chefshat,12,,,,,,,,,,,,,,,,,,,,,,,,,,,,,,,,,,,,,,,,,0,39,39,11,1,,,,,,,,,,,,,,,,,,,,,,,,,,,,,,,,,,,,,,,,,,,,,,,,,,,,,,,
,,,,,65cbb33505f664b0a9c1fd1b,6669d216483b4754e2264ff7,6669dba991f47920e1ef29e5,24,Female,English,2024-06-12_10h35.11.242,ABmemTask3,2023.2.3,Win32,59.88023952,,,,,,,,,,,,,,,,,,,,,,,,,,,,,,,759.4396,760.441,760.441,7,760.9424,762.1121,0.0006,762.2285,0.117,0.1164,0.1178,0.1167,0.1165,0.117,0.1166,0.1173,0.1165,0.1174,,762.2286,762.9981,left,0.7528,,762.9981,763.5654,right,0.5513,,46,0,82,763.5654,764.5672,,,,,,1_AB,L1_T1A_T2P,1,0,1,7,8,6,3,11,turkey,Did you see the turkey,0.12,0,resources/,pics/proboscismonkey.jpg,pics/blender.jpg,pics/sealion.jpg,pics/snowshoe.jpg,pics/carrot01.jpg,pics/microscope.jpg,pics/piggybank.jpg,pics/stapler12.jpg,pics/peanut01.jpg,pics/dustpan.jpg,pics/footballhelmet.jpg,blankImage,blankImage,blankImage,blankImage,blankImage,blankImage,turkey,26,,,,,,,,,,,,,,,,,,,,,,,,,,,,,,,,,,,,,,,,,0,40,40,25,1,,,,,,,,,,,,,,,,,,,,,,,,,,,,,,,,,,,,,,,,,,,,,,,,,,,,,,,
,,,,,65cbb33505f664b0a9c1fd1b,6669d216483b4754e2264ff7,6669dba991f47920e1ef29e5,24,Female,English,2024-06-12_10h35.11.242,ABmemTask3,2023.2.3,Win32,59.88023952,,,,,,,,,,,,,,,,,,,,,,,,,,,,,,,764.5729,765.5723,765.5724,7,766.0882,767.2426,0.0006,767.3592,0.1063,0.1122,0.1226,0.1108,0.1168,0.1174,0.1172,0.1162,0.1171,0.1173,,767.3593,768.1435,left,0.7699,,768.1435,768.4283,right,0.2669,,48,0,84,768.4283,769.4295,,,,,,1_AB,L1_T1A_T2P,1,0,1,5,6,4,5,11,Recorder,Did you see the Recorder,0.12,0,resources/,pics/bowtie.jpg,pics/nutcracker01.jpg,pics/hairdryer02a.jpg,pics/shovel01.jpg,pics/onion.jpg,pics/stapler13.jpg,pics/safetypin.jpg,pics/spiderweb.jpg,pics/seagull.jpg,pics/dustpan.jpg,pics/icecube01.jpg,blankImage,blankImage,blankImage,blankImage,blankImage,blankImage,recorder04,28,,,,,,,,,,,,,,,,,,,,,,,,,,,,,,,,,,,,,,,,,0,41,41,27,1,,,,,,,,,,,,,,,,,,,,,,,,,,,,,,,,,,,,,,,,,,,,,,,,,,,,,,,
,,,,,65cbb33505f664b0a9c1fd1b,6669d216483b4754e2264ff7,6669dba991f47920e1ef29e5,24,Female,English,2024-06-12_10h35.11.242,ABmemTask3,2023.2.3,Win32,59.88023952,,,,,,,,,,,,,,,,,,,,,,,,,,,,,,,769.4298,770.4315,770.4316,7,770.9327,772.3354,0.0005,772.4537,0.1161,0.1172,0.1169,0.1181,0.116,0.1171,0.1165,0.1169,0.1169,0.117,0.117,772.4537,773.2718,left,0.8028,,773.2718,773.5881,right,0.3008,,48,0,86,773.5881,774.5912,,,,,,1_AB,L1_T1P_T2P,1,1,1,7,8,6,5,13,Totem Pole,Did you see the Totem Pole,0.12,0,resources/,pics/laptop01a.jpg,pics/carrot01.jpg,pics/wheel01.jpg,pics/icecube01.jpg,pics/ashtray01.jpg,pics/lock03a.jpg,pics/totempole.jpg,pics/stapler08.jpg,pics/golfball.jpg,pics/pencil01.jpg,pics/banjo.jpg,pics/sandbarshark.jpg,pics/shipinabottle.jpg,blankImage,blankImage,blankImage,blankImage,totempole,22,0.1168,,,,,,,,,,,,,,,,,,,,,,,,,,,,,,,,,,,,,,,,0,42,42,21,1,,,,,,,,,,,,,,,,,,,,,,,,,,,,,,,,,,,,,,,,,,,,,,,,,,,,,,,
,,,,,65cbb33505f664b0a9c1fd1b,6669d216483b4754e2264ff7,6669dba991f47920e1ef29e5,24,Female,English,2024-06-12_10h35.11.242,ABmemTask3,2023.2.3,Win32,59.88023952,,,,,,,,,,,,,,,,,,,,,,,,,,,,,,,774.5964,775.5929,775.593,7,776.0937,777.1465,0.0005,777.263,0.1169,0.1168,0.1167,0.1181,0.1159,0.1172,0.1168,0.1169,0.1172,,,777.2631,778.0822,right,0.8017,,778.0823,778.4496,left,0.3514,,48,0,88,778.4496,779.4517,,,,,,1_AB,L1_T1P_T2P,1,1,1,4,5,3,5,10,vacuum,Did you see the vacuum,0.12,0,resources/,pics/birdhouse.jpg,pics/floortile02.jpg,pics/toiletpaper01a.jpg,pics/vacuumcleaner01.jpg,pics/stapler02.jpg,pics/spoon01.jpg,pics/banjo.jpg,pics/binder03b.jpg,pics/leaf02a.jpg,pics/aquarium.jpg,blankImage,blankImage,blankImage,blankImage,blankImage,blankImage,blankImage,vacuumcleaner01,5,,,,,,,,,,,,,,,,,,,,,,,,,,,,,,,,,,,,,,,,,0,43,43,4,1,,,,,,,,,,,,,,,,,,,,,,,,,,,,,,,,,,,,,,,,,,,,,,,,,,,,,,,
,,,,,65cbb33505f664b0a9c1fd1b,6669d216483b4754e2264ff7,6669dba991f47920e1ef29e5,24,Female,English,2024-06-12_10h35.11.242,ABmemTask3,2023.2.3,Win32,59.88023952,,,,,,,,,,,,,,,,,,,,,,,,,,,,,,,779.4521,780.4544,780.4545,7,780.955,782.4759,0.0005,782.5926,0.1178,0.1175,0.1158,0.117,0.1175,0.1164,0.1171,0.1171,0.1162,0.117,0.1175,782.5927,783.0275,right,0.4179,,783.0275,783.2779,right,0.2345,,50,0,90,783.2779,784.2794,,,,,,1_AB,L5_T1P_T2P,5,1,1,4,9,3,5,14,asparagus,Did you see the asparagus,0.12,0,resources/,pics/siamesecat.jpg,pics/starfish01.jpg,pics/aquarium.jpg,pics/asparagus.jpg,pics/salmon.jpg,pics/binoculars01b.jpg,pics/ball02.jpg,pics/calendar.jpg,pics/stapler10.jpg,pics/giraffe.jpg,pics/dromedary.jpg,pics/seaturtle.jpg,pics/sandbarshark.jpg,pics/shipinabottle.jpg,blankImage,blankImage,blankImage,asparagus,44,0.1165,0.1171,,,,,,,,,,,,,,,,,,,,,,,,,,,,,,,,,,,,,,,0,44,44,43,1,,,,,,,,,,,,,,,,,,,,,,,,,,,,,,,,,,,,,,,,,,,,,,,,,,,,,,,
