consent1.started,consent1.stopped,key_resp_8.keys,key_resp_8.rt,key_resp_8.duration,PROLIFIC_PID,STUDY_ID,SESSION_ID,age,sex,native language,date,expName,psychopyVersion,OS,frameRate,consent2.started,consent2.stopped,key_resp_9.keys,key_resp_9.rt,key_resp_9.duration,consent3.started,consent3.stopped,key_resp_10.keys,key_resp_10.rt,key_resp_10.duration,consent4.started,consent4.stopped,key_resp_11.keys,key_resp_11.rt,key_resp_11.duration,consent5.started,consent5.stopped,key_resp_12.keys,key_resp_12.rt,key_resp_12.duration,bonusInstruct.started,bonusInstruct.stopped,key_resp_14.keys,key_resp_14.rt,key_resp_14.duration,practiceInstruct.started,practiceInstruct.stopped,key_resp.keys,key_resp.rt,key_resp.duration,cueWord_2.started,cueWord_2.stopped,fix.started,frameTarget,fix.stopped,trial.started,img1Add,trial.stopped,img2Add,img3Add,img4Add,img5Add,img6Add,img7Add,img8Add,img9Add,img10Add,img11Add,img12Add,prompt1.started,prompt1.stopped,key_resp_2.keys,key_resp_2.rt,key_resp_2.duration,prompt2.started,prompt2.stopped,key_resp_3.keys,key_resp_3.rt,key_resp_3.duration,runningAcc_AB,runningTotal,runningCount_AB,feedback.started,feedback.stopped,trials.thisRepN,trials.thisTrialN,trials.thisN,trials.thisIndex,trials.ran,TrialType,CondType,Lag,T1_PA,T2_PA,T1Loc,T2Loc,PreDistractor,PostDistractor,TotalImg,cueWord,T1cue,StimLength,isi,PicFolder,Img1,Img2,Img3,Img4,Img5,Img6,Img7,Img8,Img9,Img10,Img11,Img12,Img13,Img14,Img15,Img16,Img17,T1_Identity,trialID,img13Add,img14Add,img15Add,ABfeedback.started,ABfeedback.stopped,key_resp_13.keys,key_resp_13.rt,key_resp_13.duration,MemPracticeInstruction.started,MemPracticeInstruction.stopped,key_resp_5.keys,key_resp_5.rt,key_resp_5.duration,memTrial.started,memTrial.stopped,Mem_runningPoints,key_resp_4.keys,key_resp_4.rt,key_resp_4.duration,memTrialFeedback.started,memTrialFeedback.stopped,trials_2.thisRepN,trials_2.thisTrialN,trials_2.thisN,trials_2.thisIndex,trials_2.ran,ABtrialID,priorLag,image,memFeedback.started,memFeedback.frame,memFeedback.ended,memFeedback.stopped,bonus.started,bonus.stopped,memoryBlockABInstruct.started,memoryBlockABInstruct.stopped,key_resp_6.keys,key_resp_6.rt,key_resp_6.duration,AB_block_1.thisRepN,AB_block_1.thisTrialN,AB_block_1.thisN,AB_block_1.thisIndex,AB_block_1.ran,img16Add,img17Add,AB_break1.started,AB_break1.stopped,PerceiveBlockABInstruct.started,PerceiveBlockABInstruct.stopped,key_resp_7.keys,key_resp_7.rt,key_resp_7.duration,AB_block_2.thisRepN,AB_block_2.thisTrialN,AB_block_2.thisN,AB_block_2.thisIndex,AB_block_2.ran,AB_break2.started,AB_break2.stopped,AB_block_3.thisRepN,AB_block_3.thisTrialN,AB_block_3.thisN,AB_block_3.thisIndex,AB_block_3.ran,AB_break3.started,AB_break3.stopped,AB_block_4.thisRepN,AB_block_4.thisTrialN,AB_block_4.thisN,AB_block_4.thisIndex,AB_block_4.ran,AB_break4.started,AB_break4.stopped,AB_block_5.thisRepN,AB_block_5.thisTrialN,AB_block_5.thisN,AB_block_5.thisIndex,AB_block_5.ran,AB_break5.started,AB_break5.stopped,AB_block_6.thisRepN,AB_block_6.thisTrialN,AB_block_6.thisN,AB_block_6.thisIndex,AB_block_6.ran,AB_break6.started,AB_break6.stopped,MemInstructionSURPRISE.started,MemInstructionSURPRISE.stopped,MemInstruction.started,MemInstruction.stopped,memBreak.started,memBreak.stopped,Mem_block_1.thisRepN,Mem_block_1.thisTrialN,Mem_block_1.thisN,Mem_block_1.thisIndex,Mem_block_1.ran
0.0003,10.5646,space,10.547,,6658ee766e2632a6de409027,6669d216483b4754e2264ff7,6669dc6e4c43b763d92b78c7,31,Female,English,2024-06-12_10h38.38.207,ABmemTask3,2023.2.3,Win32,60.24096386,,,,,,,,,,,,,,,,,,,,,,,,,,,,,,,,,,,,,,,,,,,,,,,,,,,,,,,,,,,,,,,,,,,,,,,,,,,,,,,,,,,,,,,,,,,,,,,,,,,,,,,,,,,,,,,,,,,,,,,,,,,,,,,,,,,,,,,,,,,,,,,,,,,,,,,,,,,,,,,,,,,,,,,,,,,,,,,,,,,,,,,,,,,,,,,,,,,,,,,,,,,
,,,,,6658ee766e2632a6de409027,6669d216483b4754e2264ff7,6669dc6e4c43b763d92b78c7,31,Female,English,2024-06-12_10h38.38.207,ABmemTask3,2023.2.3,Win32,60.24096386,10.5654,19.2699,space,8.6272,,,,,,,,,,,,,,,,,,,,,,,,,,,,,,,,,,,,,,,,,,,,,,,,,,,,,,,,,,,,,,,,,,,,,,,,,,,,,,,,,,,,,,,,,,,,,,,,,,,,,,,,,,,,,,,,,,,,,,,,,,,,,,,,,,,,,,,,,,,,,,,,,,,,,,,,,,,,,,,,,,,,,,,,,,,,,,,,,,,,,,,,,,,,,,,,,,,,,,,
,,,,,6658ee766e2632a6de409027,6669d216483b4754e2264ff7,6669dc6e4c43b763d92b78c7,31,Female,English,2024-06-12_10h38.38.207,ABmemTask3,2023.2.3,Win32,60.24096386,,,,,,19.2704,29.6894,space,10.3879,,,,,,,,,,,,,,,,,,,,,,,,,,,,,,,,,,,,,,,,,,,,,,,,,,,,,,,,,,,,,,,,,,,,,,,,,,,,,,,,,,,,,,,,,,,,,,,,,,,,,,,,,,,,,,,,,,,,,,,,,,,,,,,,,,,,,,,,,,,,,,,,,,,,,,,,,,,,,,,,,,,,,,,,,,,,,,,,,,,,,,,,,,,,,,,,,,
,,,,,6658ee766e2632a6de409027,6669d216483b4754e2264ff7,6669dc6e4c43b763d92b78c7,31,Female,English,2024-06-12_10h38.38.207,ABmemTask3,2023.2.3,Win32,60.24096386,,,,,,,,,,,29.6899,41.5235,space,11.781,,,,,,,,,,,,,,,,,,,,,,,,,,,,,,,,,,,,,,,,,,,,,,,,,,,,,,,,,,,,,,,,,,,,,,,,,,,,,,,,,,,,,,,,,,,,,,,,,,,,,,,,,,,,,,,,,,,,,,,,,,,,,,,,,,,,,,,,,,,,,,,,,,,,,,,,,,,,,,,,,,,,,,,,,,,,,,,,,,,,,,,,,,,,,
,,,,,6658ee766e2632a6de409027,6669d216483b4754e2264ff7,6669dc6e4c43b763d92b78c7,31,Female,English,2024-06-12_10h38.38.207,ABmemTask3,2023.2.3,Win32,60.24096386,,,,,,,,,,,,,,,,41.5239,47.5568,space,5.9809,,,,,,,,,,,,,,,,,,,,,,,,,,,,,,,,,,,,,,,,,,,,,,,,,,,,,,,,,,,,,,,,,,,,,,,,,,,,,,,,,,,,,,,,,,,,,,,,,,,,,,,,,,,,,,,,,,,,,,,,,,,,,,,,,,,,,,,,,,,,,,,,,,,,,,,,,,,,,,,,,,,,,,,,,,,,,,,,,,,,,,,,
,,,,,6658ee766e2632a6de409027,6669d216483b4754e2264ff7,6669dc6e4c43b763d92b78c7,31,Female,English,2024-06-12_10h38.38.207,ABmemTask3,2023.2.3,Win32,60.24096386,,,,,,,,,,,,,,,,,,,,,47.5572,61.3081,space,13.6871,,,,,,,,,,,,,,,,,,,,,,,,,,,,,,,,,,,,,,,,,,,,,,,,,,,,,,,,,,,,,,,,,,,,,,,,,,,,,,,,,,,,,,,,,,,,,,,,,,,,,,,,,,,,,,,,,,,,,,,,,,,,,,,,,,,,,,,,,,,,,,,,,,,,,,,,,,,,,,,,,,,,,,,,,,,,,,,,,,,
,,,,,6658ee766e2632a6de409027,6669d216483b4754e2264ff7,6669dc6e4c43b763d92b78c7,31,Female,English,2024-06-12_10h38.38.207,ABmemTask3,2023.2.3,Win32,60.24096386,,,,,,,,,,,,,,,,,,,,,,,,,,61.3085,82.7881,space,21.4449,,,,,,,,,,,,,,,,,,,,,,,,,,,,,,,,,,,,,,,,,,,,,,,,,,,,,,,,,,,,,,,,,,,,,,,,,,,,,,,,,,,,,,,,,,,,,,,,,,,,,,,,,,,,,,,,,,,,,,,,,,,,,,,,,,,,,,,,,,,,,,,,,,,,,,,,,,,,,,,,,,,,,,,,,,,,,,
,,,,,6658ee766e2632a6de409027,6669d216483b4754e2264ff7,6669dc6e4c43b763d92b78c7,31,Female,English,2024-06-12_10h38.38.207,ABmemTask3,2023.2.3,Win32,60.24096386,,,,,,,,,,,,,,,,,,,,,,,,,,,,,,,82.8107,83.8043,83.8048,15,84.3029,87.0552,0.0041,87.3033,0.2472,0.2506,0.2509,0.2497,0.2493,0.251,0.2486,0.2509,0.25,0.2505,0.2502,87.3054,99.8235,left,12.4968,,99.824,104.1394,right,4.2949,,-4,0,2,104.1403,105.1387,0,0,0,0,1,prac_AB,L1_T1P_T2A,1,1,0,6,7,5,5,12,cat,Did you see the cat,0.25,0,resources/,pics/shipinabottle.jpg,pics/table01.jpg,pics/dustpan.jpg,pics/golfball.jpg,pics/giraffe.jpg,pics/cat.jpg,pics/peanut01.jpg,pics/pictureframe04.jpg,pics/fanblades.jpg,pics/laptop01a.jpg,pics/ball02.jpg,pics/blender.jpg,blankImage,blankImage,blankImage,blankImage,blankImage,cat,8,,,,,,,,,,,,,,,,,,,,,,,,,,,,,,,,,,,,,,,,,,,,,,,,,,,,,,,,,,,,,,,,,,,,,,,,,,,,,,,,,,,,,,,,,,,,,,,,,,,,
,,,,,6658ee766e2632a6de409027,6669d216483b4754e2264ff7,6669dc6e4c43b763d92b78c7,31,Female,English,2024-06-12_10h38.38.207,ABmemTask3,2023.2.3,Win32,60.24096386,,,,,,,,,,,,,,,,,,,,,,,,,,,,,,,105.1649,106.1546,106.1548,14,106.6543,108.7563,0.0024,108.9883,0.2305,0.234,0.2349,0.2335,0.2339,0.2324,0.2342,0.2328,0.234,,,108.9886,110.2058,right,1.1878,,110.2059,110.8888,right,0.6681,,-2,0,4,110.8891,111.8869,0,1,1,1,1,prac_AB,L1_T1P_T2P,1,1,1,5,6,4,4,10,tree,Did you see the tree,0.24,0,resources/,pics/carrot01.jpg,pics/hammerheadshark.jpg,pics/kangaroo.jpg,pics/proboscismonkey.jpg,pics/tree.jpg,pics/stapler07.jpg,pics/siamesecat.jpg,pics/ball02.jpg,pics/pictureframe04.jpg,pics/mummy.jpg,blankImage,blankImage,blankImage,blankImage,blankImage,blankImage,blankImage,tree,1,,,,,,,,,,,,,,,,,,,,,,,,,,,,,,,,,,,,,,,,,,,,,,,,,,,,,,,,,,,,,,,,,,,,,,,,,,,,,,,,,,,,,,,,,,,,,,,,,,,,
,,,,,6658ee766e2632a6de409027,6669d216483b4754e2264ff7,6669dc6e4c43b763d92b78c7,31,Female,English,2024-06-12_10h38.38.207,ABmemTask3,2023.2.3,Win32,60.24096386,,,,,,,,,,,,,,,,,,,,,,,,,,,,,,,111.8887,112.8882,112.8884,14,113.3883,115.9563,0.0029,116.1889,0.2322,0.2336,0.2323,0.2341,0.2325,0.2335,0.2339,0.2332,0.2339,0.2332,0.2334,116.189,117.9227,left,1.7048,,117.9228,118.49,right,0.5505,,0,0,6,118.4903,119.4889,0,2,2,2,1,prac_AB,L1_T1A_T2P,1,0,1,7,8,6,4,12,grapes,Did you see the grapes,0.23,0,resources/,pics/sailboat.jpg,pics/butterfly.jpg,pics/giraffe.jpg,pics/spoon01.jpg,pics/hose.jpg,pics/nutcracker01.jpg,pics/table01.jpg,pics/stapler13.jpg,pics/pencil01.jpg,pics/football.jpg,pics/triangle.jpg,pics/hairdryer02a.jpg,blankImage,blankImage,blankImage,blankImage,blankImage,grape01,6,,,,,,,,,,,,,,,,,,,,,,,,,,,,,,,,,,,,,,,,,,,,,,,,,,,,,,,,,,,,,,,,,,,,,,,,,,,,,,,,,,,,,,,,,,,,,,,,,,,,
,,,,,6658ee766e2632a6de409027,6669d216483b4754e2264ff7,6669dc6e4c43b763d92b78c7,31,Female,English,2024-06-12_10h38.38.207,ABmemTask3,2023.2.3,Win32,60.24096386,,,,,,,,,,,,,,,,,,,,,,,,,,,,,,,119.5173,120.5109,120.5109,13,121.0046,124.0393,0.0037,124.2552,0.215,0.2166,0.2169,0.2158,0.2161,0.2182,0.2163,0.2171,0.216,0.2169,0.2159,124.2555,124.889,right,0.6047,,124.8895,125.256,right,0.3422,,2,0,8,125.2562,126.2564,0,3,3,3,1,prac_AB,L5_T1P_T2P,5,1,1,7,12,6,3,15,Human skull,Did you see the Human skull,0.22,0,resources/,pics/peach01.jpg,pics/proboscismonkey.jpg,pics/hose.jpg,pics/laptop01a.jpg,pics/hammerheadshark.jpg,pics/nutcracker01.jpg,pics/humanskull.jpg,pics/table01.jpg,pics/icecube01.jpg,pics/boot02b.jpg,pics/calendar.jpg,pics/stapler03a.jpg,pics/ashtray01.jpg,pics/giraffe.jpg,pics/dromedary.jpg,blankImage,blankImage,humanskull,12,0.2175,0.2166,0.2167,,,,,,,,,,,,,,,,,,,,,,,,,,,,,,,,,,,,,,,,,,,,,,,,,,,,,,,,,,,,,,,,,,,,,,,,,,,,,,,,,,,,,,,,,,,,,,,,,
,,,,,6658ee766e2632a6de409027,6669d216483b4754e2264ff7,6669dc6e4c43b763d92b78c7,31,Female,English,2024-06-12_10h38.38.207,ABmemTask3,2023.2.3,Win32,60.24096386,,,,,,,,,,,,,,,,,,,,,,,,,,,,,,,126.2576,127.2553,127.2555,13,127.7545,129.9227,0.0031,130.1382,0.2156,0.2165,0.2172,0.2168,0.2162,0.2171,0.2159,0.217,0.2168,0.2167,,130.1383,131.1552,left,0.9875,,131.1555,131.5221,right,0.3386,,4,0,10,131.5224,132.5216,0,4,4,4,1,prac_AB,L1_T1A_T2P,1,0,1,7,8,6,3,11,dog,Did you see the dog,0.21,0,resources/,pics/ball02.jpg,pics/binder03b.jpg,pics/dromedary.jpg,pics/shipinabottle.jpg,pics/proboscismonkey.jpg,pics/laptop01a.jpg,pics/chainsaw.jpg,pics/stapler13.jpg,pics/nutcracker01.jpg,pics/carrot01.jpg,pics/calendar.jpg,blankImage,blankImage,blankImage,blankImage,blankImage,blankImage,saintbernard,7,,,,,,,,,,,,,,,,,,,,,,,,,,,,,,,,,,,,,,,,,,,,,,,,,,,,,,,,,,,,,,,,,,,,,,,,,,,,,,,,,,,,,,,,,,,,,,,,,,,,
,,,,,6658ee766e2632a6de409027,6669d216483b4754e2264ff7,6669dc6e4c43b763d92b78c7,31,Female,English,2024-06-12_10h38.38.207,ABmemTask3,2023.2.3,Win32,60.24096386,,,,,,,,,,,,,,,,,,,,,,,,,,,,,,,132.549,133.5379,133.538,12,134.0371,136.8386,0.0025,137.0377,0.1985,0.2006,0.2005,0.2006,0.1996,0.1995,0.2,0.2002,0.1999,0.2,0.2,137.0379,137.5716,right,0.5124,,137.5718,137.9044,right,0.3231,,6,0,12,137.9046,138.9034,0,5,5,5,1,prac_AB,L5_T1P_T2P,5,1,1,5,10,4,5,15,grater,Did you see the grater,0.2,0,resources/,pics/pencil01.jpg,pics/laptop01a.jpg,pics/hammerheadshark.jpg,pics/cork02.jpg,pics/grater01a.jpg,pics/shipinabottle.jpg,pics/binder03b.jpg,pics/dromedary.jpg,pics/pictureframe04.jpg,pics/stapler04b.jpg,pics/fanblades.jpg,pics/aquarium.jpg,pics/hairdryer02a.jpg,pics/lightswitch01.jpg,pics/piggybank.jpg,blankImage,blankImage,grater01a,11,0.1998,0.2002,0.2001,,,,,,,,,,,,,,,,,,,,,,,,,,,,,,,,,,,,,,,,,,,,,,,,,,,,,,,,,,,,,,,,,,,,,,,,,,,,,,,,,,,,,,,,,,,,,,,,,
,,,,,6658ee766e2632a6de409027,6669d216483b4754e2264ff7,6669dc6e4c43b763d92b78c7,31,Female,English,2024-06-12_10h38.38.207,ABmemTask3,2023.2.3,Win32,60.24096386,,,,,,,,,,,,,,,,,,,,,,,,,,,,,,,138.9037,139.9042,139.9043,11,140.4032,141.8708,0.0008,142.0537,0.1838,0.184,0.1838,0.1832,0.1823,0.184,0.1833,0.1825,,,,142.0538,143.3049,right,1.2298,,143.305,143.9046,left,0.5868,,8,0,14,143.9047,144.9037,0,6,6,6,1,prac_AB,L1_T1P_T2A,1,1,0,4,5,3,4,9,chalk,Did you see the chalk,0.19,0,resources/,pics/necklace.jpg,pics/starfish01.jpg,pics/safetypin.jpg,pics/chalk.jpg,pics/candleholder01.jpg,pics/bowtie.jpg,pics/match.jpg,pics/candle01.jpg,pics/pencilsharpener02a.jpg,blankImage,blankImage,blankImage,blankImage,blankImage,blankImage,blankImage,blankImage,chalk,9,,,,,,,,,,,,,,,,,,,,,,,,,,,,,,,,,,,,,,,,,,,,,,,,,,,,,,,,,,,,,,,,,,,,,,,,,,,,,,,,,,,,,,,,,,,,,,,,,,,,
,,,,,6658ee766e2632a6de409027,6669d216483b4754e2264ff7,6669dc6e4c43b763d92b78c7,31,Female,English,2024-06-12_10h38.38.207,ABmemTask3,2023.2.3,Win32,60.24096386,,,,,,,,,,,,,,,,,,,,,,,,,,,,,,,144.9281,145.9214,145.9215,11,146.4215,148.0732,0.0027,148.255,0.1818,0.1844,0.1827,0.1843,0.1827,0.1885,0.1784,0.1834,0.1835,,,148.2553,149.2056,right,0.9212,,149.2059,149.5403,right,0.3172,,10,0,16,149.5404,150.5384,0,7,7,7,1,prac_AB,L1_T1P_T2P,1,1,1,5,6,4,4,10,pants,Did you see the pants,0.18,0,resources/,pics/kangaroo.jpg,pics/safetypin.jpg,pics/salmon.jpg,pics/sandbarshark.jpg,pics/pants.jpg,pics/stapler03a.jpg,pics/sink.jpg,pics/calendar.jpg,pics/butterfly.jpg,pics/fanblades.jpg,blankImage,blankImage,blankImage,blankImage,blankImage,blankImage,blankImage,pants,2,,,,,,,,,,,,,,,,,,,,,,,,,,,,,,,,,,,,,,,,,,,,,,,,,,,,,,,,,,,,,,,,,,,,,,,,,,,,,,,,,,,,,,,,,,,,,,,,,,,,
,,,,,6658ee766e2632a6de409027,6669d216483b4754e2264ff7,6669dc6e4c43b763d92b78c7,31,Female,English,2024-06-12_10h38.38.207,ABmemTask3,2023.2.3,Win32,60.24096386,,,,,,,,,,,,,,,,,,,,,,,,,,,,,,,150.5407,151.5378,151.5379,10,152.0373,154.3731,0.0033,154.5395,0.1712,0.1616,0.167,0.1664,0.1665,0.1667,0.167,0.1666,0.1662,0.1669,0.1663,154.5397,155.4891,left,0.9229,,155.4893,155.8393,right,0.3206,,12,0,18,155.8394,156.8278,0,8,8,8,1,prac_AB,L5_T1A_T2P,5,0,1,7,12,6,3,15,shirt,Did you see the shirt,0.17,0,resources/,pics/banjo.jpg,pics/chainsaw.jpg,pics/sailboat.jpg,pics/shipinabottle.jpg,pics/lightswitch01.jpg,pics/starfish01.jpg,pics/hen.jpg,pics/ball02.jpg,pics/bowlingpin.jpg,pics/hammerheadshark.jpg,pics/footballhelmet.jpg,pics/stapler10.jpg,pics/laptop01a.jpg,pics/cannon.jpg,pics/golfball.jpg,blankImage,blankImage,shirt02,13,0.1667,0.1668,0.1667,,,,,,,,,,,,,,,,,,,,,,,,,,,,,,,,,,,,,,,,,,,,,,,,,,,,,,,,,,,,,,,,,,,,,,,,,,,,,,,,,,,,,,,,,,,,,,,,,
,,,,,6658ee766e2632a6de409027,6669d216483b4754e2264ff7,6669dc6e4c43b763d92b78c7,31,Female,English,2024-06-12_10h38.38.207,ABmemTask3,2023.2.3,Win32,60.24096386,,,,,,,,,,,,,,,,,,,,,,,,,,,,,,,156.8286,157.822,157.8222,10,158.3214,159.9897,0.0029,160.1556,0.1657,0.1733,0.1603,0.1675,0.1659,0.1667,0.1668,0.1663,0.167,0.1664,,160.1559,161.8386,right,1.6592,,161.8389,162.3058,left,0.4378,,12,0,20,162.306,163.3055,0,9,9,9,1,prac_AB,L1_T1P_T2P,1,1,1,7,8,6,3,11,tongs,Did you see the tongs,0.16,0,resources/,pics/sewingmachine01a.jpg,pics/shovel01.jpg,pics/football.jpg,pics/hen.jpg,pics/banjo.jpg,pics/zebra.jpg,pics/tongs01b.jpg,pics/stapler11.jpg,pics/shipinabottle.jpg,pics/match.jpg,pics/candle01.jpg,blankImage,blankImage,blankImage,blankImage,blankImage,blankImage,tongs01b,5,,,,,,,,,,,,,,,,,,,,,,,,,,,,,,,,,,,,,,,,,,,,,,,,,,,,,,,,,,,,,,,,,,,,,,,,,,,,,,,,,,,,,,,,,,,,,,,,,,,,
,,,,,6658ee766e2632a6de409027,6669d216483b4754e2264ff7,6669dc6e4c43b763d92b78c7,31,Female,English,2024-06-12_10h38.38.207,ABmemTask3,2023.2.3,Win32,60.24096386,,,,,,,,,,,,,,,,,,,,,,,,,,,,,,,163.3314,164.3213,164.3213,9,164.8214,166.4723,0.0024,166.6218,0.1487,0.1504,0.1496,0.1502,0.1497,0.1504,0.1484,0.1514,0.1496,0.1503,0.1503,166.6219,167.7386,left,1.0993,,167.7388,168.2383,right,0.4857,,10,0,22,168.2384,169.2387,0,10,10,10,1,prac_AB,L1_T1A_T2A,1,0,0,7,8,6,4,12,camera,Did you see the camera,0.15,0,resources/,pics/lightswitch01.jpg,pics/table01.jpg,pics/aquarium.jpg,pics/boot02b.jpg,pics/butterfly.jpg,pics/chainsaw.jpg,pics/binoculars01b.jpg,pics/giraffe.jpg,pics/triangle.jpg,pics/microscope.jpg,pics/mummy.jpg,pics/icecube01.jpg,blankImage,blankImage,blankImage,blankImage,blankImage,camera01a,10,,,,,,,,,,,,,,,,,,,,,,,,,,,,,,,,,,,,,,,,,,,,,,,,,,,,,,,,,,,,,,,,,,,,,,,,,,,,,,,,,,,,,,,,,,,,,,,,,,,,
,,,,,6658ee766e2632a6de409027,6669d216483b4754e2264ff7,6669dc6e4c43b763d92b78c7,31,Female,English,2024-06-12_10h38.38.207,ABmemTask3,2023.2.3,Win32,60.24096386,,,,,,,,,,,,,,,,,,,,,,,,,,,,,,,169.2396,170.2393,170.2393,8,170.7384,171.9377,0.002,172.0704,0.1321,0.1335,0.1336,0.133,0.1317,0.1347,0.1335,0.1323,0.1332,,,172.0705,172.8709,right,0.7795,,172.8709,173.1726,right,0.2858,,12,0,24,173.1726,174.1716,0,11,11,11,1,prac_AB,L1_T1P_T2P,1,1,1,6,7,5,3,10,shorts,Did you see the shorts,0.14,0,resources/,pics/snowshoe.jpg,pics/chainsaw.jpg,pics/sailboat.jpg,pics/ball02.jpg,pics/candleholder01.jpg,pics/shorts01.jpg,pics/stapler07.jpg,pics/peach01.jpg,pics/proboscismonkey.jpg,pics/hen.jpg,blankImage,blankImage,blankImage,blankImage,blankImage,blankImage,blankImage,shorts01,4,,,,,,,,,,,,,,,,,,,,,,,,,,,,,,,,,,,,,,,,,,,,,,,,,,,,,,,,,,,,,,,,,,,,,,,,,,,,,,,,,,,,,,,,,,,,,,,,,,,,
,,,,,6658ee766e2632a6de409027,6669d216483b4754e2264ff7,6669dc6e4c43b763d92b78c7,31,Female,English,2024-06-12_10h38.38.207,ABmemTask3,2023.2.3,Win32,60.24096386,,,,,,,,,,,,,,,,,,,,,,,,,,,,,,,174.1965,175.1878,175.1879,8,175.6875,177.2902,0.0012,177.4224,0.1332,0.1335,0.1341,0.133,0.1331,0.1335,0.1337,0.1326,0.1338,0.133,0.134,177.4226,178.3895,right,0.9393,,178.3896,179.2224,left,0.8185,,14,0,26,179.2226,180.2223,0,12,12,12,1,prac_AB,L5_T1P_T2A,5,1,0,5,10,4,3,13,fish,Did you see the fish,0.13,0,resources/,pics/football.jpg,pics/safetypin.jpg,pics/shovel01.jpg,pics/sink.jpg,pics/holdfast.jpg,pics/nutcracker01.jpg,pics/starfish01.jpg,pics/onion.jpg,pics/footballhelmet.jpg,pics/boot02b.jpg,pics/sewingmachine01a.jpg,pics/kangaroo.jpg,pics/banjo.jpg,blankImage,blankImage,blankImage,blankImage,holdfast,14,0.1346,,,,,,,,,,,,,,,,,,,,,,,,,,,,,,,,,,,,,,,,,,,,,,,,,,,,,,,,,,,,,,,,,,,,,,,,,,,,,,,,,,,,,,,,,,,,,,,,,,,
,,,,,6658ee766e2632a6de409027,6669d216483b4754e2264ff7,6669dc6e4c43b763d92b78c7,31,Female,English,2024-06-12_10h38.38.207,ABmemTask3,2023.2.3,Win32,60.24096386,,,,,,,,,,,,,,,,,,,,,,,,,,,,,,,180.2479,181.2382,181.2383,7,181.7384,182.7887,0.0016,182.9046,0.1145,0.1166,0.117,0.1174,0.1165,0.1172,0.1165,0.116,0.1172,,,182.9047,184.104,left,1.1826,,184.1041,184.7882,left,0.6674,,12,0,28,184.7884,185.7885,0,13,13,13,1,prac_AB,L1_T1P_T2P,1,1,1,5,6,4,4,10,fish,Did you see the fish,0.12,0,resources/,pics/butterfly.jpg,pics/banjo.jpg,pics/leaf02a.jpg,pics/dustpan.jpg,pics/sturgeon.jpg,pics/stapler02.jpg,pics/necklace.jpg,pics/shovel01.jpg,pics/starfish01.jpg,pics/chainsaw.jpg,blankImage,blankImage,blankImage,blankImage,blankImage,blankImage,blankImage,sturgeon,3,,,,,,,,,,,,,,,,,,,,,,,,,,,,,,,,,,,,,,,,,,,,,,,,,,,,,,,,,,,,,,,,,,,,,,,,,,,,,,,,,,,,,,,,,,,,,,,,,,,,
,,,,,6658ee766e2632a6de409027,6669d216483b4754e2264ff7,6669dc6e4c43b763d92b78c7,31,Female,English,2024-06-12_10h38.38.207,ABmemTask3,2023.2.3,Win32,60.24096386,,,,,,,,,,,,,,,,,,,,,,,,,,,,,,,,,,,,,,,,,,,,,,,,,,,,,,,,,,,,,,,,,,,,,,,,,,,,,,,,,,,,,,,,,,,,,,,,,,,,,,,,,,,185.7905,193.8082,space,7.9826,,,,,,,,,,,,,,,,,,,,,,,,,,,,,,,,,,,,,,,,,,,,,,,,,,,,,,,,,,,,,,,,,,,,,,,,,,,,,,,,,,,,,,,,,,,,,
,,,,,6658ee766e2632a6de409027,6669d216483b4754e2264ff7,6669dc6e4c43b763d92b78c7,31,Female,English,2024-06-12_10h38.38.207,ABmemTask3,2023.2.3,Win32,60.24096386,,,,,,,,,,,,,,,,,,,,,,,,,,,,,,,193.8421,194.839,194.839,15,195.3381,198.0891,0.0022,198.3384,0.2498,0.2499,0.2497,0.2506,0.2494,0.2512,0.2489,0.2501,0.25,0.2494,0.2504,198.3385,199.2877,right,0.9302,,199.2877,199.8252,left,0.519,,2,0,2,199.8253,200.8245,0,0,0,0,1,prac_AB,L1_T1P_T2A,1,1,0,6,7,5,5,12,cat,Did you see the cat,0.25,0,resources/,pics/shipinabottle.jpg,pics/table01.jpg,pics/dustpan.jpg,pics/golfball.jpg,pics/giraffe.jpg,pics/cat.jpg,pics/peanut01.jpg,pics/pictureframe04.jpg,pics/fanblades.jpg,pics/laptop01a.jpg,pics/ball02.jpg,pics/blender.jpg,blankImage,blankImage,blankImage,blankImage,blankImage,cat,8,,,,,,,,,,,,,,,,,,,,,,,,,,,,,,,,,,,,,,,,,,,,,,,,,,,,,,,,,,,,,,,,,,,,,,,,,,,,,,,,,,,,,,,,,,,,,,,,,,,,
,,,,,6658ee766e2632a6de409027,6669d216483b4754e2264ff7,6669dc6e4c43b763d92b78c7,31,Female,English,2024-06-12_10h38.38.207,ABmemTask3,2023.2.3,Win32,60.24096386,,,,,,,,,,,,,,,,,,,,,,,,,,,,,,,200.8259,201.8218,201.8219,14,202.3215,204.4242,0.0026,204.6561,0.2327,0.2335,0.2336,0.2339,0.2328,0.2327,0.2347,0.2331,0.2336,,,204.6564,205.7894,right,1.1071,,205.7897,206.1063,right,0.2885,,4,0,4,206.1065,207.1058,0,1,1,1,1,prac_AB,L1_T1P_T2P,1,1,1,5,6,4,4,10,tree,Did you see the tree,0.24,0,resources/,pics/carrot01.jpg,pics/hammerheadshark.jpg,pics/kangaroo.jpg,pics/proboscismonkey.jpg,pics/tree.jpg,pics/stapler07.jpg,pics/siamesecat.jpg,pics/ball02.jpg,pics/pictureframe04.jpg,pics/mummy.jpg,blankImage,blankImage,blankImage,blankImage,blankImage,blankImage,blankImage,tree,1,,,,,,,,,,,,,,,,,,,,,,,,,,,,,,,,,,,,,,,,,,,,,,,,,,,,,,,,,,,,,,,,,,,,,,,,,,,,,,,,,,,,,,,,,,,,,,,,,,,,
,,,,,6658ee766e2632a6de409027,6669d216483b4754e2264ff7,6669dc6e4c43b763d92b78c7,31,Female,English,2024-06-12_10h38.38.207,ABmemTask3,2023.2.3,Win32,60.24096386,,,,,,,,,,,,,,,,,,,,,,,,,,,,,,,207.1069,208.1063,208.1065,14,208.6062,211.1736,0.0023,211.4061,0.2374,0.2284,0.2334,0.2329,0.2338,0.2332,0.2334,0.234,0.2321,0.2335,0.2334,211.4063,212.5222,left,1.0869,,212.5224,212.9226,left,0.3683,,4,0,6,212.9227,213.9229,0,2,2,2,1,prac_AB,L1_T1A_T2P,1,0,1,7,8,6,4,12,grapes,Did you see the grapes,0.23,0,resources/,pics/sailboat.jpg,pics/butterfly.jpg,pics/giraffe.jpg,pics/spoon01.jpg,pics/hose.jpg,pics/nutcracker01.jpg,pics/table01.jpg,pics/stapler13.jpg,pics/pencil01.jpg,pics/football.jpg,pics/triangle.jpg,pics/hairdryer02a.jpg,blankImage,blankImage,blankImage,blankImage,blankImage,grape01,6,,,,,,,,,,,,,,,,,,,,,,,,,,,,,,,,,,,,,,,,,,,,,,,,,,,,,,,,,,,,,,,,,,,,,,,,,,,,,,,,,,,,,,,,,,,,,,,,,,,,
,,,,,6658ee766e2632a6de409027,6669d216483b4754e2264ff7,6669dc6e4c43b763d92b78c7,31,Female,English,2024-06-12_10h38.38.207,ABmemTask3,2023.2.3,Win32,60.24096386,,,,,,,,,,,,,,,,,,,,,,,,,,,,,,,213.9491,214.9395,214.9397,13,215.4401,218.4741,0.0025,218.6897,0.215,0.2168,0.2216,0.2115,0.2173,0.2163,0.2158,0.2171,0.2168,0.2166,0.2167,218.6898,219.2563,right,0.5419,,219.2565,219.5567,right,0.2845,,6,0,8,219.5569,220.5561,0,3,3,3,1,prac_AB,L5_T1P_T2P,5,1,1,7,12,6,3,15,Human skull,Did you see the Human skull,0.22,0,resources/,pics/peach01.jpg,pics/proboscismonkey.jpg,pics/hose.jpg,pics/laptop01a.jpg,pics/hammerheadshark.jpg,pics/nutcracker01.jpg,pics/humanskull.jpg,pics/table01.jpg,pics/icecube01.jpg,pics/boot02b.jpg,pics/calendar.jpg,pics/stapler03a.jpg,pics/ashtray01.jpg,pics/giraffe.jpg,pics/dromedary.jpg,blankImage,blankImage,humanskull,12,0.2165,0.2166,0.2172,,,,,,,,,,,,,,,,,,,,,,,,,,,,,,,,,,,,,,,,,,,,,,,,,,,,,,,,,,,,,,,,,,,,,,,,,,,,,,,,,,,,,,,,,,,,,,,,,
,,,,,6658ee766e2632a6de409027,6669d216483b4754e2264ff7,6669dc6e4c43b763d92b78c7,31,Female,English,2024-06-12_10h38.38.207,ABmemTask3,2023.2.3,Win32,60.24096386,,,,,,,,,,,,,,,,,,,,,,,,,,,,,,,220.5573,221.5564,221.5566,13,222.0557,224.2238,0.0028,224.4405,0.2159,0.2167,0.2163,0.2177,0.2165,0.2161,0.2165,0.2169,0.2173,0.216,,224.4406,226.6404,left,2.172,,226.6405,227.0406,right,0.3715,,8,0,10,227.0407,228.0401,0,4,4,4,1,prac_AB,L1_T1A_T2P,1,0,1,7,8,6,3,11,dog,Did you see the dog,0.21,0,resources/,pics/ball02.jpg,pics/binder03b.jpg,pics/dromedary.jpg,pics/shipinabottle.jpg,pics/proboscismonkey.jpg,pics/laptop01a.jpg,pics/chainsaw.jpg,pics/stapler13.jpg,pics/nutcracker01.jpg,pics/carrot01.jpg,pics/calendar.jpg,blankImage,blankImage,blankImage,blankImage,blankImage,blankImage,saintbernard,7,,,,,,,,,,,,,,,,,,,,,,,,,,,,,,,,,,,,,,,,,,,,,,,,,,,,,,,,,,,,,,,,,,,,,,,,,,,,,,,,,,,,,,,,,,,,,,,,,,,,
,,,,,6658ee766e2632a6de409027,6669d216483b4754e2264ff7,6669dc6e4c43b763d92b78c7,31,Female,English,2024-06-12_10h38.38.207,ABmemTask3,2023.2.3,Win32,60.24096386,,,,,,,,,,,,,,,,,,,,,,,,,,,,,,,228.0677,229.0564,229.0567,12,229.5561,232.357,0.0024,232.5556,0.1993,0.1999,0.2002,0.1998,0.2002,0.2,0.2005,0.1999,0.1993,0.2005,0.2029,232.5558,233.1396,right,0.5611,,233.1398,233.4564,right,0.3002,,10,0,12,233.4566,234.4553,0,5,5,5,1,prac_AB,L5_T1P_T2P,5,1,1,5,10,4,5,15,grater,Did you see the grater,0.2,0,resources/,pics/pencil01.jpg,pics/laptop01a.jpg,pics/hammerheadshark.jpg,pics/cork02.jpg,pics/grater01a.jpg,pics/shipinabottle.jpg,pics/binder03b.jpg,pics/dromedary.jpg,pics/pictureframe04.jpg,pics/stapler04b.jpg,pics/fanblades.jpg,pics/aquarium.jpg,pics/hairdryer02a.jpg,pics/lightswitch01.jpg,pics/piggybank.jpg,blankImage,blankImage,grater01a,11,0.1961,0.2008,0.1994,,,,,,,,,,,,,,,,,,,,,,,,,,,,,,,,,,,,,,,,,,,,,,,,,,,,,,,,,,,,,,,,,,,,,,,,,,,,,,,,,,,,,,,,,,,,,,,,,
,,,,,6658ee766e2632a6de409027,6669d216483b4754e2264ff7,6669dc6e4c43b763d92b78c7,31,Female,English,2024-06-12_10h38.38.207,ABmemTask3,2023.2.3,Win32,60.24096386,,,,,,,,,,,,,,,,,,,,,,,,,,,,,,,234.4571,235.4566,235.4567,11,235.9566,237.4257,0.0024,237.6072,0.1824,0.1829,0.1834,0.1836,0.1833,0.1833,0.1835,0.1849,,,,237.6073,238.8909,right,1.2619,,238.8911,239.5575,left,0.6379,,12,0,14,239.5577,240.5564,0,6,6,6,1,prac_AB,L1_T1P_T2A,1,1,0,4,5,3,4,9,chalk,Did you see the chalk,0.19,0,resources/,pics/necklace.jpg,pics/starfish01.jpg,pics/safetypin.jpg,pics/chalk.jpg,pics/candleholder01.jpg,pics/bowtie.jpg,pics/match.jpg,pics/candle01.jpg,pics/pencilsharpener02a.jpg,blankImage,blankImage,blankImage,blankImage,blankImage,blankImage,blankImage,blankImage,chalk,9,,,,,,,,,,,,,,,,,,,,,,,,,,,,,,,,,,,,,,,,,,,,,,,,,,,,,,,,,,,,,,,,,,,,,,,,,,,,,,,,,,,,,,,,,,,,,,,,,,,,
,,,,,6658ee766e2632a6de409027,6669d216483b4754e2264ff7,6669dc6e4c43b763d92b78c7,31,Female,English,2024-06-12_10h38.38.207,ABmemTask3,2023.2.3,Win32,60.24096386,,,,,,,,,,,,,,,,,,,,,,,,,,,,,,,240.5842,241.5732,241.5734,11,242.0721,243.7239,0.0025,243.9066,0.1831,0.1833,0.1842,0.1832,0.1831,0.1831,0.1826,0.1838,0.184,,,243.9068,244.4624,right,0.5341,,244.4625,244.7554,right,0.2756,,14,0,16,244.7556,245.7573,0,7,7,7,1,prac_AB,L1_T1P_T2P,1,1,1,5,6,4,4,10,pants,Did you see the pants,0.18,0,resources/,pics/kangaroo.jpg,pics/safetypin.jpg,pics/salmon.jpg,pics/sandbarshark.jpg,pics/pants.jpg,pics/stapler03a.jpg,pics/sink.jpg,pics/calendar.jpg,pics/butterfly.jpg,pics/fanblades.jpg,blankImage,blankImage,blankImage,blankImage,blankImage,blankImage,blankImage,pants,2,,,,,,,,,,,,,,,,,,,,,,,,,,,,,,,,,,,,,,,,,,,,,,,,,,,,,,,,,,,,,,,,,,,,,,,,,,,,,,,,,,,,,,,,,,,,,,,,,,,,
,,,,,6658ee766e2632a6de409027,6669d216483b4754e2264ff7,6669dc6e4c43b763d92b78c7,31,Female,English,2024-06-12_10h38.38.207,ABmemTask3,2023.2.3,Win32,60.24096386,,,,,,,,,,,,,,,,,,,,,,,,,,,,,,,245.7583,246.7559,246.756,10,247.2563,249.5906,0.0022,249.7574,0.1662,0.1667,0.1667,0.1674,0.1664,0.1661,0.1669,0.1669,0.1672,0.166,0.1666,249.7576,250.6569,left,0.8776,,250.6571,251.0236,right,0.3379,,16,0,18,251.0237,252.0218,0,8,8,8,1,prac_AB,L5_T1A_T2P,5,0,1,7,12,6,3,15,shirt,Did you see the shirt,0.17,0,resources/,pics/banjo.jpg,pics/chainsaw.jpg,pics/sailboat.jpg,pics/shipinabottle.jpg,pics/lightswitch01.jpg,pics/starfish01.jpg,pics/hen.jpg,pics/ball02.jpg,pics/bowlingpin.jpg,pics/hammerheadshark.jpg,pics/footballhelmet.jpg,pics/stapler10.jpg,pics/laptop01a.jpg,pics/cannon.jpg,pics/golfball.jpg,blankImage,blankImage,shirt02,13,0.167,0.1665,0.1659,,,,,,,,,,,,,,,,,,,,,,,,,,,,,,,,,,,,,,,,,,,,,,,,,,,,,,,,,,,,,,,,,,,,,,,,,,,,,,,,,,,,,,,,,,,,,,,,,
,,,,,6658ee766e2632a6de409027,6669d216483b4754e2264ff7,6669dc6e4c43b763d92b78c7,31,Female,English,2024-06-12_10h38.38.207,ABmemTask3,2023.2.3,Win32,60.24096386,,,,,,,,,,,,,,,,,,,,,,,,,,,,,,,252.0393,253.0398,253.04,10,253.54,255.2136,0.0025,255.3733,0.1654,0.1668,0.1667,0.1663,0.1672,0.1664,0.1666,0.1667,0.1665,0.1731,,255.3735,256.0739,right,0.6718,,256.0741,256.3565,right,0.2709,,18,0,20,256.3567,257.3457,0,9,9,9,1,prac_AB,L1_T1P_T2P,1,1,1,7,8,6,3,11,tongs,Did you see the tongs,0.16,0,resources/,pics/sewingmachine01a.jpg,pics/shovel01.jpg,pics/football.jpg,pics/hen.jpg,pics/banjo.jpg,pics/zebra.jpg,pics/tongs01b.jpg,pics/stapler11.jpg,pics/shipinabottle.jpg,pics/match.jpg,pics/candle01.jpg,blankImage,blankImage,blankImage,blankImage,blankImage,blankImage,tongs01b,5,,,,,,,,,,,,,,,,,,,,,,,,,,,,,,,,,,,,,,,,,,,,,,,,,,,,,,,,,,,,,,,,,,,,,,,,,,,,,,,,,,,,,,,,,,,,,,,,,,,,
,,,,,6658ee766e2632a6de409027,6669d216483b4754e2264ff7,6669dc6e4c43b763d92b78c7,31,Female,English,2024-06-12_10h38.38.207,ABmemTask3,2023.2.3,Win32,60.24096386,,,,,,,,,,,,,,,,,,,,,,,,,,,,,,,257.3466,258.3398,258.34,9,258.84,260.4914,0.0025,260.6399,0.1491,0.1501,0.15,0.15,0.1498,0.1501,0.1499,0.155,0.1453,0.15,0.1501,260.6401,261.6073,left,0.9377,,261.6078,262.3226,left,0.6926,,20,0,22,262.3229,263.3226,0,10,10,10,1,prac_AB,L1_T1A_T2A,1,0,0,7,8,6,4,12,camera,Did you see the camera,0.15,0,resources/,pics/lightswitch01.jpg,pics/table01.jpg,pics/aquarium.jpg,pics/boot02b.jpg,pics/butterfly.jpg,pics/chainsaw.jpg,pics/binoculars01b.jpg,pics/giraffe.jpg,pics/triangle.jpg,pics/microscope.jpg,pics/mummy.jpg,pics/icecube01.jpg,blankImage,blankImage,blankImage,blankImage,blankImage,camera01a,10,,,,,,,,,,,,,,,,,,,,,,,,,,,,,,,,,,,,,,,,,,,,,,,,,,,,,,,,,,,,,,,,,,,,,,,,,,,,,,,,,,,,,,,,,,,,,,,,,,,,
,,,,,6658ee766e2632a6de409027,6669d216483b4754e2264ff7,6669dc6e4c43b763d92b78c7,31,Female,English,2024-06-12_10h38.38.207,ABmemTask3,2023.2.3,Win32,60.24096386,,,,,,,,,,,,,,,,,,,,,,,,,,,,,,,263.3242,264.3231,264.3232,8,264.8236,266.0244,0.0024,266.1566,0.132,0.1336,0.1348,0.1317,0.133,0.1337,0.1332,0.1341,0.133,,,266.1567,267.0254,right,0.8369,,267.0256,267.3067,right,0.2645,,22,0,24,267.307,268.3069,0,11,11,11,1,prac_AB,L1_T1P_T2P,1,1,1,6,7,5,3,10,shorts,Did you see the shorts,0.14,0,resources/,pics/snowshoe.jpg,pics/chainsaw.jpg,pics/sailboat.jpg,pics/ball02.jpg,pics/candleholder01.jpg,pics/shorts01.jpg,pics/stapler07.jpg,pics/peach01.jpg,pics/proboscismonkey.jpg,pics/hen.jpg,blankImage,blankImage,blankImage,blankImage,blankImage,blankImage,blankImage,shorts01,4,,,,,,,,,,,,,,,,,,,,,,,,,,,,,,,,,,,,,,,,,,,,,,,,,,,,,,,,,,,,,,,,,,,,,,,,,,,,,,,,,,,,,,,,,,,,,,,,,,,,
,,,,,6658ee766e2632a6de409027,6669d216483b4754e2264ff7,6669dc6e4c43b763d92b78c7,31,Female,English,2024-06-12_10h38.38.207,ABmemTask3,2023.2.3,Win32,60.24096386,,,,,,,,,,,,,,,,,,,,,,,,,,,,,,,268.3081,269.3069,269.3072,8,269.807,271.4077,0.0029,271.5393,0.1319,0.1328,0.1345,0.1324,0.1337,0.1331,0.1337,0.1337,0.1324,0.1333,0.1332,271.5397,272.5131,right,0.9504,,272.5133,272.8073,left,0.2798,,24,0,26,272.8075,273.8069,0,12,12,12,1,prac_AB,L5_T1P_T2A,5,1,0,5,10,4,3,13,fish,Did you see the fish,0.13,0,resources/,pics/football.jpg,pics/safetypin.jpg,pics/shovel01.jpg,pics/sink.jpg,pics/holdfast.jpg,pics/nutcracker01.jpg,pics/starfish01.jpg,pics/onion.jpg,pics/footballhelmet.jpg,pics/boot02b.jpg,pics/sewingmachine01a.jpg,pics/kangaroo.jpg,pics/banjo.jpg,blankImage,blankImage,blankImage,blankImage,holdfast,14,0.1331,,,,,,,,,,,,,,,,,,,,,,,,,,,,,,,,,,,,,,,,,,,,,,,,,,,,,,,,,,,,,,,,,,,,,,,,,,,,,,,,,,,,,,,,,,,,,,,,,,,
,,,,,6658ee766e2632a6de409027,6669d216483b4754e2264ff7,6669dc6e4c43b763d92b78c7,31,Female,English,2024-06-12_10h38.38.207,ABmemTask3,2023.2.3,Win32,60.24096386,,,,,,,,,,,,,,,,,,,,,,,,,,,,,,,273.8082,274.8069,274.8071,7,275.3066,276.3631,0.0033,276.4789,0.1152,0.1169,0.1166,0.1162,0.1167,0.1173,0.1161,0.1172,0.1215,,,276.479,277.2102,right,0.7129,,277.2103,277.674,left,0.4424,,24,0,28,277.674,278.6621,0,13,13,13,1,prac_AB,L1_T1P_T2P,1,1,1,5,6,4,4,10,fish,Did you see the fish,0.12,0,resources/,pics/butterfly.jpg,pics/banjo.jpg,pics/leaf02a.jpg,pics/dustpan.jpg,pics/sturgeon.jpg,pics/stapler02.jpg,pics/necklace.jpg,pics/shovel01.jpg,pics/starfish01.jpg,pics/chainsaw.jpg,blankImage,blankImage,blankImage,blankImage,blankImage,blankImage,blankImage,sturgeon,3,,,,,,,,,,,,,,,,,,,,,,,,,,,,,,,,,,,,,,,,,,,,,,,,,,,,,,,,,,,,,,,,,,,,,,,,,,,,,,,,,,,,,,,,,,,,,,,,,,,,
,,,,,6658ee766e2632a6de409027,6669d216483b4754e2264ff7,6669dc6e4c43b763d92b78c7,31,Female,English,2024-06-12_10h38.38.207,ABmemTask3,2023.2.3,Win32,60.24096386,,,,,,,,,,,,,,,,,,,,,,,,,,,,,,,,,,,,,,,,,,,,,,,,,,,,,,,,,,,,,,,,,,,,,,,,,,,,,,,,,,,,,,,,,,,,,,,,,,,,,,,,,,,278.6625,281.141,space,2.4587,,,,,,,,,,,,,,,,,,,,,,,,,,,,,,,,,,,,,,,,,,,,,,,,,,,,,,,,,,,,,,,,,,,,,,,,,,,,,,,,,,,,,,,,,,,,,
,,,,,6658ee766e2632a6de409027,6669d216483b4754e2264ff7,6669dc6e4c43b763d92b78c7,31,Female,English,2024-06-12_10h38.38.207,ABmemTask3,2023.2.3,Win32,60.24096386,,,,,,,,,,,,,,,,,,,,,,,,,,,,,,,,,,,,,,,,,,,,,,,,,,,,,,,,,,,,,,,,,,,,,,,,,,,,,,,,,,,,,,,,,,,,,,,,,,,,,,,,,,,281.1747,281.1794,,,,,,,,,,,,,,,,,,,,,,,,,,,,,,,,,,,,,,,,,,,,,,,,,,,,,,,,,,,,,,,,,,,,,,,,,,,,,,,,,,,,,,,,,,,,,,,
,,,,,6658ee766e2632a6de409027,6669d216483b4754e2264ff7,6669dc6e4c43b763d92b78c7,31,Female,English,2024-06-12_10h38.38.207,ABmemTask3,2023.2.3,Win32,60.24096386,,,,,,,,,,,,,,,,,,,,,,,,,,,,,,,,,,,,,,,,,,,,,,,,,,,,,,,,,,,,,,,,,,,,,,,,,,,,,,,,,,,,,,,,,,,,,,,,,,,,,,,,,,,281.1831,281.1832,,,,,,,,,,,,,,,,,,,,,,,,,,,,,,,,,,,,,,,,,,,,,,,,,,,,,,,,,,,,,,,,,,,,,,,,,,,,,,,,,,,,,,,,,,,,,,,
,,,,,6658ee766e2632a6de409027,6669d216483b4754e2264ff7,6669dc6e4c43b763d92b78c7,31,Female,English,2024-06-12_10h38.38.207,ABmemTask3,2023.2.3,Win32,60.24096386,,,,,,,,,,,,,,,,,,,,,,,,,,,,,,,,,,,,,,,,,,,,,,,,,,,,,,,,,,,,,,,,,,,,,,,,,,,,,,,,,,,,,,,,,,,,,,,,,,,,,,,,,,,281.1874,281.1876,,,,,,,,,,,,,,,,,,,,,,,,,,,,,,,,,,,,,,,,,,,,,,,,,,,,,,,,,,,,,,,,,,,,,,,,,,,,,,,,,,,,,,,,,,,,,,,
,,,,,6658ee766e2632a6de409027,6669d216483b4754e2264ff7,6669dc6e4c43b763d92b78c7,31,Female,English,2024-06-12_10h38.38.207,ABmemTask3,2023.2.3,Win32,60.24096386,,,,,,,,,,,,,,,,,,,,,,,,,,,,,,,,,,,,,,,,,,,,,,,,,,,,,,,,,,,,,,,,,,,,,,,,,,,,,,,,,,,,,,,,,,,,,,,,,,,,,,,,,,,281.19,281.1901,,,,,,,,,,,,,,,,,,,,,,,,,,,,,,,,,,,,,,,,,,,,,,,,,,,,,,,,,,,,,,,,,,,,,,,,,,,,,,,,,,,,,,,,,,,,,,,
,,,,,6658ee766e2632a6de409027,6669d216483b4754e2264ff7,6669dc6e4c43b763d92b78c7,31,Female,English,2024-06-12_10h38.38.207,ABmemTask3,2023.2.3,Win32,60.24096386,,,,,,,,,,,,,,,,,,,,,,,,,,,,,,,,,,,,,,,,,,,,,,,,,,,,,,,,,,,,,,,,,,,,,,,,,,,,,,,,,,,,,,,,,,,,,,,,,,,,,,,,,,,281.1918,281.1918,,,,,,,,,,,,,,,,,,,,,,,,,,,,,,,,,,,,,,,,,,,,,,,,,,,,,,,,,,,,,,,,,,,,,,,,,,,,,,,,,,,,,,,,,,,,,,,
,,,,,6658ee766e2632a6de409027,6669d216483b4754e2264ff7,6669dc6e4c43b763d92b78c7,31,Female,English,2024-06-12_10h38.38.207,ABmemTask3,2023.2.3,Win32,60.24096386,,,,,,,,,,,,,,,,,,,,,,,,,,,,,,,,,,,,,,,,,,,,,,,,,,,,,,,,,,,,,,,,,,,,,,,,,,,,,,,,,,,,,,,,,,,,,,,,,,,,,,,,,,,281.1936,281.1937,,,,,,,,,,,,,,,,,,,,,,,,,,,,,,,,,,,,,,,,,,,,,,,,,,,,,,,,,,,,,,,,,,,,,,,,,,,,,,,,,,,,,,,,,,,,,,,
,,,,,6658ee766e2632a6de409027,6669d216483b4754e2264ff7,6669dc6e4c43b763d92b78c7,31,Female,English,2024-06-12_10h38.38.207,ABmemTask3,2023.2.3,Win32,60.24096386,,,,,,,,,,,,,,,,,,,,,,,,,,,,,,,,,,,,,,,,,,,,,,,,,,,,,,,,,,,,,,,,,,,,,,,,,,,,,,,,,,,,,,,,,,,,,,,,,,,,,,,,,,,281.1959,281.196,,,,,,,,,,,,,,,,,,,,,,,,,,,,,,,,,,,,,,,,,,,,,,,,,,,,,,,,,,,,,,,,,,,,,,,,,,,,,,,,,,,,,,,,,,,,,,,
,,,,,6658ee766e2632a6de409027,6669d216483b4754e2264ff7,6669dc6e4c43b763d92b78c7,31,Female,English,2024-06-12_10h38.38.207,ABmemTask3,2023.2.3,Win32,60.24096386,,,,,,,,,,,,,,,,,,,,,,,,,,,,,,,,,,,,,,,,,,,,,,,,,,,,,,,,,,,,,,,,,,,,,,,,,,,,,,,,,,,,,,,,,,,,,,,,,,,,,,,,,,,281.1974,281.1975,,,,,,,,,,,,,,,,,,,,,,,,,,,,,,,,,,,,,,,,,,,,,,,,,,,,,,,,,,,,,,,,,,,,,,,,,,,,,,,,,,,,,,,,,,,,,,,
,,,,,6658ee766e2632a6de409027,6669d216483b4754e2264ff7,6669dc6e4c43b763d92b78c7,31,Female,English,2024-06-12_10h38.38.207,ABmemTask3,2023.2.3,Win32,60.24096386,,,,,,,,,,,,,,,,,,,,,,,,,,,,,,,,,,,,,,,,,,,,,,,,,,,,,,,,,,,,,,,,,,,,,,,,,,,,,,,,,,,,,,,,,,,,,,,,,,,,,,,,,,,281.1989,281.1989,,,,,,,,,,,,,,,,,,,,,,,,,,,,,,,,,,,,,,,,,,,,,,,,,,,,,,,,,,,,,,,,,,,,,,,,,,,,,,,,,,,,,,,,,,,,,,,
,,,,,6658ee766e2632a6de409027,6669d216483b4754e2264ff7,6669dc6e4c43b763d92b78c7,31,Female,English,2024-06-12_10h38.38.207,ABmemTask3,2023.2.3,Win32,60.24096386,,,,,,,,,,,,,,,,,,,,,,,,,,,,,,,,,,,,,,,,,,,,,,,,,,,,,,,,,,,,,,,,,,,,,,,,,,,,,,,,,,,,,,,,,,,,,,,,,,,,,,,,,,,281.201,281.2011,,,,,,,,,,,,,,,,,,,,,,,,,,,,,,,,,,,,,,,,,,,,,,,,,,,,,,,,,,,,,,,,,,,,,,,,,,,,,,,,,,,,,,,,,,,,,,,
,,,,,6658ee766e2632a6de409027,6669d216483b4754e2264ff7,6669dc6e4c43b763d92b78c7,31,Female,English,2024-06-12_10h38.38.207,ABmemTask3,2023.2.3,Win32,60.24096386,,,,,,,,,,,,,,,,,,,,,,,,,,,,,,,,,,,,,,,,,,,,,,,,,,,,,,,,,,,,,,,,,,,,,,,,,,,,,,,,,,,,,,,,,,,,,,,,,,,,,,,,,,,281.2025,281.2025,,,,,,,,,,,,,,,,,,,,,,,,,,,,,,,,,,,,,,,,,,,,,,,,,,,,,,,,,,,,,,,,,,,,,,,,,,,,,,,,,,,,,,,,,,,,,,,
,,,,,6658ee766e2632a6de409027,6669d216483b4754e2264ff7,6669dc6e4c43b763d92b78c7,31,Female,English,2024-06-12_10h38.38.207,ABmemTask3,2023.2.3,Win32,60.24096386,,,,,,,,,,,,,,,,,,,,,,,,,,,,,,,,,,,,,,,,,,,,,,,,,,,,,,,,,,,,,,,,,,,,,,,,,,,,,,,,,,,,,,,,,,,,,,,,,,,,,,,,,,,281.2038,281.2038,,,,,,,,,,,,,,,,,,,,,,,,,,,,,,,,,,,,,,,,,,,,,,,,,,,,,,,,,,,,,,,,,,,,,,,,,,,,,,,,,,,,,,,,,,,,,,,
,,,,,6658ee766e2632a6de409027,6669d216483b4754e2264ff7,6669dc6e4c43b763d92b78c7,31,Female,English,2024-06-12_10h38.38.207,ABmemTask3,2023.2.3,Win32,60.24096386,,,,,,,,,,,,,,,,,,,,,,,,,,,,,,,,,,,,,,,,,,,,,,,,,,,,,,,,,,,,,,,,,,,,,,,,,,,,,,,,,,,,,,,,,,,,,,,,,,,,,,,,,,,281.2055,281.2055,,,,,,,,,,,,,,,,,,,,,,,,,,,,,,,,,,,,,,,,,,,,,,,,,,,,,,,,,,,,,,,,,,,,,,,,,,,,,,,,,,,,,,,,,,,,,,,
,,,,,6658ee766e2632a6de409027,6669d216483b4754e2264ff7,6669dc6e4c43b763d92b78c7,31,Female,English,2024-06-12_10h38.38.207,ABmemTask3,2023.2.3,Win32,60.24096386,,,,,,,,,,,,,,,,,,,,,,,,,,,,,,,,,,,,,,,,,,,,,,,,,,,,,,,,,,,,,,,,,,,,,,,,,,,,,,,,,,,,,,,,,,,,,,,,,,,,,,,,,,,281.2081,281.2082,,,,,,,,,,,,,,,,,,,,,,,,,,,,,,,,,,,,,,,,,,,,,,,,,,,,,,,,,,,,,,,,,,,,,,,,,,,,,,,,,,,,,,,,,,,,,,,
,,,,,6658ee766e2632a6de409027,6669d216483b4754e2264ff7,6669dc6e4c43b763d92b78c7,31,Female,English,2024-06-12_10h38.38.207,ABmemTask3,2023.2.3,Win32,60.24096386,,,,,,,,,,,,,,,,,,,,,,,,,,,,,,,,,,,,,,,,,,,,,,,,,,,,,,,,,,,,,,,,,,,,,,,,,,,,,,,,,,,,,,,,,,,,,,,,,,,,,,,,,,,281.2106,281.2107,,,,,,,,,,,,,,,,,,,,,,,,,,,,,,,,,,,,,,,,,,,,,,,,,,,,,,,,,,,,,,,,,,,,,,,,,,,,,,,,,,,,,,,,,,,,,,,
,,,,,6658ee766e2632a6de409027,6669d216483b4754e2264ff7,6669dc6e4c43b763d92b78c7,31,Female,English,2024-06-12_10h38.38.207,ABmemTask3,2023.2.3,Win32,60.24096386,,,,,,,,,,,,,,,,,,,,,,,,,,,,,,,,,,,,,,,,,,,,,,,,,,,,,,,,,,,,,,,,,,,,,,,,,,,,,,,,,,,,,,,,,,,,,,,,,,,,,,,,,,,281.2128,281.2128,,,,,,,,,,,,,,,,,,,,,,,,,,,,,,,,,,,,,,,,,,,,,,,,,,,,,,,,,,,,,,,,,,,,,,,,,,,,,,,,,,,,,,,,,,,,,,,
,,,,,6658ee766e2632a6de409027,6669d216483b4754e2264ff7,6669dc6e4c43b763d92b78c7,31,Female,English,2024-06-12_10h38.38.207,ABmemTask3,2023.2.3,Win32,60.24096386,,,,,,,,,,,,,,,,,,,,,,,,,,,,,,,,,,,,,,,,,,,,,,,,,,,,,,,,,,,,,,,,,,,,,,,,,,,,,,,,,,,,,,,,,,,,,,,,,,,,,,,,,,,281.2158,281.2158,,,,,,,,,,,,,,,,,,,,,,,,,,,,,,,,,,,,,,,,,,,,,,,,,,,,,,,,,,,,,,,,,,,,,,,,,,,,,,,,,,,,,,,,,,,,,,,
,,,,,6658ee766e2632a6de409027,6669d216483b4754e2264ff7,6669dc6e4c43b763d92b78c7,31,Female,English,2024-06-12_10h38.38.207,ABmemTask3,2023.2.3,Win32,60.24096386,,,,,,,,,,,,,,,,,,,,,,,,,,,,,,,,,,,,,,,,,,,,,,,,,,,,,,,,,,,,,,,,,,,,,,,,,,,,,,,,,,,,,,,,,,,,,,,,,,,,,,,,,,,281.2181,281.2181,,,,,,,,,,,,,,,,,,,,,,,,,,,,,,,,,,,,,,,,,,,,,,,,,,,,,,,,,,,,,,,,,,,,,,,,,,,,,,,,,,,,,,,,,,,,,,,
,,,,,6658ee766e2632a6de409027,6669d216483b4754e2264ff7,6669dc6e4c43b763d92b78c7,31,Female,English,2024-06-12_10h38.38.207,ABmemTask3,2023.2.3,Win32,60.24096386,,,,,,,,,,,,,,,,,,,,,,,,,,,,,,,,,,,,,,,,,,,,,,,,,,,,,,,,,,,,,,,,,,,,,,,,,,,,,,,,,,,,,,,,,,,,,,,,,,,,,,,,,,,281.2193,281.2193,,,,,,,,,,,,,,,,,,,,,,,,,,,,,,,,,,,,,,,,,,,,,,,,,,,,,,,,,,,,,,,,,,,,,,,,,,,,,,,,,,,,,,,,,,,,,,,
,,,,,6658ee766e2632a6de409027,6669d216483b4754e2264ff7,6669dc6e4c43b763d92b78c7,31,Female,English,2024-06-12_10h38.38.207,ABmemTask3,2023.2.3,Win32,60.24096386,,,,,,,,,,,,,,,,,,,,,,,,,,,,,,,,,,,,,,,,,,,,,,,,,,,,,,,,,,,,,,,,,,,,,,,,,,,,,,,,,,,,,,,,,,,,,,,,,,,,,,,,,,,281.2204,281.2205,,,,,,,,,,,,,,,,,,,,,,,,,,,,,,,,,,,,,,,,,,,,,,,,,,,,,,,,,,,,,,,,,,,,,,,,,,,,,,,,,,,,,,,,,,,,,,,
,,,,,6658ee766e2632a6de409027,6669d216483b4754e2264ff7,6669dc6e4c43b763d92b78c7,31,Female,English,2024-06-12_10h38.38.207,ABmemTask3,2023.2.3,Win32,60.24096386,,,,,,,,,,,,,,,,,,,,,,,,,,,,,,,,,,,,,,,,,,,,,,,,,,,,,,,,,,,,,,,,,,,,,,,,,,,,,,,,,,,,,,,,,,,,,,,,,,,,,,,,,,,,,,,,281.221,299.2756,space,18.0266,,,,,,,,,,,,,,,,,,,,,,,,,,,,,,,,,,,,,,,,,,,,,,,,,,,,,,,,,,,,,,,,,,,,,,,,,,,,,,,,,,,,,,,,
,,,,,6658ee766e2632a6de409027,6669d216483b4754e2264ff7,6669dc6e4c43b763d92b78c7,31,Female,English,2024-06-12_10h38.38.207,ABmemTask3,2023.2.3,Win32,60.24096386,,,,,,,,,,,,,,,,,,,,,,,,,,,,,,,,,299.3085,602,299.7904,,,,,,,,,,,,,,,,,,,,,,,,,,0,,,,,,,,,prac_MEM,new,,,,,,,,,,,10,,,,,,,,,,,,,,,,,,,,,,,,,,,,,,,,,,,299.7914,304.3418,1,3,4.5119,,304.3445,305.3404,0,0,0,10,1,999,999,pics/tomato01.jpg,,,,,,,,,,,,,,,,,,,,,,,,,,,,,,,,,,,,,,,,,,,,,,,,,,,,,,,,,,,,,,,,,,,,,,,
,,,,,6658ee766e2632a6de409027,6669d216483b4754e2264ff7,6669dc6e4c43b763d92b78c7,31,Female,English,2024-06-12_10h38.38.207,ABmemTask3,2023.2.3,Win32,60.24096386,,,,,,,,,,,,,,,,,,,,,,,,,,,,,,,,,305.3672,602,305.8568,,,,,,,,,,,,,,,,,,,,,,,,,,0,,,,,,,,,prac_MEM,old,,,,,,,,,,,10,,,,,,,,,,,,,,,,,,,,,,,,,,,,,,,,,,,305.8569,309.4236,4,6,3.5445,,309.4251,310.4234,0,1,1,3,1,4,1,pics/shorts01.jpg,,,,,,,,,,,,,,,,,,,,,,,,,,,,,,,,,,,,,,,,,,,,,,,,,,,,,,,,,,,,,,,,,,,,,,,
,,,,,6658ee766e2632a6de409027,6669d216483b4754e2264ff7,6669dc6e4c43b763d92b78c7,31,Female,English,2024-06-12_10h38.38.207,ABmemTask3,2023.2.3,Win32,60.24096386,,,,,,,,,,,,,,,,,,,,,,,,,,,,,,,,,310.4504,602,310.9407,,,,,,,,,,,,,,,,,,,,,,,,,,0,,,,,,,,,prac_MEM,old,,,,,,,,,,,10,,,,,,,,,,,,,,,,,,,,,,,,,,,,,,,,,,,310.9408,312.072,7,6,1.1103,,312.0722,313.0732,0,2,2,6,1,12,5,pics/humanskull.jpg,,,,,,,,,,,,,,,,,,,,,,,,,,,,,,,,,,,,,,,,,,,,,,,,,,,,,,,,,,,,,,,,,,,,,,,
,,,,,6658ee766e2632a6de409027,6669d216483b4754e2264ff7,6669dc6e4c43b763d92b78c7,31,Female,English,2024-06-12_10h38.38.207,ABmemTask3,2023.2.3,Win32,60.24096386,,,,,,,,,,,,,,,,,,,,,,,,,,,,,,,,,313.0741,602,313.5733,,,,,,,,,,,,,,,,,,,,,,,,,,0,,,,,,,,,prac_MEM,new,,,,,,,,,,,10,,,,,,,,,,,,,,,,,,,,,,,,,,,,,,,,,,,313.5733,315.523,10,1,1.9245,,315.5243,316.5233,0,3,3,8,1,999,999,pics/thread02.jpg,,,,,,,,,,,,,,,,,,,,,,,,,,,,,,,,,,,,,,,,,,,,,,,,,,,,,,,,,,,,,,,,,,,,,,,
,,,,,6658ee766e2632a6de409027,6669d216483b4754e2264ff7,6669dc6e4c43b763d92b78c7,31,Female,English,2024-06-12_10h38.38.207,ABmemTask3,2023.2.3,Win32,60.24096386,,,,,,,,,,,,,,,,,,,,,,,,,,,,,,,,,316.5241,602,317.0245,,,,,,,,,,,,,,,,,,,,,,,,,,0,,,,,,,,,prac_MEM,old,,,,,,,,,,,10,,,,,,,,,,,,,,,,,,,,,,,,,,,,,,,,,,,317.0247,318.2909,13,6,1.2385,,318.2914,319.292,0,4,4,4,1,5,1,pics/tongs01b.jpg,,,,,,,,,,,,,,,,,,,,,,,,,,,,,,,,,,,,,,,,,,,,,,,,,,,,,,,,,,,,,,,,,,,,,,,
,,,,,6658ee766e2632a6de409027,6669d216483b4754e2264ff7,6669dc6e4c43b763d92b78c7,31,Female,English,2024-06-12_10h38.38.207,ABmemTask3,2023.2.3,Win32,60.24096386,,,,,,,,,,,,,,,,,,,,,,,,,,,,,,,,,319.2932,602,319.79,,,,,,,,,,,,,,,,,,,,,,,,,,0,,,,,,,,,prac_MEM,new,,,,,,,,,,,10,,,,,,,,,,,,,,,,,,,,,,,,,,,,,,,,,,,319.7902,321.1408,4,6,1.3202,,321.1413,322.14,0,5,5,9,1,999,999,pics/moth.jpg,,,,,,,,,,,,,,,,,,,,,,,,,,,,,,,,,,,,,,,,,,,,,,,,,,,,,,,,,,,,,,,,,,,,,,,
,,,,,6658ee766e2632a6de409027,6669d216483b4754e2264ff7,6669dc6e4c43b763d92b78c7,31,Female,English,2024-06-12_10h38.38.207,ABmemTask3,2023.2.3,Win32,60.24096386,,,,,,,,,,,,,,,,,,,,,,,,,,,,,,,,,322.1414,602,322.6395,,,,,,,,,,,,,,,,,,,,,,,,,,0,,,,,,,,,prac_MEM,old,,,,,,,,,,,10,,,,,,,,,,,,,,,,,,,,,,,,,,,,,,,,,,,322.6396,323.8071,7,6,1.1397,,323.8087,324.8081,0,6,6,5,1,11,5,pics/grater01a.jpg,,,,,,,,,,,,,,,,,,,,,,,,,,,,,,,,,,,,,,,,,,,,,,,,,,,,,,,,,,,,,,,,,,,,,,,
,,,,,6658ee766e2632a6de409027,6669d216483b4754e2264ff7,6669dc6e4c43b763d92b78c7,31,Female,English,2024-06-12_10h38.38.207,ABmemTask3,2023.2.3,Win32,60.24096386,,,,,,,,,,,,,,,,,,,,,,,,,,,,,,,,,324.809,602,325.3072,,,,,,,,,,,,,,,,,,,,,,,,,,0,,,,,,,,,prac_MEM,new,,,,,,,,,,,10,,,,,,,,,,,,,,,,,,,,,,,,,,,,,,,,,,,325.3072,327.2577,8,3,1.9225,,327.2584,328.2578,0,7,7,7,1,999,999,pics/cherry01.jpg,,,,,,,,,,,,,,,,,,,,,,,,,,,,,,,,,,,,,,,,,,,,,,,,,,,,,,,,,,,,,,,,,,,,,,,
,,,,,6658ee766e2632a6de409027,6669d216483b4754e2264ff7,6669dc6e4c43b763d92b78c7,31,Female,English,2024-06-12_10h38.38.207,ABmemTask3,2023.2.3,Win32,60.24096386,,,,,,,,,,,,,,,,,,,,,,,,,,,,,,,,,328.2834,602,328.7729,,,,,,,,,,,,,,,,,,,,,,,,,,0,,,,,,,,,prac_MEM,old,,,,,,,,,,,10,,,,,,,,,,,,,,,,,,,,,,,,,,,,,,,,,,,328.773,330.5734,11,6,1.7777,,330.5746,331.5731,0,8,8,2,1,3,1,pics/sturgeon.jpg,,,,,,,,,,,,,,,,,,,,,,,,,,,,,,,,,,,,,,,,,,,,,,,,,,,,,,,,,,,,,,,,,,,,,,,
,,,,,6658ee766e2632a6de409027,6669d216483b4754e2264ff7,6669dc6e4c43b763d92b78c7,31,Female,English,2024-06-12_10h38.38.207,ABmemTask3,2023.2.3,Win32,60.24096386,,,,,,,,,,,,,,,,,,,,,,,,,,,,,,,,,331.6001,602,332.0889,,,,,,,,,,,,,,,,,,,,,,,,,,0,,,,,,,,,prac_MEM,old,,,,,,,,,,,10,,,,,,,,,,,,,,,,,,,,,,,,,,,,,,,,,,,332.089,332.9402,14,6,0.8393,,332.9406,333.9411,0,9,9,0,1,1,1,pics/tree.jpg,,,,,,,,,,,,,,,,,,,,,,,,,,,,,,,,,,,,,,,,,,,,,,,,,,,,,,,,,,,,,,,,,,,,,,,
,,,,,6658ee766e2632a6de409027,6669d216483b4754e2264ff7,6669dc6e4c43b763d92b78c7,31,Female,English,2024-06-12_10h38.38.207,ABmemTask3,2023.2.3,Win32,60.24096386,,,,,,,,,,,,,,,,,,,,,,,,,,,,,,,,,333.942,602,334.4396,,,,,,,,,,,,,,,,,,,,,,,,,,0,,,,,,,,,prac_MEM,old,,,,,,,,,,,10,,,,,,,,,,,,,,,,,,,,,,,,,,,,,,,,,,,334.4398,335.3245,17,6,0.8508,,335.3251,336.3248,0,10,10,1,1,2,1,pics/pants.jpg,,,,,,,,,,,,,,,,,,,,,,,,,,,,,,,,,,,,,,,,,,,,,,,,,,,,,,,,,,,,,,,,,,,,,,,
,,,,,6658ee766e2632a6de409027,6669d216483b4754e2264ff7,6669dc6e4c43b763d92b78c7,31,Female,English,2024-06-12_10h38.38.207,ABmemTask3,2023.2.3,Win32,60.24096386,,,,,,,,,,,,,,,,,,,,,,,,,,,,,,,,,,,,,,,,,,,,,,,,,,,,,,,,,,,,,,,,,,,,,,,,,,,,,,,,,,,,,,,,,,,,,,,,,,,,,,,,,,,,,,,,,,,,,,,,,,,,,,,,,,,,,336.3255,337.7737,337.774,337.7748,,,,,,,,,,,,,,,,,,,,,,,,,,,,,,,,,,,,,,,,,,,,,,,,,,,,,,,,,,,,,,,,,,,
,,,,,6658ee766e2632a6de409027,6669d216483b4754e2264ff7,6669dc6e4c43b763d92b78c7,31,Female,English,2024-06-12_10h38.38.207,ABmemTask3,2023.2.3,Win32,60.24096386,,,,,,,,,,,,,,,,,,space,22.5724,,,,,,,,,,,,,,,,,,,,,,,,,,,,,,,,,,,,,,,,,,,,,,,,,,,,,,,,,,,,,,,,,,,,,,,,,,,,,,,,,,,,,,,,,,,,,,,,,,,,,,,,,,,,,,,,,,,,,,337.7752,360.4089,,,,,,,,,,,,,,,,,,,,,,,,,,,,,,,,,,,,,,,,,,,,,,,,,,,,,,,,,,,,,,,,,
,,,,,6658ee766e2632a6de409027,6669d216483b4754e2264ff7,6669dc6e4c43b763d92b78c7,31,Female,English,2024-06-12_10h38.38.207,ABmemTask3,2023.2.3,Win32,60.24096386,,,,,,,,,,,,,,,,,,,,,,,,,,,,,,,,,,,,,,,,,,,,,,,,,,,,,,,,,,,,,,,,,,,,,,,,,,,,,,,,,,,,,,,,,,,,,,,,,,,,,,,,,,,,,,,,,,,,,,,,,,,,,,,,,,,,,,,,,,,360.4092,367.844,space,7.3821,,,,,,,,,,,,,,,,,,,,,,,,,,,,,,,,,,,,,,,,,,,,,,,,,,,,,,,,,,,,,
,,,,,6658ee766e2632a6de409027,6669d216483b4754e2264ff7,6669dc6e4c43b763d92b78c7,31,Female,English,2024-06-12_10h38.38.207,ABmemTask3,2023.2.3,Win32,60.24096386,,,,,,,,,,,,,,,,,,,,,,,,,,,,,,,367.8699,368.875,368.8751,7,369.3745,370.1922,0.0029,370.3086,0.1207,0.1166,0.1118,0.1163,0.117,0.1162,0.1166,,,,,370.3092,370.9923,right,0.6563,,370.9926,371.7079,left,0.7035,,0,0,2,371.7081,372.708,,,,,,1_AB,L1_T1P_T2P,1,1,1,4,5,3,3,8,Recycling bin,Did you see the Recycling bin,0.12,0,resources/,pics/microscope.jpg,pics/dustpan.jpg,pics/seagull.jpg,pics/recyclingbin.jpg,pics/stapler06.jpg,pics/bowtie.jpg,pics/dromedary.jpg,pics/salmon.jpg,blankImage,blankImage,blankImage,blankImage,blankImage,blankImage,blankImage,blankImage,blankImage,recyclingbin,16,,,,,,,,,,,,,,,,,,,,,,,,,,,,,,,,,,,,,,,,,0,0,0,15,1,,,,,,,,,,,,,,,,,,,,,,,,,,,,,,,,,,,,,,,,,,,,,,,,,,,,,,,
,,,,,6658ee766e2632a6de409027,6669d216483b4754e2264ff7,6669dc6e4c43b763d92b78c7,31,Female,English,2024-06-12_10h38.38.207,ABmemTask3,2023.2.3,Win32,60.24096386,,,,,,,,,,,,,,,,,,,,,,,,,,,,,,,372.7367,373.741,373.7412,7,374.2398,375.2925,0.0027,375.4078,0.1165,0.1169,0.1169,0.1167,0.1165,0.1175,0.1166,0.1164,0.1166,,,375.408,376.9086,right,1.4703,,376.9088,377.2752,right,0.3505,,2,0,4,377.2754,378.2744,,,,,,1_AB,L1_T1P_T2P,1,1,1,4,5,3,5,10,chair,Did you see the chair,0.12,0,resources/,pics/zebra.jpg,pics/floortile02.jpg,pics/cork02.jpg,pics/chair.jpg,pics/stapler07.jpg,pics/sealion.jpg,pics/shovel01.jpg,pics/piggybank.jpg,pics/candleholder01.jpg,pics/laptop01a.jpg,blankImage,blankImage,blankImage,blankImage,blankImage,blankImage,blankImage,chair,3,,,,,,,,,,,,,,,,,,,,,,,,,,,,,,,,,,,,,,,,,0,1,1,2,1,,,,,,,,,,,,,,,,,,,,,,,,,,,,,,,,,,,,,,,,,,,,,,,,,,,,,,,
,,,,,6658ee766e2632a6de409027,6669d216483b4754e2264ff7,6669dc6e4c43b763d92b78c7,31,Female,English,2024-06-12_10h38.38.207,ABmemTask3,2023.2.3,Win32,60.24096386,,,,,,,,,,,,,,,,,,,,,,,,,,,,,,,378.2759,379.275,379.2751,7,379.775,381.2975,0.0039,381.4078,0.1191,0.1117,0.1218,0.1113,0.1224,0.1113,0.1162,0.1173,0.117,0.1161,0.1165,381.408,382.0244,right,0.5893,,382.0245,382.2969,right,0.2659,,4,0,6,382.297,383.291,,,,,,1_AB,L5_T1P_T2P,5,1,1,5,10,4,4,14,Fox,Did you see the Fox,0.12,0,resources/,pics/hammerheadshark.jpg,pics/bowlingpin.jpg,pics/pictureframe04.jpg,pics/peanut01.jpg,pics/redfox.jpg,pics/cymbal.jpg,pics/spoon01.jpg,pics/banjo.jpg,pics/butterfly.jpg,pics/stapler11.jpg,pics/football.jpg,pics/safetypin.jpg,pics/triangle.jpg,pics/onion.jpg,blankImage,blankImage,blankImage,redfox,45,0.1169,0.1215,,,,,,,,,,,,,,,,,,,,,,,,,,,,,,,,,,,,,,,0,2,2,44,1,,,,,,,,,,,,,,,,,,,,,,,,,,,,,,,,,,,,,,,,,,,,,,,,,,,,,,,
,,,,,6658ee766e2632a6de409027,6669d216483b4754e2264ff7,6669dc6e4c43b763d92b78c7,31,Female,English,2024-06-12_10h38.38.207,ABmemTask3,2023.2.3,Win32,60.24096386,,,,,,,,,,,,,,,,,,,,,,,,,,,,,,,383.2923,384.2907,384.2908,7,384.7801,385.9428,0.0017,386.0579,0.111,0.1165,0.1169,0.1168,0.1166,0.1167,0.1167,0.1169,0.1167,0.1166,,386.058,386.6747,right,0.5845,,386.6748,386.9414,right,0.2394,,6,0,8,386.9416,387.942,,,,,,1_AB,L1_T1P_T2P,1,1,1,7,8,6,3,11,sock,Did you see the sock,0.12,0,resources/,pics/hen.jpg,pics/christmaslights.jpg,pics/salmon.jpg,pics/sealion.jpg,pics/seaturtle.jpg,pics/giraffe.jpg,pics/athleticsock.jpg,pics/stapler01.jpg,pics/shovel01.jpg,pics/leaf02a.jpg,pics/backpack01a.jpg,blankImage,blankImage,blankImage,blankImage,blankImage,blankImage,athleticsock,11,,,,,,,,,,,,,,,,,,,,,,,,,,,,,,,,,,,,,,,,,0,3,3,10,1,,,,,,,,,,,,,,,,,,,,,,,,,,,,,,,,,,,,,,,,,,,,,,,,,,,,,,,
,,,,,6658ee766e2632a6de409027,6669d216483b4754e2264ff7,6669dc6e4c43b763d92b78c7,31,Female,English,2024-06-12_10h38.38.207,ABmemTask3,2023.2.3,Win32,60.24096386,,,,,,,,,,,,,,,,,,,,,,,,,,,,,,,387.9434,388.9417,388.9419,7,389.4416,390.4926,0.0024,390.6084,0.116,0.1169,0.1159,0.1172,0.1159,0.1164,0.1172,0.1169,0.1167,,,390.6086,391.5479,right,0.918,,391.548,391.8423,left,0.2792,,8,0,10,391.8424,392.8314,,,,,,1_AB,L1_T1P_T2A,1,1,0,6,7,5,3,10,Duct tape,Did you see the Duct tape,0.12,0,resources/,pics/butterfly.jpg,pics/noparkingsign.jpg,pics/pictureframe04.jpg,pics/cork02.jpg,pics/fanblades.jpg,pics/ducttape.jpg,pics/icecube01.jpg,pics/siamesecat.jpg,pics/sink.jpg,pics/sandbarshark.jpg,blankImage,blankImage,blankImage,blankImage,blankImage,blankImage,blankImage,ducttape,36,,,,,,,,,,,,,,,,,,,,,,,,,,,,,,,,,,,,,,,,,0,4,4,35,1,,,,,,,,,,,,,,,,,,,,,,,,,,,,,,,,,,,,,,,,,,,,,,,,,,,,,,,
,,,,,6658ee766e2632a6de409027,6669d216483b4754e2264ff7,6669dc6e4c43b763d92b78c7,31,Female,English,2024-06-12_10h38.38.207,ABmemTask3,2023.2.3,Win32,60.24096386,,,,,,,,,,,,,,,,,,,,,,,,,,,,,,,392.8636,393.8585,393.8586,7,394.3577,395.9917,0.0034,396.107,0.1149,0.1182,0.1206,0.1116,0.1169,0.1165,0.1162,0.1183,0.1164,0.1159,0.1164,396.1073,396.9407,left,0.8064,,396.9409,397.2925,left,0.3218,,8,0,12,397.2926,398.2924,,,,,,1_AB,L5_T1A_T2P,5,0,1,5,10,4,5,15,scorpion,Did you see the scorpion,0.12,0,resources/,pics/pictureframe04.jpg,pics/binder03b.jpg,pics/pencil01.jpg,pics/leaf02a.jpg,pics/icecube01.jpg,pics/dromedary.jpg,pics/toiletpaper01a.jpg,pics/peanut01.jpg,pics/golfball.jpg,pics/stapler03.jpg,pics/carrot01.jpg,pics/peach01.jpg,pics/sealion.jpg,pics/football.jpg,pics/zebra.jpg,blankImage,blankImage,scorpion,54,0.1164,0.1161,0.1169,,,,,,,,,,,,,,,,,,,,,,,,,,,,,,,,,,,,,,0,5,5,53,1,,,,,,,,,,,,,,,,,,,,,,,,,,,,,,,,,,,,,,,,,,,,,,,,,,,,,,,
,,,,,6658ee766e2632a6de409027,6669d216483b4754e2264ff7,6669dc6e4c43b763d92b78c7,31,Female,English,2024-06-12_10h38.38.207,ABmemTask3,2023.2.3,Win32,60.24096386,,,,,,,,,,,,,,,,,,,,,,,,,,,,,,,398.2932,399.2922,399.2923,7,399.7923,401.3093,0.0022,401.4255,0.1159,0.1158,0.1167,0.1174,0.1161,0.1164,0.1167,0.1175,0.1165,0.1165,0.1168,401.4257,402.5746,left,1.1205,,402.5748,402.8918,right,0.3041,,10,0,14,402.8921,403.8919,,,,,,1_AB,L5_T1A_T2P,5,0,1,4,9,3,5,14,lemon,Did you see the lemon,0.12,0,resources/,pics/seaturtle.jpg,pics/lightswitch01.jpg,pics/candle01.jpg,pics/cannon.jpg,pics/seagull.jpg,pics/spoon01.jpg,pics/spiderweb.jpg,pics/sewingmachine01a.jpg,pics/stapler05.jpg,pics/binoculars01b.jpg,pics/zebra.jpg,pics/sealion.jpg,pics/shovel01.jpg,pics/wheel01.jpg,blankImage,blankImage,blankImage,lemon02,56,0.1168,0.1159,,,,,,,,,,,,,,,,,,,,,,,,,,,,,,,,,,,,,,,0,6,6,55,1,,,,,,,,,,,,,,,,,,,,,,,,,,,,,,,,,,,,,,,,,,,,,,,,,,,,,,,
,,,,,6658ee766e2632a6de409027,6669d216483b4754e2264ff7,6669dc6e4c43b763d92b78c7,31,Female,English,2024-06-12_10h38.38.207,ABmemTask3,2023.2.3,Win32,60.24096386,,,,,,,,,,,,,,,,,,,,,,,,,,,,,,,403.893,404.8915,404.8917,7,405.3916,406.442,0.0029,406.5587,0.1153,0.1167,0.1166,0.117,0.1162,0.1169,0.1166,0.1172,0.1157,,,406.5589,407.5247,left,0.9384,,407.5248,408.0257,right,0.4717,,12,0,16,408.0259,409.025,,,,,,1_AB,L1_T1A_T2P,1,0,1,5,6,4,4,10,Rabbit,Did you see the Rabbit,0.12,0,resources/,pics/cannon.jpg,pics/proboscismonkey.jpg,pics/salmon.jpg,pics/nutcracker01.jpg,pics/seagull.jpg,pics/stapler02.jpg,pics/table01.jpg,pics/laptop01a.jpg,pics/necklace.jpg,pics/pencilsharpener02a.jpg,blankImage,blankImage,blankImage,blankImage,blankImage,blankImage,blankImage,jackrabbit,31,,,,,,,,,,,,,,,,,,,,,,,,,,,,,,,,,,,,,,,,,0,7,7,30,1,,,,,,,,,,,,,,,,,,,,,,,,,,,,,,,,,,,,,,,,,,,,,,,,,,,,,,,
,,,,,6658ee766e2632a6de409027,6669d216483b4754e2264ff7,6669dc6e4c43b763d92b78c7,31,Female,English,2024-06-12_10h38.38.207,ABmemTask3,2023.2.3,Win32,60.24096386,,,,,,,,,,,,,,,,,,,,,,,,,,,,,,,409.0532,410.0425,410.0427,7,410.5418,411.8325,0.0031,411.9424,0.115,0.1167,0.1167,0.1172,0.1163,0.1163,0.1168,0.1168,0.1165,0.1167,0.1231,411.9426,412.8412,right,0.8701,,412.8414,413.1924,left,0.3202,,12,0,18,413.1927,414.1966,,,,,,1_AB,L1_T1P_T2P,1,1,1,7,8,6,4,12,hammer,Did you see the hammer,0.12,0,resources/,pics/microscope.jpg,pics/blender.jpg,pics/dustpan.jpg,pics/snowshoe.jpg,pics/mummy.jpg,pics/bowtie.jpg,pics/hammer01.jpg,pics/stapler04b.jpg,pics/seaturtle.jpg,pics/candle01.jpg,pics/necklace.jpg,pics/cannon.jpg,blankImage,blankImage,blankImage,blankImage,blankImage,hammer01,21,,,,,,,,,,,,,,,,,,,,,,,,,,,,,,,,,,,,,,,,,0,8,8,20,1,,,,,,,,,,,,,,,,,,,,,,,,,,,,,,,,,,,,,,,,,,,,,,,,,,,,,,,
,,,,,6658ee766e2632a6de409027,6669d216483b4754e2264ff7,6669dc6e4c43b763d92b78c7,31,Female,English,2024-06-12_10h38.38.207,ABmemTask3,2023.2.3,Win32,60.24096386,,,,,,,,,,,,,,,,,,,,,,,,,,,,,,,414.1974,415.1919,415.1921,7,415.6803,416.6095,0.0021,416.7246,0.1107,0.1177,0.1156,0.117,0.1165,0.1177,0.1154,0.1171,,,,416.7249,417.625,right,0.8708,,417.6253,417.9263,right,0.2768,,14,0,20,417.9264,418.9245,,,,,,1_AB,L1_T1P_T2P,1,1,1,4,5,3,4,9,antenna,Did you see the antenna,0.12,0,resources/,pics/microscope.jpg,pics/spoon01.jpg,pics/dromedary.jpg,pics/antenna.jpg,pics/stapler03.jpg,pics/hen.jpg,pics/leaf02a.jpg,pics/candle01.jpg,pics/sealion.jpg,blankImage,blankImage,blankImage,blankImage,blankImage,blankImage,blankImage,blankImage,antenna,9,,,,,,,,,,,,,,,,,,,,,,,,,,,,,,,,,,,,,,,,,0,9,9,8,1,,,,,,,,,,,,,,,,,,,,,,,,,,,,,,,,,,,,,,,,,,,,,,,,,,,,,,,
,,,,,6658ee766e2632a6de409027,6669d216483b4754e2264ff7,6669dc6e4c43b763d92b78c7,31,Female,English,2024-06-12_10h38.38.207,ABmemTask3,2023.2.3,Win32,60.24096386,,,,,,,,,,,,,,,,,,,,,,,,,,,,,,,418.9259,419.9233,419.9234,7,420.4246,421.3594,0.0028,421.4753,0.1165,0.1159,0.1167,0.1173,0.1159,0.117,0.1166,0.1166,,,,421.4755,422.4418,right,0.9381,,422.442,423.0756,left,0.6112,,14,0,22,423.0759,424.0752,,,,,,1_AB,L1_T1P_T2P,1,1,1,5,6,4,3,9,cabbage,Did you see the cabbage,0.12,0,resources/,pics/match.jpg,pics/icecube01.jpg,pics/noparkingsign.jpg,pics/christmaslights.jpg,pics/cabbage.jpg,pics/stapler03a.jpg,pics/carrot01.jpg,pics/dustpan.jpg,pics/cannon.jpg,blankImage,blankImage,blankImage,blankImage,blankImage,blankImage,blankImage,blankImage,cabbage,14,,,,,,,,,,,,,,,,,,,,,,,,,,,,,,,,,,,,,,,,,0,10,10,13,1,,,,,,,,,,,,,,,,,,,,,,,,,,,,,,,,,,,,,,,,,,,,,,,,,,,,,,,
,,,,,6658ee766e2632a6de409027,6669d216483b4754e2264ff7,6669dc6e4c43b763d92b78c7,31,Female,English,2024-06-12_10h38.38.207,ABmemTask3,2023.2.3,Win32,60.24096386,,,,,,,,,,,,,,,,,,,,,,,,,,,,,,,424.0766,425.0764,425.0765,7,425.5756,426.6257,0.0032,426.7413,0.1146,0.1165,0.1172,0.1162,0.1166,0.1169,0.1165,0.1168,0.1162,,,426.7414,428.2266,left,1.4541,,428.2268,428.5592,right,0.3029,,16,0,24,428.5594,429.5639,,,,,,1_AB,L1_T1A_T2P,1,0,1,5,6,4,4,10,button,Did you see the button,0.12,0,resources/,pics/pencil01.jpg,pics/necklace.jpg,pics/sink.jpg,pics/noparkingsign.jpg,pics/banjo.jpg,pics/stapler03b.jpg,pics/candle01.jpg,pics/icecube01.jpg,pics/shovel01.jpg,pics/pencilsharpener02a.jpg,blankImage,blankImage,blankImage,blankImage,blankImage,blankImage,blankImage,button01,25,,,,,,,,,,,,,,,,,,,,,,,,,,,,,,,,,,,,,,,,,0,11,11,24,1,,,,,,,,,,,,,,,,,,,,,,,,,,,,,,,,,,,,,,,,,,,,,,,,,,,,,,,
,,,,,6658ee766e2632a6de409027,6669d216483b4754e2264ff7,6669dc6e4c43b763d92b78c7,31,Female,English,2024-06-12_10h38.38.207,ABmemTask3,2023.2.3,Win32,60.24096386,,,,,,,,,,,,,,,,,,,,,,,,,,,,,,,429.565,430.5577,430.5578,7,431.0587,432.2262,0.0029,432.341,0.1161,0.1165,0.1215,0.111,0.117,0.1164,0.1167,0.1166,0.1166,0.1165,,432.3412,433.0259,right,0.6589,,433.0261,433.4256,right,0.3865,,14,0,26,433.4258,434.4137,,,,,,1_AB,L1_T1P_T2A,1,1,0,6,7,5,4,11,lamp,Did you see the lamp,0.12,0,resources/,pics/chainsaw.jpg,pics/fanblades.jpg,pics/salmon.jpg,pics/proboscismonkey.jpg,pics/boot02b.jpg,pics/lamp04a.jpg,pics/blender.jpg,pics/sink.jpg,pics/pencil01.jpg,pics/floortile02.jpg,pics/shovel01.jpg,blankImage,blankImage,blankImage,blankImage,blankImage,blankImage,lamp04a,37,,,,,,,,,,,,,,,,,,,,,,,,,,,,,,,,,,,,,,,,,0,12,12,36,1,,,,,,,,,,,,,,,,,,,,,,,,,,,,,,,,,,,,,,,,,,,,,,,,,,,,,,,
,,,,,6658ee766e2632a6de409027,6669d216483b4754e2264ff7,6669dc6e4c43b763d92b78c7,31,Female,English,2024-06-12_10h38.38.207,ABmemTask3,2023.2.3,Win32,60.24096386,,,,,,,,,,,,,,,,,,,,,,,,,,,,,,,434.4154,435.4075,435.4076,7,435.9086,437.1925,0.0027,437.3085,0.1147,0.1166,0.1171,0.1169,0.1158,0.1162,0.1171,0.117,0.1165,0.1167,0.1168,437.3086,437.9751,right,0.6441,,437.9751,438.7752,right,0.7879,,16,0,28,438.7753,439.7747,,,,,,1_AB,L1_T1P_T2P,1,1,1,6,7,5,5,12,rope,Did you see the rope,0.12,0,resources/,pics/toiletpaper01a.jpg,pics/sewingmachine01a.jpg,pics/birdhouse.jpg,pics/sealion.jpg,pics/safetypin.jpg,pics/rope03.jpg,pics/stapler04.jpg,pics/binder03b.jpg,pics/ashtray01.jpg,pics/sandbarshark.jpg,pics/chainsaw.jpg,pics/nutcracker01.jpg,blankImage,blankImage,blankImage,blankImage,blankImage,rope03,4,,,,,,,,,,,,,,,,,,,,,,,,,,,,,,,,,,,,,,,,,0,13,13,3,1,,,,,,,,,,,,,,,,,,,,,,,,,,,,,,,,,,,,,,,,,,,,,,,,,,,,,,,
,,,,,6658ee766e2632a6de409027,6669d216483b4754e2264ff7,6669dc6e4c43b763d92b78c7,31,Female,English,2024-06-12_10h38.38.207,ABmemTask3,2023.2.3,Win32,60.24096386,,,,,,,,,,,,,,,,,,,,,,,,,,,,,,,439.7758,440.7753,440.7753,7,441.2753,442.4407,0.002,442.5572,0.1158,0.1164,0.1164,0.1159,0.1159,0.1169,0.1172,0.116,0.117,0.1161,,442.5573,444.3417,right,1.7686,,444.3418,445.1921,left,0.8372,,18,0,30,445.1921,446.1926,,,,,,1_AB,L1_T1P_T2A,1,1,0,7,8,6,3,11,Spear,Did you see the Spear,0.12,0,resources/,pics/butterfly.jpg,pics/banjo.jpg,pics/chainsaw.jpg,pics/christmaslights.jpg,pics/dustpan.jpg,pics/shovel01.jpg,pics/spear02.jpg,pics/table01.jpg,pics/starfish01.jpg,pics/bowlingpin.jpg,pics/carrot01.jpg,blankImage,blankImage,blankImage,blankImage,blankImage,blankImage,spear02,39,,,,,,,,,,,,,,,,,,,,,,,,,,,,,,,,,,,,,,,,,0,14,14,38,1,,,,,,,,,,,,,,,,,,,,,,,,,,,,,,,,,,,,,,,,,,,,,,,,,,,,,,,
,,,,,6658ee766e2632a6de409027,6669d216483b4754e2264ff7,6669dc6e4c43b763d92b78c7,31,Female,English,2024-06-12_10h38.38.207,ABmemTask3,2023.2.3,Win32,60.24096386,,,,,,,,,,,,,,,,,,,,,,,,,,,,,,,446.2184,447.2088,447.2088,7,447.708,448.992,0.0015,449.1085,0.1158,0.1172,0.1173,0.1162,0.1167,0.1168,0.1165,0.117,0.1171,0.116,0.1165,449.1087,450.0082,left,0.8839,,450.0083,450.8913,left,0.8703,,16,0,32,450.8915,451.8917,,,,,,1_AB,L1_T1P_T2P,1,1,1,7,8,6,4,12,Turnstile,Did you see the Turnstile,0.12,0,resources/,pics/golfball.jpg,pics/hose.jpg,pics/siamesecat.jpg,pics/binoculars01b.jpg,pics/hen.jpg,pics/candleholder01.jpg,pics/turnstile.jpg,pics/stapler03a.jpg,pics/giraffe.jpg,pics/pictureframe04.jpg,pics/sandbarshark.jpg,pics/spoon01.jpg,blankImage,blankImage,blankImage,blankImage,blankImage,turnstile,13,,,,,,,,,,,,,,,,,,,,,,,,,,,,,,,,,,,,,,,,,0,15,15,12,1,,,,,,,,,,,,,,,,,,,,,,,,,,,,,,,,,,,,,,,,,,,,,,,,,,,,,,,
,,,,,6658ee766e2632a6de409027,6669d216483b4754e2264ff7,6669dc6e4c43b763d92b78c7,31,Female,English,2024-06-12_10h38.38.207,ABmemTask3,2023.2.3,Win32,60.24096386,,,,,,,,,,,,,,,,,,,,,,,,,,,,,,,451.8926,452.891,452.8911,7,453.3918,454.3257,0.0021,454.4421,0.1158,0.1163,0.1167,0.1167,0.1173,0.1163,0.1168,0.1163,,,,454.4423,455.1751,right,0.7113,,455.1752,455.7923,left,0.6075,,18,0,34,455.7925,456.7906,,,,,,1_AB,L1_T1P_T2A,1,1,0,4,5,3,4,9,blueberry,Did you see the blueberry,0.12,0,resources/,pics/sealion.jpg,pics/piggybank.jpg,pics/sink.jpg,pics/blueberry01.jpg,pics/onion.jpg,pics/sailboat.jpg,pics/seaturtle.jpg,pics/hen.jpg,pics/fanblades.jpg,blankImage,blankImage,blankImage,blankImage,blankImage,blankImage,blankImage,blankImage,blueberry01,35,,,,,,,,,,,,,,,,,,,,,,,,,,,,,,,,,,,,,,,,,0,16,16,34,1,,,,,,,,,,,,,,,,,,,,,,,,,,,,,,,,,,,,,,,,,,,,,,,,,,,,,,,
,,,,,6658ee766e2632a6de409027,6669d216483b4754e2264ff7,6669dc6e4c43b763d92b78c7,31,Female,English,2024-06-12_10h38.38.207,ABmemTask3,2023.2.3,Win32,60.24096386,,,,,,,,,,,,,,,,,,,,,,,,,,,,,,,456.808,457.8096,457.8097,7,458.3102,459.36,0.0024,459.4754,0.115,0.1178,0.1151,0.1172,0.1169,0.117,0.1161,0.1167,0.1164,,,459.4756,460.2763,right,0.7702,,460.2765,460.5265,right,0.2211,,20,0,36,460.5268,461.5315,,,,,,1_AB,L1_T1P_T2P,1,1,1,5,6,4,4,10,thermometer,Did you see the thermometer,0.12,0,resources/,pics/triangle.jpg,pics/shovel01.jpg,pics/mummy.jpg,pics/noparkingsign.jpg,pics/thermometer02b.jpg,pics/stapler04.jpg,pics/piggybank.jpg,pics/golfball.jpg,pics/laptop01a.jpg,pics/aquarium.jpg,blankImage,blankImage,blankImage,blankImage,blankImage,blankImage,blankImage,thermometer02b,8,,,,,,,,,,,,,,,,,,,,,,,,,,,,,,,,,,,,,,,,,0,17,17,7,1,,,,,,,,,,,,,,,,,,,,,,,,,,,,,,,,,,,,,,,,,,,,,,,,,,,,,,,
,,,,,6658ee766e2632a6de409027,6669d216483b4754e2264ff7,6669dc6e4c43b763d92b78c7,31,Female,English,2024-06-12_10h38.38.207,ABmemTask3,2023.2.3,Win32,60.24096386,,,,,,,,,,,,,,,,,,,,,,,,,,,,,,,461.5324,462.5322,462.5323,7,463.0263,464.1933,0.0021,464.3081,0.1158,0.1163,0.1166,0.1174,0.1163,0.1163,0.1168,0.1165,0.1168,0.1167,,464.3082,465.3428,left,1.0078,,465.343,465.9087,right,0.5381,,22,0,38,465.9089,466.909,,,,,,1_AB,L1_T1A_T2P,1,0,1,7,8,6,3,11,turkey,Did you see the turkey,0.12,0,resources/,pics/proboscismonkey.jpg,pics/blender.jpg,pics/sealion.jpg,pics/snowshoe.jpg,pics/carrot01.jpg,pics/microscope.jpg,pics/piggybank.jpg,pics/stapler12.jpg,pics/peanut01.jpg,pics/dustpan.jpg,pics/footballhelmet.jpg,blankImage,blankImage,blankImage,blankImage,blankImage,blankImage,turkey,26,,,,,,,,,,,,,,,,,,,,,,,,,,,,,,,,,,,,,,,,,0,18,18,25,1,,,,,,,,,,,,,,,,,,,,,,,,,,,,,,,,,,,,,,,,,,,,,,,,,,,,,,,
,,,,,6658ee766e2632a6de409027,6669d216483b4754e2264ff7,6669dc6e4c43b763d92b78c7,31,Female,English,2024-06-12_10h38.38.207,ABmemTask3,2023.2.3,Win32,60.24096386,,,,,,,,,,,,,,,,,,,,,,,,,,,,,,,466.9365,467.926,467.9261,7,468.4258,469.477,0.0023,469.5924,0.1216,0.1115,0.1165,0.1164,0.117,0.116,0.1167,0.1168,0.1168,,,469.5926,470.6593,left,1.0439,,470.6595,471.4592,left,0.7727,,22,0,40,471.4594,472.4579,,,,,,1_AB,L1_T1P_T2A,1,1,0,6,7,5,3,10,Electric toothbrush,Did you see the Electric toothbrush,0.12,0,resources/,pics/football.jpg,pics/sailboat.jpg,pics/cymbal.jpg,pics/hen.jpg,pics/pencil01.jpg,pics/electrictoothbrush01c.jpg,pics/bowlingpin.jpg,pics/wheel01.jpg,pics/birdhouse.jpg,pics/leaf02a.jpg,blankImage,blankImage,blankImage,blankImage,blankImage,blankImage,blankImage,electrictoothbrush01c,34,,,,,,,,,,,,,,,,,,,,,,,,,,,,,,,,,,,,,,,,,0,19,19,33,1,,,,,,,,,,,,,,,,,,,,,,,,,,,,,,,,,,,,,,,,,,,,,,,,,,,,,,,
,,,,,6658ee766e2632a6de409027,6669d216483b4754e2264ff7,6669dc6e4c43b763d92b78c7,31,Female,English,2024-06-12_10h38.38.207,ABmemTask3,2023.2.3,Win32,60.24096386,,,,,,,,,,,,,,,,,,,,,,,,,,,,,,,472.4592,473.4596,473.4596,7,473.9597,475.7148,0.0023,475.8249,0.116,0.121,0.1118,0.1169,0.116,0.1161,0.1176,0.1168,0.117,0.116,0.117,475.825,476.4097,right,0.5597,,476.4098,476.7764,left,0.3542,,24,0,42,476.7765,477.7766,,,,,,1_AB,L5_T1P_T2A,5,1,0,6,11,5,5,16,belt,Did you see the belt,0.12,0,resources/,pics/banjo.jpg,pics/birdhouse.jpg,pics/spoon01.jpg,pics/table01.jpg,pics/candle01.jpg,pics/belt02a.jpg,pics/peach01.jpg,pics/chainsaw.jpg,pics/toiletpaper01a.jpg,pics/proboscismonkey.jpg,pics/cymbal.jpg,pics/binoculars01b.jpg,pics/cannon.jpg,pics/noparkingsign.jpg,pics/sailboat.jpg,pics/carrot01.jpg,blankImage,belt02a,61,0.117,0.1168,0.1161,,,,,,,,,,,,,,,,,,,,,,,,,,,,,,,,,,,,,,0,20,20,60,1,0.1212,,,,,,,,,,,,,,,,,,,,,,,,,,,,,,,,,,,,,,,,,,,,,,,,,,,,,,
,,,,,6658ee766e2632a6de409027,6669d216483b4754e2264ff7,6669dc6e4c43b763d92b78c7,31,Female,English,2024-06-12_10h38.38.207,ABmemTask3,2023.2.3,Win32,60.24096386,,,,,,,,,,,,,,,,,,,,,,,,,,,,,,,477.7779,478.7765,478.7766,7,479.2812,481.1437,0.0024,481.2591,0.1107,0.1168,0.1165,0.1167,0.117,0.116,0.1173,0.1161,0.1177,0.1159,0.1166,481.2592,482.5931,left,1.3081,,482.5933,483.3092,left,0.706,,26,0,44,483.3094,484.3094,,,,,,1_AB,L5_T1A_T2A,5,0,0,7,12,6,5,17,Bib,Did you see the Bib,0.12,0,resources/,pics/hammerheadshark.jpg,pics/wheel01.jpg,pics/binder03b.jpg,pics/hairdryer02a.jpg,pics/christmaslights.jpg,pics/sandbarshark.jpg,pics/binoculars01b.jpg,pics/piggybank.jpg,pics/aquarium.jpg,pics/candleholder01.jpg,pics/sink.jpg,pics/calendar.jpg,pics/birdhouse.jpg,pics/bowtie.jpg,pics/onion.jpg,pics/golfball.jpg,pics/sailboat.jpg,bib,62,0.1163,0.1168,0.1165,,,,,,,,,,,,,,,,,,,,,,,,,,,,,,,,,,,,,,0,21,21,61,1,0.1218,0.112,,,,,,,,,,,,,,,,,,,,,,,,,,,,,,,,,,,,,,,,,,,,,,,,,,,,,
,,,,,6658ee766e2632a6de409027,6669d216483b4754e2264ff7,6669dc6e4c43b763d92b78c7,31,Female,English,2024-06-12_10h38.38.207,ABmemTask3,2023.2.3,Win32,60.24096386,,,,,,,,,,,,,,,,,,,,,,,,,,,,,,,484.3111,485.3093,485.3095,7,485.8091,486.9769,0.0022,487.0918,0.1161,0.117,0.1171,0.1162,0.1168,0.1168,0.1161,0.1179,0.1148,0.1172,,487.092,487.7267,right,0.6082,,487.7268,488.2254,left,0.4882,,28,0,46,488.2255,489.2311,,,,,,1_AB,L1_T1P_T2A,1,1,0,7,8,6,3,11,garlic,Did you see the garlic,0.12,0,resources/,pics/zebra.jpg,pics/banjo.jpg,pics/pencilsharpener02a.jpg,pics/football.jpg,pics/candle01.jpg,pics/footballhelmet.jpg,pics/garlic01a.jpg,pics/birdhouse.jpg,pics/peach01.jpg,pics/pictureframe04.jpg,pics/binder03b.jpg,blankImage,blankImage,blankImage,blankImage,blankImage,blankImage,garlic01a,33,,,,,,,,,,,,,,,,,,,,,,,,,,,,,,,,,,,,,,,,,0,22,22,32,1,,,,,,,,,,,,,,,,,,,,,,,,,,,,,,,,,,,,,,,,,,,,,,,,,,,,,,,
,,,,,6658ee766e2632a6de409027,6669d216483b4754e2264ff7,6669dc6e4c43b763d92b78c7,31,Female,English,2024-06-12_10h38.38.207,ABmemTask3,2023.2.3,Win32,60.24096386,,,,,,,,,,,,,,,,,,,,,,,,,,,,,,,489.2321,490.2262,490.2264,7,490.7316,492.1311,0.002,492.2417,0.1116,0.1154,0.1166,0.1169,0.1163,0.1158,0.1177,0.117,0.1169,0.1162,0.1165,492.2419,492.9602,left,0.6861,,492.9604,493.7259,right,0.757,,28,0,48,493.7261,494.7251,,,,,,1_AB,L1_T1P_T2P,1,1,1,7,8,6,5,13,Totem Pole,Did you see the Totem Pole,0.12,0,resources/,pics/laptop01a.jpg,pics/carrot01.jpg,pics/wheel01.jpg,pics/icecube01.jpg,pics/ashtray01.jpg,pics/lock03a.jpg,pics/totempole.jpg,pics/stapler08.jpg,pics/golfball.jpg,pics/pencil01.jpg,pics/banjo.jpg,pics/sandbarshark.jpg,pics/shipinabottle.jpg,blankImage,blankImage,blankImage,blankImage,totempole,22,0.1207,,,,,,,,,,,,,,,,,,,,,,,,,,,,,,,,,,,,,,,,0,23,23,21,1,,,,,,,,,,,,,,,,,,,,,,,,,,,,,,,,,,,,,,,,,,,,,,,,,,,,,,,
,,,,,6658ee766e2632a6de409027,6669d216483b4754e2264ff7,6669dc6e4c43b763d92b78c7,31,Female,English,2024-06-12_10h38.38.207,ABmemTask3,2023.2.3,Win32,60.24096386,,,,,,,,,,,,,,,,,,,,,,,,,,,,,,,494.7267,495.7267,495.7268,7,496.225,497.8603,0.0027,497.9749,0.1157,0.1171,0.1167,0.1163,0.117,0.1161,0.1173,0.1167,0.1162,0.1164,0.1174,497.9751,498.4923,right,0.486,,498.4925,498.7643,right,0.2505,,30,0,50,498.7644,499.7591,,,,,,1_AB,L5_T1P_T2P,5,1,1,5,10,4,5,15,dolphin,Did you see the dolphin,0.12,0,resources/,pics/banjo.jpg,pics/shipinabottle.jpg,pics/laptop01a.jpg,pics/onion.jpg,pics/dolphin01.jpg,pics/sink.jpg,pics/seaturtle.jpg,pics/butterfly.jpg,pics/hen.jpg,pics/stapler10.jpg,pics/proboscismonkey.jpg,pics/starfish01.jpg,pics/salmon.jpg,pics/spiderweb.jpg,pics/cymbal.jpg,blankImage,blankImage,dolphin01,49,0.1165,0.1165,0.1168,,,,,,,,,,,,,,,,,,,,,,,,,,,,,,,,,,,,,,0,24,24,48,1,,,,,,,,,,,,,,,,,,,,,,,,,,,,,,,,,,,,,,,,,,,,,,,,,,,,,,,
,,,,,6658ee766e2632a6de409027,6669d216483b4754e2264ff7,6669dc6e4c43b763d92b78c7,31,Female,English,2024-06-12_10h38.38.207,ABmemTask3,2023.2.3,Win32,60.24096386,,,,,,,,,,,,,,,,,,,,,,,,,,,,,,,499.7609,500.7591,500.7593,7,501.259,502.4263,0.0026,502.5417,0.1162,0.1163,0.1168,0.1164,0.1171,0.1161,0.1171,0.1167,0.1165,0.1166,,502.5418,503.2749,right,0.7104,,503.2751,503.6089,left,0.3011,,30,0,52,503.609,504.6088,,,,,,1_AB,L1_T1P_T2P,1,1,1,7,8,6,3,11,medal,Did you see the medal,0.12,0,resources/,pics/hen.jpg,pics/starfish01.jpg,pics/nutcracker01.jpg,pics/ball02.jpg,pics/fanblades.jpg,pics/christmaslights.jpg,pics/medal02b.jpg,pics/stapler09.jpg,pics/carrot01.jpg,pics/hammerheadshark.jpg,pics/sailboat.jpg,blankImage,blankImage,blankImage,blankImage,blankImage,blankImage,medal02b,19,,,,,,,,,,,,,,,,,,,,,,,,,,,,,,,,,,,,,,,,,0,25,25,18,1,,,,,,,,,,,,,,,,,,,,,,,,,,,,,,,,,,,,,,,,,,,,,,,,,,,,,,,
,,,,,6658ee766e2632a6de409027,6669d216483b4754e2264ff7,6669dc6e4c43b763d92b78c7,31,Female,English,2024-06-12_10h38.38.207,ABmemTask3,2023.2.3,Win32,60.24096386,,,,,,,,,,,,,,,,,,,,,,,,,,,,,,,504.6104,505.6098,505.61,7,506.1081,507.3931,0.0032,507.5084,0.1154,0.117,0.1174,0.1163,0.1205,0.1128,0.1163,0.1173,0.1162,0.1171,0.1167,507.5086,508.0591,right,0.5185,,508.0593,508.2587,right,0.1743,,32,0,54,508.2589,509.2602,,,,,,1_AB,L1_T1P_T2P,1,1,1,6,7,5,5,12,Bear,Did you see the Bear,0.12,0,resources/,pics/necklace.jpg,pics/hen.jpg,pics/dromedary.jpg,pics/piggybank.jpg,pics/sandbarshark.jpg,pics/grizzly.jpg,pics/stapler12.jpg,pics/bowlingpin.jpg,pics/christmaslights.jpg,pics/icecube01.jpg,pics/match.jpg,pics/lock03a.jpg,blankImage,blankImage,blankImage,blankImage,blankImage,grizzly,18,,,,,,,,,,,,,,,,,,,,,,,,,,,,,,,,,,,,,,,,,0,26,26,17,1,,,,,,,,,,,,,,,,,,,,,,,,,,,,,,,,,,,,,,,,,,,,,,,,,,,,,,,
,,,,,6658ee766e2632a6de409027,6669d216483b4754e2264ff7,6669dc6e4c43b763d92b78c7,31,Female,English,2024-06-12_10h38.38.207,ABmemTask3,2023.2.3,Win32,60.24096386,,,,,,,,,,,,,,,,,,,,,,,,,,,,,,,509.2611,510.2583,510.2586,7,510.7589,511.6936,0.002,511.8095,0.1168,0.1161,0.1171,0.1168,0.1157,0.1174,0.117,0.1164,,,,511.8097,516.7497,left,4.9181,,516.7499,517.5939,right,0.8241,,32,0,56,517.594,518.5925,,,,,,1_AB,L1_T1P_T2P,1,1,1,5,6,4,3,9,paint brush,Did you see the paint brush,0.12,0,resources/,pics/nutcracker01.jpg,pics/piggybank.jpg,pics/spiderweb.jpg,pics/table01.jpg,pics/paintbrush01.jpg,pics/stapler09.jpg,pics/hose.jpg,pics/cannon.jpg,pics/mummy.jpg,blankImage,blankImage,blankImage,blankImage,blankImage,blankImage,blankImage,blankImage,paintbrush01,20,,,,,,,,,,,,,,,,,,,,,,,,,,,,,,,,,,,,,,,,,0,27,27,19,1,,,,,,,,,,,,,,,,,,,,,,,,,,,,,,,,,,,,,,,,,,,,,,,,,,,,,,,
,,,,,6658ee766e2632a6de409027,6669d216483b4754e2264ff7,6669dc6e4c43b763d92b78c7,31,Female,English,2024-06-12_10h38.38.207,ABmemTask3,2023.2.3,Win32,60.24096386,,,,,,,,,,,,,,,,,,,,,,,,,,,,,,,518.6121,519.6091,519.6092,7,520.11,521.2775,0.0028,521.3931,0.1152,0.1219,0.1116,0.1165,0.1164,0.1169,0.1166,0.116,0.117,0.1171,,521.3933,521.9768,right,0.56,,521.977,522.5927,left,0.6,,32,0,58,522.593,523.5939,,,,,,1_AB,L1_T1P_T2P,1,1,1,7,8,6,3,11,toothpick,Did you see the toothpick,0.12,0,resources/,pics/candleholder01.jpg,pics/blender.jpg,pics/siamesecat.jpg,pics/peanut01.jpg,pics/spiderweb.jpg,pics/football.jpg,pics/toothpick02.jpg,pics/stapler04b.jpg,pics/seagull.jpg,pics/pictureframe04.jpg,pics/shipinabottle.jpg,blankImage,blankImage,blankImage,blankImage,blankImage,blankImage,toothpick02,17,,,,,,,,,,,,,,,,,,,,,,,,,,,,,,,,,,,,,,,,,0,28,28,16,1,,,,,,,,,,,,,,,,,,,,,,,,,,,,,,,,,,,,,,,,,,,,,,,,,,,,,,,
,,,,,6658ee766e2632a6de409027,6669d216483b4754e2264ff7,6669dc6e4c43b763d92b78c7,31,Female,English,2024-06-12_10h38.38.207,ABmemTask3,2023.2.3,Win32,60.24096386,,,,,,,,,,,,,,,,,,,,,,,,,,,,,,,523.5951,524.5933,524.5934,7,525.0937,525.9121,0.002,526.026,0.1162,0.1166,0.1162,0.1169,0.1157,0.1173,0.1182,,,,,526.0262,527.0272,left,0.9768,,527.0274,527.427,right,0.388,,34,0,60,527.4272,528.427,,,,,,1_AB,L1_T1A_T2P,1,0,1,4,5,3,3,8,Parking meter,Did you see the Parking meter,0.12,0,resources/,pics/leaf02a.jpg,pics/carrot01.jpg,pics/sink.jpg,pics/butterfly.jpg,pics/stapler10.jpg,pics/pictureframe04.jpg,pics/spiderweb.jpg,pics/icecube01.jpg,blankImage,blankImage,blankImage,blankImage,blankImage,blankImage,blankImage,blankImage,blankImage,parkingmeter,30,,,,,,,,,,,,,,,,,,,,,,,,,,,,,,,,,,,,,,,,,0,29,29,29,1,,,,,,,,,,,,,,,,,,,,,,,,,,,,,,,,,,,,,,,,,,,,,,,,,,,,,,,
,,,,,6658ee766e2632a6de409027,6669d216483b4754e2264ff7,6669dc6e4c43b763d92b78c7,31,Female,English,2024-06-12_10h38.38.207,ABmemTask3,2023.2.3,Win32,60.24096386,,,,,,,,,,,,,,,,,,,,,,,,,,,,,,,528.4279,529.4164,529.4164,7,529.9102,531.4276,0.0022,531.5434,0.1158,0.1172,0.1156,0.117,0.1172,0.1168,0.1161,0.1161,0.1183,0.1155,0.1173,531.5437,532.4761,right,0.9025,,532.4763,532.7759,left,0.2695,,36,0,62,532.7761,533.7764,,,,,,1_AB,L5_T1P_T2A,5,1,0,4,9,3,5,14,Frisbee,Did you see the Frisbee,0.12,0,resources/,pics/giraffe.jpg,pics/christmaslights.jpg,pics/bowtie.jpg,pics/frisbee.jpg,pics/banjo.jpg,pics/calendar.jpg,pics/butterfly.jpg,pics/onion.jpg,pics/starfish01.jpg,pics/footballhelmet.jpg,pics/blender.jpg,pics/candleholder01.jpg,pics/hairdryer02a.jpg,pics/dromedary.jpg,blankImage,blankImage,blankImage,frisbee,58,0.1158,0.1169,,,,,,,,,,,,,,,,,,,,,,,,,,,,,,,,,,,,,,,0,30,30,57,1,,,,,,,,,,,,,,,,,,,,,,,,,,,,,,,,,,,,,,,,,,,,,,,,,,,,,,,
,,,,,6658ee766e2632a6de409027,6669d216483b4754e2264ff7,6669dc6e4c43b763d92b78c7,31,Female,English,2024-06-12_10h38.38.207,ABmemTask3,2023.2.3,Win32,60.24096386,,,,,,,,,,,,,,,,,,,,,,,,,,,,,,,533.7776,534.7769,534.7772,7,535.277,536.3274,0.0019,536.4437,0.1168,0.1156,0.1167,0.1176,0.116,0.1159,0.1175,0.1164,0.1165,,,536.4439,537.1592,right,0.6842,,537.1595,537.3956,left,0.2136,,36,0,64,537.3956,538.3923,,,,,,1_AB,L1_T1P_T2P,1,1,1,4,5,3,5,10,vacuum,Did you see the vacuum,0.12,0,resources/,pics/birdhouse.jpg,pics/floortile02.jpg,pics/toiletpaper01a.jpg,pics/vacuumcleaner01.jpg,pics/stapler02.jpg,pics/spoon01.jpg,pics/banjo.jpg,pics/binder03b.jpg,pics/leaf02a.jpg,pics/aquarium.jpg,blankImage,blankImage,blankImage,blankImage,blankImage,blankImage,blankImage,vacuumcleaner01,5,,,,,,,,,,,,,,,,,,,,,,,,,,,,,,,,,,,,,,,,,0,31,31,4,1,,,,,,,,,,,,,,,,,,,,,,,,,,,,,,,,,,,,,,,,,,,,,,,,,,,,,,,
,,,,,6658ee766e2632a6de409027,6669d216483b4754e2264ff7,6669dc6e4c43b763d92b78c7,31,Female,English,2024-06-12_10h38.38.207,ABmemTask3,2023.2.3,Win32,60.24096386,,,,,,,,,,,,,,,,,,,,,,,,,,,,,,,538.3938,539.3929,539.393,7,539.8934,541.4117,0.0024,541.5262,0.1163,0.1161,0.117,0.1166,0.1167,0.1163,0.1165,0.1168,0.1169,0.1219,0.1119,541.5263,542.0606,right,0.5027,,542.0608,542.2658,right,0.1841,,38,0,66,542.2659,543.2599,,,,,,1_AB,L5_T1P_T2P,5,1,1,6,11,5,3,14,mail box,Did you see the mail box,0.12,0,resources/,pics/pictureframe04.jpg,pics/seaturtle.jpg,pics/blender.jpg,pics/carrot01.jpg,pics/nutcracker01.jpg,pics/mailbox02.jpg,pics/seagull.jpg,pics/sink.jpg,pics/siamesecat.jpg,pics/spiderweb.jpg,pics/stapler08.jpg,pics/safetypin.jpg,pics/candle01.jpg,pics/mummy.jpg,blankImage,blankImage,blankImage,mailbox02,43,0.1162,0.1173,,,,,,,,,,,,,,,,,,,,,,,,,,,,,,,,,,,,,,,0,32,32,42,1,,,,,,,,,,,,,,,,,,,,,,,,,,,,,,,,,,,,,,,,,,,,,,,,,,,,,,,
,,,,,6658ee766e2632a6de409027,6669d216483b4754e2264ff7,6669dc6e4c43b763d92b78c7,31,Female,English,2024-06-12_10h38.38.207,ABmemTask3,2023.2.3,Win32,60.24096386,,,,,,,,,,,,,,,,,,,,,,,,,,,,,,,543.2616,544.2602,544.2604,7,544.7603,546.0448,0.0024,546.1595,0.1154,0.1166,0.1169,0.1168,0.1169,0.1169,0.1159,0.1165,0.1167,0.1168,0.1173,546.1597,546.6775,right,0.4886,,546.6776,546.8928,right,0.2006,,40,0,68,546.893,547.8936,,,,,,1_AB,L5_T1P_T2P,5,1,1,4,9,3,3,12,Sheep,Did you see the Sheep,0.12,0,resources/,pics/icecube01.jpg,pics/cymbal.jpg,pics/wheel01.jpg,pics/sheep.jpg,pics/starfish01.jpg,pics/safetypin.jpg,pics/siamesecat.jpg,pics/lock03a.jpg,pics/stapler01.jpg,pics/sink.jpg,pics/fanblades.jpg,pics/bowlingpin.jpg,blankImage,blankImage,blankImage,blankImage,blankImage,sheep,52,,,,,,,,,,,,,,,,,,,,,,,,,,,,,,,,,,,,,,,,,0,33,33,51,1,,,,,,,,,,,,,,,,,,,,,,,,,,,,,,,,,,,,,,,,,,,,,,,,,,,,,,,
,,,,,6658ee766e2632a6de409027,6669d216483b4754e2264ff7,6669dc6e4c43b763d92b78c7,31,Female,English,2024-06-12_10h38.38.207,ABmemTask3,2023.2.3,Win32,60.24096386,,,,,,,,,,,,,,,,,,,,,,,,,,,,,,,547.8948,548.8928,548.8929,7,549.3822,550.8946,0.002,551.0105,0.1109,0.1168,0.1161,0.1172,0.1163,0.1168,0.1167,0.1172,0.116,0.1227,0.1102,551.0106,551.4944,right,0.4594,,551.4944,551.7264,right,0.2201,,42,0,70,551.7266,552.7265,,,,,,1_AB,L5_T1P_T2P,5,1,1,4,9,3,5,14,pliers,Did you see the pliers,0.12,0,resources/,pics/calendar.jpg,pics/footballhelmet.jpg,pics/seaturtle.jpg,pics/pliers02b.jpg,pics/wheel01.jpg,pics/cannon.jpg,pics/proboscismonkey.jpg,pics/shovel01.jpg,pics/stapler06.jpg,pics/football.jpg,pics/hose.jpg,pics/dustpan.jpg,pics/spiderweb.jpg,pics/golfball.jpg,blankImage,blankImage,blankImage,pliers02b,48,0.1166,0.1176,,,,,,,,,,,,,,,,,,,,,,,,,,,,,,,,,,,,,,,0,34,34,47,1,,,,,,,,,,,,,,,,,,,,,,,,,,,,,,,,,,,,,,,,,,,,,,,,,,,,,,,
,,,,,6658ee766e2632a6de409027,6669d216483b4754e2264ff7,6669dc6e4c43b763d92b78c7,31,Female,English,2024-06-12_10h38.38.207,ABmemTask3,2023.2.3,Win32,60.24096386,,,,,,,,,,,,,,,,,,,,,,,,,,,,,,,552.728,553.7267,553.7269,7,554.2327,555.3943,0.0021,555.5103,0.1097,0.1173,0.1165,0.1166,0.117,0.1165,0.1168,0.1167,0.117,0.1161,,555.5105,556.2663,left,0.7343,,556.2665,556.551,right,0.2685,,40,0,72,556.551,557.5448,,,,,,1_AB,L1_T1A_T2A,1,0,0,7,8,6,3,11,Poker chips,Did you see the Poker chips,0.12,0,resources/,pics/candle01.jpg,pics/proboscismonkey.jpg,pics/fanblades.jpg,pics/dromedary.jpg,pics/aquarium.jpg,pics/salmon.jpg,pics/hose.jpg,pics/kangaroo.jpg,pics/noparkingsign.jpg,pics/carrot01.jpg,pics/leaf02a.jpg,blankImage,blankImage,blankImage,blankImage,blankImage,blankImage,pokerchips,41,,,,,,,,,,,,,,,,,,,,,,,,,,,,,,,,,,,,,,,,,0,35,35,40,1,,,,,,,,,,,,,,,,,,,,,,,,,,,,,,,,,,,,,,,,,,,,,,,,,,,,,,,
,,,,,6658ee766e2632a6de409027,6669d216483b4754e2264ff7,6669dc6e4c43b763d92b78c7,31,Female,English,2024-06-12_10h38.38.207,ABmemTask3,2023.2.3,Win32,60.24096386,,,,,,,,,,,,,,,,,,,,,,,,,,,,,,,557.546,558.5447,558.5448,7,559.0425,559.9777,0.0036,560.0938,0.1157,0.1168,0.1166,0.1165,0.1166,0.1175,0.1162,0.1166,,,,560.094,560.7926,right,0.6742,,560.7928,561.059,left,0.2343,,40,0,74,561.0593,562.0652,,,,,,1_AB,L1_T1P_T2P,1,1,1,4,5,3,4,9,Chefs hat,Did you see the Chefs hat,0.12,0,resources/,pics/sewingmachine01a.jpg,pics/icecube01.jpg,pics/fanblades.jpg,pics/chefshat.jpg,pics/stapler06.jpg,pics/ashtray01.jpg,pics/blender.jpg,pics/sandbarshark.jpg,pics/lock03a.jpg,blankImage,blankImage,blankImage,blankImage,blankImage,blankImage,blankImage,blankImage,chefshat,12,,,,,,,,,,,,,,,,,,,,,,,,,,,,,,,,,,,,,,,,,0,36,36,11,1,,,,,,,,,,,,,,,,,,,,,,,,,,,,,,,,,,,,,,,,,,,,,,,,,,,,,,,
,,,,,6658ee766e2632a6de409027,6669d216483b4754e2264ff7,6669dc6e4c43b763d92b78c7,31,Female,English,2024-06-12_10h38.38.207,ABmemTask3,2023.2.3,Win32,60.24096386,,,,,,,,,,,,,,,,,,,,,,,,,,,,,,,562.0658,563.0599,563.0601,7,563.5654,564.728,0.0019,564.8425,0.1104,0.1175,0.119,0.1147,0.1163,0.1162,0.1177,0.1145,0.1172,0.1171,,564.8427,565.4942,right,0.6217,,565.4945,565.9277,right,0.4189,,42,0,76,565.9278,566.9267,,,,,,1_AB,L1_T1P_T2P,1,1,1,7,8,6,3,11,pliers,Did you see the pliers,0.12,0,resources/,pics/mummy.jpg,pics/binder03b.jpg,pics/bowtie.jpg,pics/toiletpaper01a.jpg,pics/football.jpg,pics/blender.jpg,pics/needlenosepliers01.jpg,pics/stapler13.jpg,pics/zebra.jpg,pics/hammerheadshark.jpg,pics/sealion.jpg,blankImage,blankImage,blankImage,blankImage,blankImage,blankImage,needlenosepliers01,6,,,,,,,,,,,,,,,,,,,,,,,,,,,,,,,,,,,,,,,,,0,37,37,5,1,,,,,,,,,,,,,,,,,,,,,,,,,,,,,,,,,,,,,,,,,,,,,,,,,,,,,,,
,,,,,6658ee766e2632a6de409027,6669d216483b4754e2264ff7,6669dc6e4c43b763d92b78c7,31,Female,English,2024-06-12_10h38.38.207,ABmemTask3,2023.2.3,Win32,60.24096386,,,,,,,,,,,,,,,,,,,,,,,,,,,,,,,566.9287,567.9269,567.927,7,568.4269,570.0607,0.0021,570.1778,0.116,0.1169,0.1173,0.1157,0.1163,0.1179,0.1162,0.1165,0.117,0.1168,0.1167,570.1779,571.0458,left,0.8461,,571.046,571.5446,left,0.4702,,42,0,78,571.5447,572.5432,,,,,,1_AB,L5_T1A_T2P,5,0,1,7,12,6,3,15,scissors,Did you see the scissors,0.12,0,resources/,pics/cannon.jpg,pics/mummy.jpg,pics/shovel01.jpg,pics/christmaslights.jpg,pics/snowshoe.jpg,pics/candle01.jpg,pics/bowtie.jpg,pics/giraffe.jpg,pics/carrot01.jpg,pics/spoon01.jpg,pics/seaturtle.jpg,pics/stapler10.jpg,pics/footballhelmet.jpg,pics/onion.jpg,pics/wheel01.jpg,blankImage,blankImage,scissors01,57,0.1167,0.1215,0.1109,,,,,,,,,,,,,,,,,,,,,,,,,,,,,,,,,,,,,,0,38,38,56,1,,,,,,,,,,,,,,,,,,,,,,,,,,,,,,,,,,,,,,,,,,,,,,,,,,,,,,,
,,,,,6658ee766e2632a6de409027,6669d216483b4754e2264ff7,6669dc6e4c43b763d92b78c7,31,Female,English,2024-06-12_10h38.38.207,ABmemTask3,2023.2.3,Win32,60.24096386,,,,,,,,,,,,,,,,,,,,,,,,,,,,,,,572.5444,573.5437,573.5439,7,574.0435,575.211,0.0032,575.3274,0.115,0.1177,0.116,0.1165,0.1169,0.1163,0.1168,0.1165,0.1174,0.1159,,575.3276,575.8943,right,0.5428,,575.8945,576.1277,right,0.2236,,44,0,80,576.1279,577.1271,,,,,,1_AB,L1_T1P_T2P,1,1,1,7,8,6,3,11,bird,Did you see the bird,0.12,0,resources/,pics/sealion.jpg,pics/backpack01a.jpg,pics/hose.jpg,pics/table01.jpg,pics/wheel01.jpg,pics/seaturtle.jpg,pics/americangoldfinch.jpg,pics/stapler08.jpg,pics/siamesecat.jpg,pics/hammerheadshark.jpg,pics/ashtray01.jpg,blankImage,blankImage,blankImage,blankImage,blankImage,blankImage,americangoldfinch,23,,,,,,,,,,,,,,,,,,,,,,,,,,,,,,,,,,,,,,,,,0,39,39,22,1,,,,,,,,,,,,,,,,,,,,,,,,,,,,,,,,,,,,,,,,,,,,,,,,,,,,,,,
,,,,,6658ee766e2632a6de409027,6669d216483b4754e2264ff7,6669dc6e4c43b763d92b78c7,31,Female,English,2024-06-12_10h38.38.207,ABmemTask3,2023.2.3,Win32,60.24096386,,,,,,,,,,,,,,,,,,,,,,,,,,,,,,,577.1282,578.1273,578.1275,7,578.6275,580.0273,0.0022,580.1434,0.1164,0.1159,0.1172,0.1162,0.1177,0.1152,0.1167,0.1163,0.1167,0.1195,0.1137,580.1436,581.6277,left,1.4575,,581.6279,581.9448,right,0.2993,,46,0,82,581.9451,582.9494,,,,,,1_AB,L1_T1A_T2P,1,0,1,7,8,6,5,13,statue,Did you see the statue,0.12,0,resources/,pics/giraffe.jpg,pics/seaturtle.jpg,pics/peach01.jpg,pics/boot02b.jpg,pics/backpack01a.jpg,pics/sandbarshark.jpg,pics/microscope.jpg,pics/stapler07.jpg,pics/snowshoe.jpg,pics/laptop01a.jpg,pics/necklace.jpg,pics/zebra.jpg,pics/carrot01.jpg,blankImage,blankImage,blankImage,blankImage,statue,27,0.1168,,,,,,,,,,,,,,,,,,,,,,,,,,,,,,,,,,,,,,,,0,40,40,26,1,,,,,,,,,,,,,,,,,,,,,,,,,,,,,,,,,,,,,,,,,,,,,,,,,,,,,,,
,,,,,6658ee766e2632a6de409027,6669d216483b4754e2264ff7,6669dc6e4c43b763d92b78c7,31,Female,English,2024-06-12_10h38.38.207,ABmemTask3,2023.2.3,Win32,60.24096386,,,,,,,,,,,,,,,,,,,,,,,,,,,,,,,582.9503,583.944,583.9442,7,584.4441,585.7279,0.0028,585.8441,0.115,0.1168,0.1168,0.1174,0.1159,0.1165,0.1164,0.1172,0.117,0.1165,0.1161,585.8442,586.412,right,0.5453,,586.4121,586.6104,right,0.1708,,48,0,84,586.6107,587.6109,,,,,,1_AB,L1_T1P_T2P,1,1,1,6,7,5,5,12,jeep,Did you see the jeep,0.12,0,resources/,pics/sandbarshark.jpg,pics/laptop01a.jpg,pics/peach01.jpg,pics/binoculars01b.jpg,pics/giraffe.jpg,pics/jeep.jpg,pics/stapler03b.jpg,pics/fanblades.jpg,pics/cannon.jpg,pics/starfish01.jpg,pics/piggybank.jpg,pics/noparkingsign.jpg,blankImage,blankImage,blankImage,blankImage,blankImage,jeep,2,,,,,,,,,,,,,,,,,,,,,,,,,,,,,,,,,,,,,,,,,0,41,41,1,1,,,,,,,,,,,,,,,,,,,,,,,,,,,,,,,,,,,,,,,,,,,,,,,,,,,,,,,
,,,,,6658ee766e2632a6de409027,6669d216483b4754e2264ff7,6669dc6e4c43b763d92b78c7,31,Female,English,2024-06-12_10h38.38.207,ABmemTask3,2023.2.3,Win32,60.24096386,,,,,,,,,,,,,,,,,,,,,,,,,,,,,,,587.612,588.6112,588.6114,7,589.1107,590.6285,0.0023,590.7438,0.1158,0.1165,0.1172,0.1168,0.1206,0.1123,0.1164,0.1175,0.1165,0.116,0.1168,590.7443,591.3108,right,0.5386,,591.311,591.494,right,0.1589,,50,0,86,591.4943,592.4935,,,,,,1_AB,L5_T1P_T2P,5,1,1,6,11,5,3,14,truck,Did you see the truck,0.12,0,resources/,pics/calendar.jpg,pics/mummy.jpg,pics/ashtray01.jpg,pics/pencilsharpener02a.jpg,pics/dustpan.jpg,pics/boxtruck.jpg,pics/lightswitch01.jpg,pics/pictureframe04.jpg,pics/starfish01.jpg,pics/zebra.jpg,pics/stapler12.jpg,pics/bowtie.jpg,pics/candleholder01.jpg,pics/candle01.jpg,blankImage,blankImage,blankImage,boxtruck,50,0.1166,0.1167,,,,,,,,,,,,,,,,,,,,,,,,,,,,,,,,,,,,,,,0,42,42,49,1,,,,,,,,,,,,,,,,,,,,,,,,,,,,,,,,,,,,,,,,,,,,,,,,,,,,,,,
,,,,,6658ee766e2632a6de409027,6669d216483b4754e2264ff7,6669dc6e4c43b763d92b78c7,31,Female,English,2024-06-12_10h38.38.207,ABmemTask3,2023.2.3,Win32,60.24096386,,,,,,,,,,,,,,,,,,,,,,,,,,,,,,,592.4954,593.4941,593.4943,7,593.9939,595.3953,0.0022,595.5104,0.1164,0.116,0.117,0.1164,0.117,0.1168,0.1157,0.1178,0.117,0.1161,0.117,595.5105,596.3276,left,0.7872,,596.3279,596.8945,left,0.5518,,52,0,88,596.8947,597.8942,,,,,,1_AB,L1_T1A_T2A,1,0,0,7,8,6,5,13,fan,Did you see the fan,0.12,0,resources/,pics/leaf02a.jpg,pics/dustpan.jpg,pics/pencil01.jpg,pics/kangaroo.jpg,pics/golfball.jpg,pics/lightswitch01.jpg,pics/nutcracker01.jpg,pics/calendar.jpg,pics/hose.jpg,pics/starfish01.jpg,pics/siamesecat.jpg,pics/bowlingpin.jpg,pics/necklace.jpg,blankImage,blankImage,blankImage,blankImage,fan,42,0.1166,,,,,,,,,,,,,,,,,,,,,,,,,,,,,,,,,,,,,,,,0,43,43,41,1,,,,,,,,,,,,,,,,,,,,,,,,,,,,,,,,,,,,,,,,,,,,,,,,,,,,,,,
,,,,,6658ee766e2632a6de409027,6669d216483b4754e2264ff7,6669dc6e4c43b763d92b78c7,31,Female,English,2024-06-12_10h38.38.207,ABmemTask3,2023.2.3,Win32,60.24096386,,,,,,,,,,,,,,,,,,,,,,,,,,,,,,,597.8954,598.8943,598.8944,7,599.3938,600.679,0.0024,600.7945,0.116,0.1162,0.1179,0.1158,0.1171,0.1164,0.1182,0.1149,0.1166,0.1167,0.1171,600.7946,601.8782,left,1.0543,,601.8783,602.1673,right,0.268,,54,0,90,602.1674,603.1607,,,,,,1_AB,L5_T1A_T2P,5,0,1,4,9,3,3,12,rooster,Did you see the rooster,0.12,0,resources/,pics/table01.jpg,pics/icecube01.jpg,pics/dustpan.jpg,pics/lock03a.jpg,pics/sailboat.jpg,pics/salmon.jpg,pics/banjo.jpg,pics/zebra.jpg,pics/stapler09.jpg,pics/peach01.jpg,pics/chainsaw.jpg,pics/football.jpg,blankImage,blankImage,blankImage,blankImage,blankImage,rooster,55,,,,,,,,,,,,,,,,,,,,,,,,,,,,,,,,,,,,,,,,,0,44,44,54,1,,,,,,,,,,,,,,,,,,,,,,,,,,,,,,,,,,,,,,,,,,,,,,,,,,,,,,,
,,,,,6658ee766e2632a6de409027,6669d216483b4754e2264ff7,6669dc6e4c43b763d92b78c7,31,Female,English,2024-06-12_10h38.38.207,ABmemTask3,2023.2.3,Win32,60.24096386,,,,,,,,,,,,,,,,,,,,,,,,,,,,,,,603.1885,604.1776,604.1778,7,604.677,605.6171,0.0034,605.7272,0.1154,0.1214,0.1116,0.1172,0.1168,0.1166,0.1163,0.122,,,,605.7274,606.9437,left,1.1848,,606.944,607.4667,left,0.5003,,56,0,92,607.4668,608.4609,,,,,,1_AB,L1_T1A_T2A,1,0,0,4,5,3,4,9,License Plate,Did you see the License Plate,0.12,0,resources/,pics/snowshoe.jpg,pics/kangaroo.jpg,pics/noparkingsign.jpg,pics/match.jpg,pics/hose.jpg,pics/blender.jpg,pics/ashtray01.jpg,pics/ball02.jpg,pics/sink.jpg,blankImage,blankImage,blankImage,blankImage,blankImage,blankImage,blankImage,blankImage,licenseplate,40,,,,,,,,,,,,,,,,,,,,,,,,,,,,,,,,,,,,,,,,,0,45,45,39,1,,,,,,,,,,,,,,,,,,,,,,,,,,,,,,,,,,,,,,,,,,,,,,,,,,,,,,,
,,,,,6658ee766e2632a6de409027,6669d216483b4754e2264ff7,6669dc6e4c43b763d92b78c7,31,Female,English,2024-06-12_10h38.38.207,ABmemTask3,2023.2.3,Win32,60.24096386,,,,,,,,,,,,,,,,,,,,,,,,,,,,,,,608.4625,609.4613,609.4615,7,609.9612,611.1285,0.0023,611.2445,0.1217,0.1119,0.1151,0.117,0.1164,0.1165,0.1173,0.1163,0.1171,0.1161,,611.2448,611.895,right,0.6208,,611.8954,612.1277,right,0.2227,,58,0,94,612.128,613.1158,,,,,,1_AB,L1_T1P_T2P,1,1,1,7,8,6,3,11,Eiffel tower,Did you see the Eiffel tower,0.12,0,resources/,pics/seagull.jpg,pics/cymbal.jpg,pics/match.jpg,pics/binoculars01b.jpg,pics/ball02.jpg,pics/onion.jpg,pics/eiffeltower.jpg,pics/stapler11.jpg,pics/peach01.jpg,pics/sandbarshark.jpg,pics/boot02b.jpg,blankImage,blankImage,blankImage,blankImage,blankImage,blankImage,eiffeltower,1,,,,,,,,,,,,,,,,,,,,,,,,,,,,,,,,,,,,,,,,,0,46,46,0,1,,,,,,,,,,,,,,,,,,,,,,,,,,,,,,,,,,,,,,,,,,,,,,,,,,,,,,,
,,,,,6658ee766e2632a6de409027,6669d216483b4754e2264ff7,6669dc6e4c43b763d92b78c7,31,Female,English,2024-06-12_10h38.38.207,ABmemTask3,2023.2.3,Win32,60.24096386,,,,,,,,,,,,,,,,,,,,,,,,,,,,,,,613.1167,614.1115,614.1117,7,614.611,616.2455,0.0022,616.3638,0.116,0.1165,0.1167,0.1165,0.1174,0.1162,0.1167,0.1181,0.1151,0.1172,0.121,616.364,616.9447,right,0.5552,,616.9449,617.1281,right,0.1582,,60,0,96,617.1282,618.128,,,,,,1_AB,L5_T1P_T2P,5,1,1,6,11,5,4,15,toast,Did you see the toast,0.12,0,resources/,pics/piggybank.jpg,pics/leaf02a.jpg,pics/carrot01.jpg,pics/birdhouse.jpg,pics/bowlingpin.jpg,pics/toast.jpg,pics/spiderweb.jpg,pics/cork02.jpg,pics/sink.jpg,pics/nutcracker01.jpg,pics/stapler02.jpg,pics/ashtray01.jpg,pics/fanblades.jpg,pics/pencil01.jpg,pics/lightswitch01.jpg,blankImage,blankImage,toast,46,0.1122,0.117,0.1163,,,,,,,,,,,,,,,,,,,,,,,,,,,,,,,,,,,,,,0,47,47,45,1,,,,,,,,,,,,,,,,,,,,,,,,,,,,,,,,,,,,,,,,,,,,,,,,,,,,,,,
,,,,,6658ee766e2632a6de409027,6669d216483b4754e2264ff7,6669dc6e4c43b763d92b78c7,31,Female,English,2024-06-12_10h38.38.207,ABmemTask3,2023.2.3,Win32,60.24096386,,,,,,,,,,,,,,,,,,,,,,,,,,,,,,,618.129,619.1166,619.1167,7,619.6113,621.0106,0.0021,621.1267,0.1159,0.1168,0.1162,0.1171,0.1163,0.1168,0.1167,0.1166,0.1167,0.1172,0.1152,621.1268,621.6601,right,0.5071,,621.6603,621.8264,right,0.1379,,62,0,98,621.8265,622.8268,,,,,,1_AB,L5_T1P_T2P,5,1,1,4,9,3,4,13,Forklift,Did you see the Forklift,0.12,0,resources/,pics/dustpan.jpg,pics/table01.jpg,pics/sink.jpg,pics/forklift.jpg,pics/dromedary.jpg,pics/proboscismonkey.jpg,pics/cymbal.jpg,pics/shovel01.jpg,pics/stapler10.jpg,pics/backpack01a.jpg,pics/binder03b.jpg,pics/banjo.jpg,pics/candleholder01.jpg,blankImage,blankImage,blankImage,blankImage,forklift,47,0.1168,,,,,,,,,,,,,,,,,,,,,,,,,,,,,,,,,,,,,,,,0,48,48,46,1,,,,,,,,,,,,,,,,,,,,,,,,,,,,,,,,,,,,,,,,,,,,,,,,,,,,,,,
,,,,,6658ee766e2632a6de409027,6669d216483b4754e2264ff7,6669dc6e4c43b763d92b78c7,31,Female,English,2024-06-12_10h38.38.207,ABmemTask3,2023.2.3,Win32,60.24096386,,,,,,,,,,,,,,,,,,,,,,,,,,,,,,,622.8283,623.8275,623.8277,7,624.3279,625.264,0.0025,625.378,0.1154,0.117,0.1149,0.1179,0.1175,0.1161,0.1169,0.1183,,,,625.3782,626.2288,left,0.8213,,626.229,626.6287,right,0.3709,,64,0,100,626.6289,627.628,,,,,,1_AB,L1_T1A_T2P,1,0,1,5,6,4,3,9,Trailer,Did you see the Trailer,0.12,0,resources/,pics/pencil01.jpg,pics/football.jpg,pics/hairdryer02a.jpg,pics/wheel01.jpg,pics/chainsaw.jpg,pics/stapler10.jpg,pics/peanut01.jpg,pics/triangle.jpg,pics/sink.jpg,blankImage,blankImage,blankImage,blankImage,blankImage,blankImage,blankImage,blankImage,boxtrailer,29,,,,,,,,,,,,,,,,,,,,,,,,,,,,,,,,,,,,,,,,,0,49,49,28,1,,,,,,,,,,,,,,,,,,,,,,,,,,,,,,,,,,,,,,,,,,,,,,,,,,,,,,,
,,,,,6658ee766e2632a6de409027,6669d216483b4754e2264ff7,6669dc6e4c43b763d92b78c7,31,Female,English,2024-06-12_10h38.38.207,ABmemTask3,2023.2.3,Win32,60.24096386,,,,,,,,,,,,,,,,,,,,,,,,,,,,,,,627.6291,628.6278,628.628,7,629.1281,630.062,0.0028,630.1775,0.1148,0.1167,0.1174,0.1159,0.1168,0.117,0.1164,0.1167,,,,630.1777,630.728,right,0.5212,,630.7282,630.9116,right,0.1578,,66,0,102,630.9119,631.9111,,,,,,1_AB,L1_T1P_T2P,1,1,1,5,6,4,3,9,Ant,Did you see the Ant,0.12,0,resources/,pics/kangaroo.jpg,pics/giraffe.jpg,pics/footballhelmet.jpg,pics/onion.jpg,pics/ant.jpg,pics/stapler04b.jpg,pics/banjo.jpg,pics/zebra.jpg,pics/dromedary.jpg,blankImage,blankImage,blankImage,blankImage,blankImage,blankImage,blankImage,blankImage,ant,15,,,,,,,,,,,,,,,,,,,,,,,,,,,,,,,,,,,,,,,,,0,50,50,14,1,,,,,,,,,,,,,,,,,,,,,,,,,,,,,,,,,,,,,,,,,,,,,,,,,,,,,,,
,,,,,6658ee766e2632a6de409027,6669d216483b4754e2264ff7,6669dc6e4c43b763d92b78c7,31,Female,English,2024-06-12_10h38.38.207,ABmemTask3,2023.2.3,Win32,60.24096386,,,,,,,,,,,,,,,,,,,,,,,,,,,,,,,631.9123,632.9112,632.9114,7,633.4112,634.5792,0.0027,634.6945,0.1152,0.1175,0.1167,0.1161,0.1173,0.1214,0.1113,0.1167,0.1168,0.117,,634.6948,635.4284,right,0.7062,,635.4286,636.5021,left,1.0659,,68,0,104,636.5023,637.4951,,,,,,1_AB,L1_T1P_T2A,1,1,0,7,8,6,3,11,eggplant,Did you see the eggplant,0.12,0,resources/,pics/salmon.jpg,pics/fanblades.jpg,pics/hammerheadshark.jpg,pics/wheel01.jpg,pics/snowshoe.jpg,pics/birdhouse.jpg,pics/eggplant.jpg,pics/spiderweb.jpg,pics/zebra.jpg,pics/pencilsharpener02a.jpg,pics/backpack01a.jpg,blankImage,blankImage,blankImage,blankImage,blankImage,blankImage,eggplant,32,,,,,,,,,,,,,,,,,,,,,,,,,,,,,,,,,,,,,,,,,0,51,51,31,1,,,,,,,,,,,,,,,,,,,,,,,,,,,,,,,,,,,,,,,,,,,,,,,,,,,,,,,
,,,,,6658ee766e2632a6de409027,6669d216483b4754e2264ff7,6669dc6e4c43b763d92b78c7,31,Female,English,2024-06-12_10h38.38.207,ABmemTask3,2023.2.3,Win32,60.24096386,,,,,,,,,,,,,,,,,,,,,,,,,,,,,,,637.5237,638.5116,638.5117,7,639.011,640.762,0.0025,640.8775,0.1164,0.1164,0.1166,0.1165,0.1166,0.1167,0.1166,0.1168,0.1166,0.1175,0.1166,640.8777,641.4106,right,0.502,,641.4107,641.5778,right,0.1526,,66,0,106,641.5779,642.577,,,,,,1_AB,L5_T1P_T2A,5,1,0,7,12,6,4,16,boat,Did you see the boat,0.12,0,resources/,pics/butterfly.jpg,pics/onion.jpg,pics/hose.jpg,pics/ball02.jpg,pics/ashtray01.jpg,pics/bowtie.jpg,pics/boat.jpg,pics/seaturtle.jpg,pics/blender.jpg,pics/zebra.jpg,pics/pictureframe04.jpg,pics/shovel01.jpg,pics/spoon01.jpg,pics/peanut01.jpg,pics/nutcracker01.jpg,pics/aquarium.jpg,blankImage,boat,60,0.1166,0.1218,0.1171,,,,,,,,,,,,,,,,,,,,,,,,,,,,,,,,,,,,,,0,52,52,59,1,0.1106,,,,,,,,,,,,,,,,,,,,,,,,,,,,,,,,,,,,,,,,,,,,,,,,,,,,,,
,,,,,6658ee766e2632a6de409027,6669d216483b4754e2264ff7,6669dc6e4c43b763d92b78c7,31,Female,English,2024-06-12_10h38.38.207,ABmemTask3,2023.2.3,Win32,60.24096386,,,,,,,,,,,,,,,,,,,,,,,,,,,,,,,642.5785,643.5842,643.5843,7,644.0768,645.4787,0.0029,645.5945,0.1158,0.117,0.121,0.1177,0.1165,0.1111,0.1166,0.1167,0.1167,0.1167,0.1162,645.5947,646.095,right,0.471,,646.0952,646.2959,right,0.1858,,68,0,108,646.2961,647.2942,,,,,,1_AB,L1_T1P_T2P,1,1,1,7,8,6,5,13,strawberry,Did you see the strawberry,0.12,0,resources/,pics/sealion.jpg,pics/backpack01a.jpg,pics/binoculars01b.jpg,pics/ball02.jpg,pics/proboscismonkey.jpg,pics/pictureframe04.jpg,pics/strawberry.jpg,pics/stapler12.jpg,pics/seaturtle.jpg,pics/dustpan.jpg,pics/bowlingpin.jpg,pics/hammerheadshark.jpg,pics/hen.jpg,blankImage,blankImage,blankImage,blankImage,strawberry,10,0.1174,,,,,,,,,,,,,,,,,,,,,,,,,,,,,,,,,,,,,,,,0,53,53,9,1,,,,,,,,,,,,,,,,,,,,,,,,,,,,,,,,,,,,,,,,,,,,,,,,,,,,,,,
,,,,,6658ee766e2632a6de409027,6669d216483b4754e2264ff7,6669dc6e4c43b763d92b78c7,31,Female,English,2024-06-12_10h38.38.207,ABmemTask3,2023.2.3,Win32,60.24096386,,,,,,,,,,,,,,,,,,,,,,,,,,,,,,,647.2959,648.2957,648.2958,7,648.7952,649.8456,0.0022,649.9615,0.1164,0.1155,0.1169,0.1171,0.116,0.1165,0.1171,0.1167,0.1165,,,649.9618,650.962,right,0.9705,,650.9621,651.5785,left,0.5898,,68,0,110,651.5788,652.5773,,,,,,1_AB,L1_T1P_T2P,1,1,1,4,5,3,5,10,flute,Did you see the flute,0.12,0,resources/,pics/peach01.jpg,pics/seaturtle.jpg,pics/dromedary.jpg,pics/recorder01.jpg,pics/stapler08.jpg,pics/giraffe.jpg,pics/blender.jpg,pics/necklace.jpg,pics/sink.jpg,pics/dustpan.jpg,blankImage,blankImage,blankImage,blankImage,blankImage,blankImage,blankImage,recorder01,7,,,,,,,,,,,,,,,,,,,,,,,,,,,,,,,,,,,,,,,,,0,54,54,6,1,,,,,,,,,,,,,,,,,,,,,,,,,,,,,,,,,,,,,,,,,,,,,,,,,,,,,,,
,,,,,6658ee766e2632a6de409027,6669d216483b4754e2264ff7,6669dc6e4c43b763d92b78c7,31,Female,English,2024-06-12_10h38.38.207,ABmemTask3,2023.2.3,Win32,60.24096386,,,,,,,,,,,,,,,,,,,,,,,,,,,,,,,652.579,653.5782,653.5782,7,654.0835,655.8296,0.0017,655.9449,0.1107,0.1174,0.1159,0.1175,0.1162,0.119,0.1193,0.1113,0.1171,0.1166,0.1167,655.9451,656.4953,right,0.5192,,656.4955,656.6783,right,0.1674,,70,0,112,656.6785,657.6783,,,,,,1_AB,L5_T1P_T2P,5,1,1,6,11,5,5,16,cruise ship,Did you see the cruise ship,0.12,0,resources/,pics/seaturtle.jpg,pics/ashtray01.jpg,pics/pencil01.jpg,pics/fanblades.jpg,pics/triangle.jpg,pics/cruiseship.jpg,pics/wheel01.jpg,pics/dustpan.jpg,pics/starfish01.jpg,pics/banjo.jpg,pics/stapler12.jpg,pics/match.jpg,pics/cannon.jpg,pics/sandbarshark.jpg,pics/sink.jpg,pics/zebra.jpg,blankImage,cruiseship,51,0.1162,0.1169,0.117,,,,,,,,,,,,,,,,,,,,,,,,,,,,,,,,,,,,,,0,55,55,50,1,0.117,,,,,,,,,,,,,,,,,,,,,,,,,,,,,,,,,,,,,,,,,,,,,,,,,,,,,,
,,,,,6658ee766e2632a6de409027,6669d216483b4754e2264ff7,6669dc6e4c43b763d92b78c7,31,Female,English,2024-06-12_10h38.38.207,ABmemTask3,2023.2.3,Win32,60.24096386,,,,,,,,,,,,,,,,,,,,,,,,,,,,,,,657.6794,658.6673,658.6673,7,659.1617,660.5616,0.0028,660.6767,0.1152,0.1164,0.1212,0.112,0.1164,0.1164,0.1217,0.1125,0.1217,0.1113,0.1163,660.6769,661.4787,left,0.7704,,661.4789,662.5274,left,1.0376,,70,0,114,662.5276,663.5281,,,,,,1_AB,L1_T1A_T2P,1,0,1,7,8,6,5,13,Basketball,Did you see the Basketball,0.12,0,resources/,pics/cork02.jpg,pics/table01.jpg,pics/christmaslights.jpg,pics/nutcracker01.jpg,pics/golfball.jpg,pics/hammerheadshark.jpg,pics/seaturtle.jpg,pics/stapler04b.jpg,pics/lock03a.jpg,pics/snowshoe.jpg,pics/sewingmachine01a.jpg,pics/peach01.jpg,pics/hose.jpg,blankImage,blankImage,blankImage,blankImage,basketball01,24,0.1164,,,,,,,,,,,,,,,,,,,,,,,,,,,,,,,,,,,,,,,,0,56,56,23,1,,,,,,,,,,,,,,,,,,,,,,,,,,,,,,,,,,,,,,,,,,,,,,,,,,,,,,,
,,,,,6658ee766e2632a6de409027,6669d216483b4754e2264ff7,6669dc6e4c43b763d92b78c7,31,Female,English,2024-06-12_10h38.38.207,ABmemTask3,2023.2.3,Win32,60.24096386,,,,,,,,,,,,,,,,,,,,,,,,,,,,,,,663.5528,664.5445,664.5445,7,665.0443,666.6783,0.0015,666.7939,0.1156,0.1174,0.1161,0.1173,0.1161,0.1171,0.1163,0.1167,0.117,0.1165,0.1162,666.794,667.5442,right,0.7299,,667.5443,667.7623,right,0.2024,,72,0,116,667.7625,668.7614,,,,,,1_AB,L5_T1P_T2P,5,1,1,5,10,4,5,15,ribbon,Did you see the ribbon,0.12,0,resources/,pics/giraffe.jpg,pics/boot02b.jpg,pics/cymbal.jpg,pics/leaf02a.jpg,pics/ribbon04.jpg,pics/lightswitch01.jpg,pics/necklace.jpg,pics/calendar.jpg,pics/kangaroo.jpg,pics/stapler12.jpg,pics/hose.jpg,pics/carrot01.jpg,pics/match.jpg,pics/sink.jpg,pics/candleholder01.jpg,blankImage,blankImage,ribbon04,53,0.1171,0.1163,0.1172,,,,,,,,,,,,,,,,,,,,,,,,,,,,,,,,,,,,,,0,57,57,52,1,,,,,,,,,,,,,,,,,,,,,,,,,,,,,,,,,,,,,,,,,,,,,,,,,,,,,,,
,,,,,6658ee766e2632a6de409027,6669d216483b4754e2264ff7,6669dc6e4c43b763d92b78c7,31,Female,English,2024-06-12_10h38.38.207,ABmemTask3,2023.2.3,Win32,60.24096386,,,,,,,,,,,,,,,,,,,,,,,,,,,,,,,668.7629,669.7615,669.7617,7,670.2503,671.5294,0.0023,671.6447,0.1103,0.117,0.1165,0.1166,0.1171,0.1161,0.1168,0.1166,0.1167,0.1154,0.1178,671.6449,672.3287,right,0.6562,,672.329,672.8444,left,0.486,,74,0,118,672.8446,673.8456,,,,,,1_AB,L1_T1P_T2A,1,1,0,7,8,6,4,12,Tennis racket,Did you see the Tennis racket,0.12,0,resources/,pics/banjo.jpg,pics/leaf02a.jpg,pics/shovel01.jpg,pics/microscope.jpg,pics/cork02.jpg,pics/seagull.jpg,pics/tennisracket.jpg,pics/binder03b.jpg,pics/floortile02.jpg,pics/carrot01.jpg,pics/candle01.jpg,pics/siamesecat.jpg,blankImage,blankImage,blankImage,blankImage,blankImage,tennisracket,38,,,,,,,,,,,,,,,,,,,,,,,,,,,,,,,,,,,,,,,,,0,58,58,37,1,,,,,,,,,,,,,,,,,,,,,,,,,,,,,,,,,,,,,,,,,,,,,,,,,,,,,,,
