trialType,cndTyp,lag,T1_loc,T2_loc,stimLen,isi,skipProb,phase,trials.thisRepN,trials.thisTrialN,trials.thisN,trials.thisIndex,trials2.thisRepN,trials2.thisTrialN,trials2.thisN,trials2.thisIndex,key_resp_4.keys,key_resp_4.rt,key_resp_4.started,key_resp_4.stopped,textbox.started,textbox.stopped,img0,img1,img2,img3,img4,img5,img6,img7,img8,img9,img10,img11,img12,img13,img14,img15,img16,option1.started,option1.stopped,text_2.started,text_2.stopped,skip1,skip2,lastPresent,displayPicture.started,displayPicture.stopped,polygon_2.started,polygon_2.stopped,opt1_t1,polygon_4.started,polygon_4.stopped,cor1,option1_t1.started,option1_t1.stopped,key_resp.keys,key_resp.rt,key_resp.started,key_resp.stopped,polygon_5.started,polygon_5.stopped,cor2,key_resp_2.keys,key_resp_2.rt,key_resp_2.started,key_resp_2.stopped,textbox_2.started,textbox_2.stopped,textbox_3.started,textbox_3.stopped,key_resp_3.keys,key_resp_3.started,key_resp_3.stopped,textbox_6.started,textbox_6.stopped,key_resp_7.keys,key_resp_7.rt,key_resp_7.started,key_resp_7.stopped,textbox_4.started,textbox_4.stopped,option1_3.started,option1_3.stopped,text_7.started,text_7.stopped,curStimTim,displayPicture_4.started,displayPicture_4.stopped,polygon_16.started,polygon_16.stopped,polygon_7.started,polygon_7.stopped,option1_t1_2.started,option1_t1_2.stopped,key_resp_6.keys,key_resp_6.rt,key_resp_6.started,key_resp_6.stopped,polygon_17.started,polygon_17.stopped,key_resp_8.keys,key_resp_8.rt,key_resp_8.started,key_resp_8.stopped,textbox_5.started,textbox_5.stopped,B0,B1,key_resp_3.rt,participant,session,date,expName,psychopyVersion,frameRate,
,,,,,,,,,,,,,,,,,space,28.66096800000014,12.047782800000277,None,,,,,,,,,,,,,,,,,,,,,,,,,,,,,,,,,,,,,,,,,,,,,,,,,,,,,,,,,,,,,,,,,,,,,,,,,,,,,,,,,,,,,,,,,,,1,001,2021_Apr_07_1316,AB_pic_singleT2,2021.1.2,59.9897657460564,
AB,lag1,1,4,5,0.2,0.05,0.5,,0,0,0,12,,,,,,,,,12.047782800000277,None,floorlamp.jpg,witchhat.jpg,rollerblade.jpg,pig.jpg,dandelion.jpg,donut.jpg,triangle.jpg,giraffe.jpg,trophy01.jpg,microwave.jpg,africanelephant.jpg,cocktailshrimp02.jpg,smokingpipe.jpg,granolabar01.jpg,cruiseship.jpg,bridge.jpg,well.jpg,40.75477210000008,43.50410430000011,43.237454999999954,None,0,1,7,43.75410550000015,None,43.75410550000015,None,.\resources\dandelion.jpg,45.75394809999989,None,1,45.75394809999989,None,right,2.042822299999898,45.75394809999989,None,47.83757460000015,None,1,left,0.5832608999999138,47.83757460000015,None,47.83757460000015,None,48.47085870000001,None,None,49.470786380000256,None,49.470786380000256,None,,,,,,,,,,,,,,,,,,,,,,,,,,,,,,,,,,,1,001,2021_Apr_07_1316,AB_pic_singleT2,2021.1.2,59.9897657460564,
AB,lag5,5,4,9,0.2,0.05,0.5,,0,1,1,11,,,,,,,,,,,mattress.jpg,tent.jpg,birthdaycandle.jpg,nosmokingsign.jpg,squid.jpg,escalator.jpg,bumpercar.jpg,dandelion.jpg,hand01b.jpg,bluejay.jpg,anchor.jpg,cashregister01.jpg,bullet.jpg,fortunecookie.jpg,masquerademask01.jpg,snowman.jpg,jellybean.jpg,49.487450999999965,52.236806100000194,51.95349450000003,None,1,0,11,52.47034100000019,None,52.47034100000019,None,.\resources\hand01b.jpg,55.46988620000002,None,1,55.46988620000002,None,left,1.2308735000001434,55.46988620000002,None,56.73688320000019,None,1,right,0.8039448999998058,56.73688320000019,None,56.73688320000019,None,57.586818799999946,None,None,58.58679728000002,None,58.58679728000002,None,,,,,,,,,,,,,,,,,,,,,,,,,,,,,,,,,,,1,001,2021_Apr_07_1316,AB_pic_singleT2,2021.1.2,59.9897657460564,
AB,lag6,6,5,11,0.2,0.05,0.5,,0,2,2,8,,,,,,,,,,,snowshoe.jpg,pig.jpg,frenchfries.jpg,africanelephant.jpg,tortoise01.jpg,hand01b.jpg,table01.jpg,soccerball.jpg,totempole.jpg,microwave.jpg,sandcastle.jpg,foot.jpg,honeybee.jpg,showerhead01.jpg,dromedary.jpg,shovel01.jpg,tree.jpg,58.60346299999992,61.35283370000025,61.069537599999876,None,0,1,13,61.58615289999989,None,61.58615289999989,None,.\resources\sandcastle.jpg,65.08588880000025,None,1,65.08588880000025,None,right,1.0868881999999758,65.08588880000025,None,66.2191444,None,1,left,0.38563509999994494,66.2191444,None,66.2191444,None,66.65244699999994,None,None,67.65281317999992,None,67.65281317999992,None,,,,,,,,,,,,,,,,,,,,,,,,,,,,,,,,,,,1,001,2021_Apr_07_1316,AB_pic_singleT2,2021.1.2,59.9897657460564,
AB,lag7,7,5,12,0.2,0.05,0.5,,0,3,3,7,,,,,,,,,,,hand01b.jpg,lighthouse.jpg,motorcycle.jpg,nunchuk.jpg,stool01.jpg,englishcucumber.jpg,scooter.jpg,lawnmower.jpg,pooltable.jpg,nosmokingsign.jpg,tulip02.jpg,cork02.jpg,kneepad01c.jpg,pig.jpg,telescope.jpg,holdfast.jpg,duck01.jpg,67.66949160000013,70.41884160000018,70.15219070000012,None,1,1,14,70.6521574000003,None,70.6521574000003,None,.\resources\cork02.jpg,74.41854999999987,None,1,74.41854999999987,None,left,1.0342795999999908,74.41854999999987,None,75.48514380000006,None,1,left,0.6476590999996006,75.48514380000006,None,75.48514380000006,None,76.1855513999999,None,None,77.18545798,None,77.18545798,None,,,,,,,,,,,,,,,,,,,,,,,,,,,,,,,,,,,1,001,2021_Apr_07_1316,AB_pic_singleT2,2021.1.2,59.9897657460564,
AB,lag3,3,3,6,0.2,0.05,0.5,,0,4,4,5,,,,,,,,,,,turnstile.jpg,alligator.jpg,floorlamp.jpg,mrpotatohead.jpg,saxophone.jpg,jellyfish.jpg,cloud.jpg,stubbywrench01a.jpg,flamingo.jpg,surfboard.jpg,pigeon.jpg,squid.jpg,musicsheet.jpg,tire.jpg,lip.jpg,spiderweb.jpg,mailbox02.jpg,77.20213349999995,79.95149690000017,79.66818039999998,None,1,0,8,80.16811989999997,None,80.16811989999997,None,.\resources\jellyfish.jpg,82.4348460000001,None,1,82.4348460000001,None,left,0.9060724999999366,82.4348460000001,None,83.38454730000012,None,1,right,0.2842505999997229,83.38454730000012,None,83.38454730000012,None,83.68450140000004,None,None,84.68446878000017,None,84.68446878000017,None,,,,,,,,,,,,,,,,,,,,,,,,,,,,,,,,,,,1,001,2021_Apr_07_1316,AB_pic_singleT2,2021.1.2,59.9897657460564,
AB,lag4,4,4,8,0.2,0.05,0.5,,0,5,5,13,,,,,,,,,,,fishskeleton.jpg,jellyfish.jpg,firehydrant.jpg,cat.jpg,armadillo.jpg,birthdaycandle.jpg,statue.jpg,rose.jpg,doghouse.jpg,tiger02.jpg,eye.jpg,uprightpiano01.jpg,dromedary.jpg,magneticcompass.jpg,platypus.jpg,stool01.jpg,cheetah.jpg,84.7010951000002,87.45130749999998,87.16802319999988,None,1,1,10,87.68462150000005,None,87.68462150000005,None,.\resources\rose.jpg,90.43399470000031,None,1,90.43399470000031,None,left,0.882789899999807,90.43399470000031,None,91.33395400000018,None,1,left,0.44681489999993573,91.33395400000018,None,91.33395400000018,None,91.80058469999994,None,None,92.80052278000025,None,92.80052278000025,None,,,,,,,,,,,,,,,,,,,,,,,,,,,,,,,,,,,1,001,2021_Apr_07_1316,AB_pic_singleT2,2021.1.2,59.9897657460564,
AB,lag2,2,3,5,0.2,0.05,0.5,,0,6,6,4,,,,,,,,,,,chair.jpg,cruiseship.jpg,vulture.jpg,sledgehammer.jpg,apron.jpg,crab01.jpg,swing.jpg,sandcastle.jpg,dromedary.jpg,lion.jpg,cactus.jpg,horseshoe.jpg,lily.jpg,boat.jpg,slug.jpg,fishskeleton.jpg,lighthouse.jpg,92.81720889999997,95.56743110000025,95.30073870000024,None,0,0,7,95.80029880000029,None,95.80029880000029,None,.\resources\apron.jpg,97.816824,None,1,97.816824,None,right,0.8840546999999788,97.816824,None,98.73342460000003,None,1,right,0.3114393000000746,98.73342460000003,None,98.73342460000003,None,99.10006070000009,None,None,100.0999874800003,None,100.0999874800003,None,,,,,,,,,,,,,,,,,,,,,,,,,,,,,,,,,,,1,001,2021_Apr_07_1316,AB_pic_singleT2,2021.1.2,59.9897657460564,
AB,lag6,6,5,11,0.2,0.05,0.5,,0,7,7,0,,,,,,,,,,,eye.jpg,tarantula.jpg,safe.jpg,tie02.jpg,cigar.jpg,funnel.jpg,vacuumcleaner01.jpg,toucan.jpg,zebra.jpg,soccerball.jpg,car.jpg,lightswitch01.jpg,jellyfish.jpg,trampoline.jpg,sword01.jpg,parrot01.jpg,turnstile.jpg,100.11665330000005,102.86644860000024,102.60021649999999,None,0,0,13,103.09978010000032,None,103.09978010000032,None,.\resources\car.jpg,106.61622010000019,None,1,106.61622010000019,None,right,0.4606197999996766,106.61622010000019,None,107.13284500000009,None,1,right,0.3201242000000093,107.13284500000009,None,107.13284500000009,None,107.49948730000006,None,None,108.49989918000014,None,108.49989918000014,None,,,,,,,,,,,,,,,,,,,,,,,,,,,,,,,,,,,1,001,2021_Apr_07_1316,AB_pic_singleT2,2021.1.2,59.9897657460564,
AB,lag3,3,5,8,0.2,0.05,0.5,,0,8,8,10,,,,,,,,,,,icecube02.jpg,redfox.jpg,schoolbus.jpg,trophy01.jpg,zipper.jpg,recyclingbin.jpg,ostrich.jpg,triangle.jpg,badmintonracket.jpg,elbow.jpg,snowshovel.jpg,dragonfly01.jpg,greathornowl.jpg,tank.jpg,tulip02.jpg,scorpion.jpg,ironingboard01.jpg,108.51649970000017,111.26591310000003,110.98259510000025,None,1,1,10,111.4992299999999,None,111.4992299999999,None,.\resources\triangle.jpg,114.24900160000016,None,1,114.24900160000016,None,left,0.8519008999996913,114.24900160000016,None,115.13227720000032,None,1,left,0.4246376999999484,115.13227720000032,None,115.13227720000032,None,115.61557739999989,None,None,116.61593358000013,None,116.61593358000013,None,,,,,,,,,,,,,,,,,,,,,,,,,,,,,,,,,,,1,001,2021_Apr_07_1316,AB_pic_singleT2,2021.1.2,59.9897657460564,
AB,lag7,7,4,11,0.2,0.05,0.5,,0,9,9,2,,,,,,,,,,,kneepad01c.jpg,vulture.jpg,lily.jpg,ladder.jpg,ducttape.jpg,tire.jpg,sink.jpg,wallclock.jpg,paperairplane.jpg,guitarcase.jpg,harmonica.jpg,englishcucumber.jpg,ironingboard01.jpg,dolphin01.jpg,squirrel.jpg,exitsign.jpg,snowboard.jpg,116.63262029999987,119.38196749999997,119.11531640000021,None,0,1,13,119.6152889,None,119.6152889,None,.\resources\harmonica.jpg,123.1317039999999,None,1,123.1317039999999,None,right,0.6970704000000296,123.1317039999999,None,123.8649577000001,None,1,left,0.3398471000000427,123.8649577000001,None,123.8649577000001,None,124.24826770000027,None,None,125.2481868799999,None,125.2481868799999,None,,,,,,,,,,,,,,,,,,,,,,,,,,,,,,,,,,,1,001,2021_Apr_07_1316,AB_pic_singleT2,2021.1.2,59.9897657460564,
AB,lag4,4,3,7,0.2,0.05,0.5,,0,10,10,1,,,,,,,,,,,sword01.jpg,horse.jpg,toad.jpg,pooltable.jpg,boxingglove01.jpg,beerbottle.jpg,eiffeltower.jpg,floorlamp.jpg,cupcake.jpg,apron.jpg,tank.jpg,snowshoe.jpg,firehydrant.jpg,flag.jpg,jeep.jpg,bowlingball.jpg,bathtub.jpg,125.24823050000032,127.99842119999994,127.73134070000015,None,0,0,9,128.2313024,None,128.2313024,None,.\resources\eiffeltower.jpg,130.74780020000026,None,1,130.74780020000026,None,right,0.6410014999996747,130.74780020000026,None,131.4310878000001,None,1,right,0.5736936999996942,131.4310878000001,None,131.4310878000001,None,132.04813060000015,None,None,133.04762588000025,None,133.04762588000025,None,,,,,,,,,,,,,,,,,,,,,,,,,,,,,,,,,,,1,001,2021_Apr_07_1316,AB_pic_singleT2,2021.1.2,59.9897657460564,
AB,lag1,1,3,4,0.2,0.05,0.5,,0,11,11,3,,,,,,,,,,,fridge.jpg,turnstile.jpg,butterfly.jpg,wheelchair.jpg,pig.jpg,cannon.jpg,tortoise01.jpg,tree.jpg,statue.jpg,flag.jpg,squirrel.jpg,smokingpipe.jpg,cat.jpg,eyepatch.jpg,sausage.jpg,urinal.jpg,tennisracket.jpg,133.06449139999995,135.81409940000003,135.54789340000025,None,0,0,6,136.06408090000014,None,136.06408090000014,None,.\resources\wheelchair.jpg,137.81395410000005,None,1,137.81395410000005,None,right,0.9509620999997423,137.81395410000005,None,138.78055330000007,None,1,right,0.6322682999998506,138.78055330000007,None,138.78055330000007,None,139.4305062000003,None,None,140.43042978000025,None,140.43042978000025,None,,,,,,,,,,,,,,,,,,,,,,,,,,,,,,,,,,,1,001,2021_Apr_07_1316,AB_pic_singleT2,2021.1.2,59.9897657460564,
AB,lag5,5,4,9,0.2,0.05,0.5,,0,12,12,6,,,,,,,,,,,greywolf.jpg,tree.jpg,jellyfish.jpg,whiteout.jpg,frisbee.jpg,ladybug03.jpg,greatwhiteshark.jpg,ceilingfan01.jpg,toilet.jpg,car.jpg,microwave.jpg,skateboard.jpg,escalator.jpg,jeans01.jpg,cigar.jpg,ear.jpg,dreamcatcher.jpg,140.43043360000001,143.18063530000018,142.9139909999999,None,1,0,11,143.41355879999992,None,143.41355879999992,None,.\resources\toilet.jpg,146.43000260000008,None,1,146.43000260000008,None,left,0.8228395000001001,146.43000260000008,None,147.2966094000003,None,1,right,0.35622220000004745,147.2966094000003,None,147.2966094000003,None,147.6799203999999,None,None,148.67986928000013,None,148.67986928000013,None,,,,,,,,,,,,,,,,,,,,,,,,,,,,,,,,,,,1,001,2021_Apr_07_1316,AB_pic_singleT2,2021.1.2,59.9897657460564,
AB,lag2,2,5,7,0.2,0.05,0.5,,0,13,13,9,,,,,,,,,,,bowlingpin.jpg,discoball.jpg,tortoise01.jpg,waterfall.jpg,ostrich.jpg,rubikcube.jpg,pigeon.jpg,cruiseship.jpg,accordion01.jpg,knee.jpg,cigar.jpg,tarantula.jpg,greathornowl.jpg,cactus.jpg,treadmill.jpg,dragonfly01.jpg,trumpet.jpg,148.69650580000007,151.4467150999999,151.1634554000002,None,0,1,9,151.68005859999994,None,151.68005859999994,None,.\resources\pigeon.jpg,154.17945400000008,None,1,154.17945400000008,None,right,1.0733456000002661,154.17945400000008,None,155.27936470000031,None,1,left,0.33339120000027833,155.27936470000031,None,155.27936470000031,None,155.62934010000026,None,None,156.6292781800001,None,156.6292781800001,None,,,,,,,,,,,,,,,,,,,,,,,,,,,,,,,,,,,1,001,2021_Apr_07_1316,AB_pic_singleT2,2021.1.2,59.9897657460564,
,,,,,,,,,,,,,,,,,,,,,,,,,,,,,,,,,,,,,,,,,,,,,,,,,,,,,,,,,,,,,,,,,,,,,,,,,,,,,space,14.852832699999908,156.64594699999998,None,,,,,,,,,,,,,,,,,,,,,,,,,,,,,,,1,001,2021_Apr_07_1316,AB_pic_singleT2,2021.1.2,59.9897657460564,
AB,lag6,6,5,11,0.2,0.05,0.5,ramp,,,,,0,0,0,0,,,,,,,shower.jpg,armadillo.jpg,cymbal.jpg,eyepatch.jpg,kiwi03.jpg,cork02.jpg,microwave.jpg,porcupine.jpg,pumpkin.jpg,cashregister01.jpg,cannon.jpg,telescope.jpg,mailbox02.jpg,frenchfries.jpg,discoball.jpg,tree.jpg,crosscountryski.jpg,,,,,0,1,13,,,,,.\resources\cannon.jpg,,,1,,,,,,,,,1,,,,,,,,,None,179.49433758000018,None,179.49433758000018,None,,,,,156.64594699999998,None,171.64536399999997,174.39472569999998,174.1114103,None,0.2,174.56139840000014,None,174.56139840000014,None,178.07780330000014,None,178.07780330000014,None,right,0.9830112999998164,178.07780330000014,None,179.0943599000002,None,left,0.3665769999997792,179.0943599000002,None,179.0943599000002,None,,,,1,001,2021_Apr_07_1316,AB_pic_singleT2,2021.1.2,59.9897657460564,
AB,lag4,4,4,8,0.19066666667,0.048,0.48,ramp,,,,,0,1,1,1,,,,,,,calendar.jpg,greathornowl.jpg,vacuumcleaner01.jpg,table01.jpg,trophy01.jpg,masquerademask01.jpg,bullet.jpg,moon.jpg,cobra.jpg,tarantula.jpg,footballhelmet.jpg,swordfish.jpg,alligator.jpg,accordion01.jpg,bluecheese.jpg,fishskeleton.jpg,hammerheadshark.jpg,,,,,1,0,10,,,,,.\resources\moon.jpg,,,1,,,,,,,,,1,,,,,,,,,None,186.3771723799999,None,186.3771723799999,None,,,,,,,179.51099479999993,182.26079200000004,181.99414699999988,None,0.19066666667,182.51078009999992,None,182.51078009999992,None,185.14392739999994,None,185.14392739999994,None,left,0.8849002000001747,185.14392739999994,None,186.1271982000003,None,right,0.22163049999971918,186.1271982000003,None,186.1271982000003,None,-10.001360791690049,150.0000000424746,,1,001,2021_Apr_07_1316,AB_pic_singleT2,2021.1.2,59.9897657460564,
AB,lag7,7,4,11,0.18133333334,0.046,0.45999999999999996,ramp,,,,,0,2,2,2,,,,,,,paperairplane.jpg,showerhead01.jpg,fridge.jpg,drumstick.jpg,badmintonracket.jpg,steeringwheel.jpg,cork02.jpg,waterfall.jpg,mummy.jpg,snowshoe.jpg,smokingpipe.jpg,windshieldwiper02.jpg,magneticcompass.jpg,pigeon.jpg,car.jpg,flag.jpg,tiger02.jpg,,,,,0,0,13,,,,,.\resources\smokingpipe.jpg,,,1,,,,,,,,,1,,,,,,,,,None,193.59331558000017,None,193.59331558000017,None,,,,,,,186.39384130000008,189.1436394000002,188.86035330000004,None,0.18133333334,189.36029540000027,None,189.36029540000027,None,192.57672570000022,None,192.57672570000022,None,right,0.5480526999999711,192.57672570000022,None,193.17668619999995,None,right,0.3882256000001689,193.17668619999995,None,193.17668619999995,None,-10.002719446389834,150.00000013655824,,1,001,2021_Apr_07_1316,AB_pic_singleT2,2021.1.2,59.9897657460564,
AB,lag5,5,5,10,0.17200000001000001,0.044,0.43999999999999995,ramp,,,,,0,3,3,3,,,,,,,sword01.jpg,seal.jpg,rose.jpg,waterfall.jpg,masquerademask01.jpg,airhockeytable.jpg,toolbox02.jpg,safe.jpg,hand01b.jpg,car.jpg,skippingrope.jpg,hockeypuck.jpg,musicsheet.jpg,nosmokingsign.jpg,lightswitch01.jpg,chair.jpg,bat.jpg,,,,,0,1,12,,,,,.\resources\car.jpg,,,1,,,,,,,,,1,,,,,,,,,None,200.74277887999992,None,200.74277887999992,None,,,,,,,193.6099893999999,196.3597881999999,196.09317550000014,None,0.17200000001000001,196.5931088000002,None,196.5931088000002,None,199.4262361000001,None,199.4262361000001,None,right,0.9465649000003395,199.4262361000001,None,200.44280100000014,None,left,0.2820590999999695,200.44280100000014,None,200.44280100000014,None,-10.004075333761547,150.00000038823157,,1,001,2021_Apr_07_1316,AB_pic_singleT2,2021.1.2,59.9897657460564,
AB,lag2,2,3,5,0.16266666668000002,0.041999999999999996,0.41999999999999993,ramp,,,,,0,4,4,4,,,,,,,table01.jpg,rollerblade.jpg,frenchfries.jpg,bull.jpg,magneticcompass.jpg,flamingo.jpg,bat.jpg,kite.jpg,lion.jpg,africanelephant.jpg,cactus.jpg,lightswitch01.jpg,tent.jpg,witchhat.jpg,sheep.jpg,schoolbus.jpg,foot.jpg,,,,,1,0,7,,,,,.\resources\magneticcompass.jpg,,,1,,,,,,,,,1,,,,,,,,,None,206.8090338800001,None,206.8090338800001,None,,,,,,,200.7594465000002,203.50925009999992,203.2426015000001,None,0.16266666668000002,203.74256289999994,None,203.74256289999994,None,205.40911510000024,None,205.40911510000024,None,left,1.0756467999999586,205.40911510000024,None,206.5423635000002,None,right,0.24641199999996388,206.5423635000002,None,206.5423635000002,None,-10.005426297173447,150.0000011389316,,1,001,2021_Apr_07_1316,AB_pic_singleT2,2021.1.2,59.9897657460564,
AB,lag3,3,5,8,0.15333333335000002,0.039999999999999994,0.3999999999999999,ramp,,,,,0,5,5,5,,,,,,,zipper.jpg,panda.jpg,bowlingpin.jpg,surfboard.jpg,sledgehammer.jpg,rooster.jpg,punchingbag.jpg,duck01.jpg,africanelephant.jpg,ironingboard01.jpg,vacuumcleaner01.jpg,fishingrod.jpg,bat.jpg,moose.jpg,makiroll.jpg,trampoline.jpg,mattress.jpg,,,,,1,1,10,,,,,.\resources\duck01.jpg,,,1,,,,,,,,,1,,,,,,,,,None,213.55855357999994,None,213.55855357999994,None,,,,,,,206.82568530000026,209.57598009999992,209.3093457,None,0.15333333335000002,209.82552620000024,None,209.82552620000024,None,211.95867120000003,None,211.95867120000003,None,left,0.9261655999998766,211.95867120000003,None,212.94192759999987,None,left,0.5988578000001326,212.94192759999987,None,212.94192759999987,None,-10.006764806001751,150.00000351094027,,1,001,2021_Apr_07_1316,AB_pic_singleT2,2021.1.2,59.9897657460564,
AB,lag1,1,4,5,0.14400000002000002,0.03799999999999999,0.3799999999999999,ramp,,,,,0,6,6,6,,,,,,,tent.jpg,well.jpg,spear02.jpg,butterfly.jpg,greathornowl.jpg,musicsheet.jpg,vacuumcleaner01.jpg,mrpotatohead.jpg,zebra.jpg,bed.jpg,tire.jpg,trampoline.jpg,marble.jpg,saxophone.jpg,foot.jpg,flag.jpg,lightswitch01.jpg,,,,,0,0,7,,,,,.\resources\greathornowl.jpg,,,1,,,,,,,,,1,,,,,,,,,None,219.02482717999996,None,219.02482717999996,None,,,,,,,213.57522449999988,216.32502569999997,216.05840149999995,None,0.14400000002000002,216.57501290000027,None,216.57501290000027,None,218.04156779999994,None,218.04156779999994,None,right,0.6033397999999579,218.04156779999994,None,218.7415162000002,None,right,0.2552605000000767,218.7415162000002,None,218.7415162000002,None,-10.008064094004647,150.00001124737665,,1,001,2021_Apr_07_1316,AB_pic_singleT2,2021.1.2,59.9897657460564,
AB,lag6,6,5,11,0.13466666669000002,0.03599999999999999,0.3599999999999999,ramp,,,,,0,7,7,7,,,,,,,urinal.jpg,rose.jpg,lighthouse.jpg,dromedary.jpg,apron.jpg,zebra.jpg,tent.jpg,bow.jpg,fridge.jpg,bluejay.jpg,tulip02.jpg,kite.jpg,microwave.jpg,englishcucumber.jpg,ladybug03.jpg,shovel01.jpg,cat.jpg,,,,,0,1,13,,,,,.\resources\tulip02.jpg,,,1,,,,,,,,,1,,,,,,,,,None,225.8243574800002,None,225.8243574800002,None,,,,,,,219.04150329999993,221.79130579999992,221.5246546000003,None,0.13466666669000002,222.02462289999994,None,222.02462289999994,None,224.4411073000001,None,224.4411073000001,None,right,1.0277127999997901,224.4411073000001,None,225.52437080000027,None,left,0.2566295000001446,225.52437080000027,None,225.52437080000027,None,-10.009227634136485,150.00003695987715,,1,001,2021_Apr_07_1316,AB_pic_singleT2,2021.1.2,59.9897657460564,
AB,lag3,3,4,7,0.12533333336000002,0.03399999999999999,0.33999999999999986,ramp,,,,,0,8,8,8,,,,,,,dreamcatcher.jpg,birdnest.jpg,pooltable.jpg,drumstick.jpg,dalmatian.jpg,church.jpg,mummy.jpg,bench01.jpg,dragonfly01.jpg,noparkingsign.jpg,squirrel.jpg,recyclingbin.jpg,doghouse.jpg,microwave.jpg,leafrake.jpg,volleyball.jpg,arrow02.jpg,,,,,1,1,9,,,,,.\resources\mummy.jpg,,,1,,,,,,,,,1,,,,,,,,,None,231.67393878000016,None,231.67393878000016,None,,,,,,,225.8414332000002,228.59081650000007,228.32416850000027,None,0.12533333336000002,228.82414280000012,None,228.82414280000012,None,230.44068319999997,None,230.44068319999997,None,left,0.8281030000002829,230.44068319999997,None,231.3406417000001,None,left,0.3121021000001747,231.3406417000001,None,231.3406417000001,None,-10.009903325668345,150.00012340554508,,1,001,2021_Apr_07_1316,AB_pic_singleT2,2021.1.2,59.9897657460564,
AB,lag4,4,4,8,0.11600000003000002,0.03199999999999999,0.31999999999999984,ramp,,,,,0,9,9,9,,,,,,,flamingo.jpg,helicopter.jpg,birdhouse.jpg,hockeypuck.jpg,bumpercar.jpg,chefshat.jpg,banjo.jpg,key07.jpg,zipper.jpg,spicerack.jpg,birthdaycandle.jpg,trophy01.jpg,humanskeleton.jpg,lawnmower.jpg,lizard.jpg,crab01.jpg,surfboard.jpg,,,,,0,0,10,,,,,.\resources\key07.jpg,,,1,,,,,,,,,1,,,,,,,,,None,237.07398528000007,None,237.07398528000007,None,,,,,,,231.6906229000001,234.44039250000014,234.17375110000012,None,0.11600000003000002,234.69038940000019,None,234.69038940000019,None,236.32359709999992,None,236.32359709999992,None,right,0.4732042000000547,236.32359709999992,None,236.8573094000003,None,right,0.17957160000014483,236.8573094000003,None,236.8573094000003,None,-10.0087969897031,150.00041576432758,,1,001,2021_Apr_07_1316,AB_pic_singleT2,2021.1.2,59.9897657460564,
AB,lag5,5,4,9,0.10666666670000002,0.029999999999999985,0.2999999999999998,ramp,,,,,0,10,10,10,,,,,,,bullet.jpg,arrow02.jpg,cheetah.jpg,chimney.jpg,pumpkin.jpg,tortoise01.jpg,firehydrant.jpg,badmintonracket.jpg,footballhelmet.jpg,flamingo.jpg,toyanimal05.jpg,kneepad01c.jpg,dreamcatcher.jpg,whiteout.jpg,pokerchips.jpg,marble.jpg,fireplace.jpg,,,,,1,0,11,,,,,.\resources\footballhelmet.jpg,,,1,,,,,,,,,1,,,,,,,,,None,242.7564616799999,None,242.7564616799999,None,,,,,,,237.10729590000028,239.85667300000023,239.57338419999996,None,0.10666666670000002,240.0899985000001,None,240.0899985000001,None,241.73987429999988,None,241.73987429999988,None,left,0.7609505999998873,241.73987429999988,None,242.5731467999999,None,right,0.15959069999962594,242.5731467999999,None,242.5731467999999,None,-10.001153334151129,150.00140318068046,,1,001,2021_Apr_07_1316,AB_pic_singleT2,2021.1.2,59.9897657460564,
AB,lag2,2,3,5,0.09733333337000002,0.027999999999999983,0.3,ramp,,,,,0,11,11,11,,,,,,,snowman.jpg,basketball01.jpg,floorlamp.jpg,tortoise01.jpg,steeringwheel.jpg,tank.jpg,hand01b.jpg,scooter.jpg,chefshat.jpg,granolabar01.jpg,dandelion.jpg,windshieldwiper02.jpg,badmintonracket.jpg,chair.jpg,squirrel.jpg,volleyball.jpg,stool01.jpg,,,,,0,0,7,,,,,.\resources\steeringwheel.jpg,,,1,,,,,,,,,1,,,,,,,,,None,247.4894556800003,None,247.4894556800003,None,,,,,,,242.7731428000002,245.52296120000028,245.2562909000003,None,0.09733333337000002,245.75625309999987,None,245.75625309999987,None,246.7895123000003,None,246.7895123000003,None,right,0.4392635999997765,246.7895123000003,None,247.30616529999998,None,right,0.15462860000025103,247.30616529999998,None,247.30616529999998,None,-9.969929362530102,150.00467706564078,,1,001,2021_Apr_07_1316,AB_pic_singleT2,2021.1.2,59.9897657460564,
AB,lag1,1,4,5,0.08800000004000003,0.02599999999999998,0.3,ramp,,,,,0,12,12,12,,,,,,,snowshoe.jpg,lion.jpg,snowboard.jpg,bull.jpg,dormer.jpg,lily.jpg,fishingrod.jpg,greatwhiteshark.jpg,tiger02.jpg,jellybean.jpg,spiderweb.jpg,cross01.jpg,rollerblade.jpg,exitsign.jpg,humanskeleton.jpg,spicerack.jpg,dreamcatcher.jpg,,,,,1,0,7,,,,,.\resources\dormer.jpg,,,1,,,,,,,,,1,,,,,,,,,None,252.33910028000022,None,252.33910028000022,None,,,,,,,247.5061467999999,250.25593019999997,249.9892877000002,None,0.08800000004000003,250.48925310000004,None,250.48925310000004,None,251.42251320000014,None,251.42251320000014,None,left,0.6782536999999138,251.42251320000014,None,252.1557710000002,None,right,0.1450780999998642,252.1557710000002,None,252.1557710000002,None,-9.860203419559875,150.01481140263897,,1,001,2021_Apr_07_1316,AB_pic_singleT2,2021.1.2,59.9897657460564,
AB,lag7,7,5,12,0.07866666671000003,0.02399999999999998,0.3,ramp,,,,,0,13,13,13,,,,,,,fishingrod.jpg,discoball.jpg,squid.jpg,lizard.jpg,snowboard.jpg,escalator.jpg,lighthouse.jpg,stool01.jpg,bluejay.jpg,tree.jpg,seal.jpg,cactus.jpg,toyanimal05.jpg,skateboard.jpg,cupcake.jpg,hotdogweiner.jpg,skunk.jpg,,,,,1,0,14,,,,,.\resources\cactus.jpg,,,1,,,,,,,,,1,,,,,,,,,None,257.7887210800003,None,257.7887210800003,None,,,,,,,252.35576070000025,255.10605149999992,254.8394145000002,None,0.07866666671000003,255.3560534000003,None,255.3560534000003,None,256.9054550999999,None,256.9054550999999,None,left,0.6673430000000735,256.9054550999999,None,257.6387431000003,None,right,0.13410659999999552,257.6387431000003,None,257.6387431000003,None,-9.545471510334263,150.0407565987997,,1,001,2021_Apr_07_1316,AB_pic_singleT2,2021.1.2,59.9897657460564,
AB,lag1,1,3,4,0.06933333338000003,0.021999999999999978,0.3,ramp,,,,,0,14,14,14,,,,,,,crosscountryski.jpg,motorcycle.jpg,discoball.jpg,escalator.jpg,paperairplane.jpg,baseballbat.jpg,seal.jpg,tire.jpg,xylophone.jpg,beerbottle.jpg,foosballtable.jpg,greywolf.jpg,hockeystick.jpg,acousticguitar02.jpg,duck01.jpg,steeringwheel.jpg,worldmap.jpg,,,,,0,0,6,,,,,.\resources\escalator.jpg,,,1,,,,,,,,,1,,,,,,,,,None,262.4717228799999,None,262.4717228799999,None,,,,,,,257.80541700000003,260.55519760000016,260.2885741,None,0.06933333338000003,260.8051811999999,None,260.8051811999999,None,261.4551257000003,None,261.4551257000003,None,right,0.7656697000002168,261.4551257000003,None,262.2884027,None,right,0.16434079999999085,262.2884027,None,262.2884027,None,-8.899309494850606,150.0881144916348,,1,001,2021_Apr_07_1316,AB_pic_singleT2,2021.1.2,59.9897657460564,
AB,lag6,6,5,11,0.06000000005000003,0.02,0.3,main,,,,,0,15,15,15,,,,,,,snowshovel.jpg,eiffeltower.jpg,grizzly.jpg,steeringwheel.jpg,kneepad01c.jpg,tree.jpg,beerbottle.jpg,horse.jpg,snowshoe.jpg,popcorn.jpg,bowlingball.jpg,golfball.jpg,masquerademask01.jpg,eyepatch.jpg,boxingglove01.jpg,alligator.jpg,tulip02.jpg,,,,,0,1,13,,,,,.\resources\bowlingball.jpg,,,0,,,,,,,,,1,,,,,,,,,None,268.77170788,None,268.77170788,None,,,,,,,262.4883923000002,265.2382198,264.9548875999999,None,0.0685304355432073,265.4548423000001,None,265.4548423000001,None,266.7214183000001,None,266.7214183000001,None,left,1.7233776000002763,266.7214183000001,None,268.5217209000002,None,left,0.22707469999977548,268.5217209000002,None,268.5217209000002,None,-9.598353075836638,150.04337179481743,,1,001,2021_Apr_07_1316,AB_pic_singleT2,2021.1.2,59.9897657460564,
AB,lag1,1,5,6,0.06000000005000003,0.02,0.3,main,,,,,0,16,16,16,,,,,,,cupcake.jpg,waterfall.jpg,treadmill.jpg,snowboard.jpg,musicsheet.jpg,tarantula.jpg,lighthouse.jpg,humanskeleton.jpg,xylophone.jpg,bridge.jpg,recyclingbin.jpg,airhockeytable.jpg,shovel01.jpg,tortoise01.jpg,snowshoe.jpg,bowlingball.jpg,dartboard.jpg,,,,,0,0,8,,,,,.\resources\tarantula.jpg,,,1,,,,,,,,,1,,,,,,,,,None,273.52093138,None,273.52093138,None,,,,,,,268.7883646999999,271.5377665000001,271.27108910000015,None,0.07320981463931579,271.7710661000001,None,271.7710661000001,None,272.6376819000002,None,272.6376819000002,None,right,0.6232761000001119,272.6376819000002,None,273.337618,None,right,0.16316390000019965,273.337618,None,273.337618,None,-9.620577430385714,150.0473195560066,,1,001,2021_Apr_07_1316,AB_pic_singleT2,2021.1.2,59.9897657460564,
AB,lag5,5,3,8,0.06000000005000003,0.02,0.3,main,,,,,0,17,17,17,,,,,,,corn02.jpg,key07.jpg,snowshovel.jpg,jeep.jpg,dragonfly01.jpg,tennisracket.jpg,windshieldwiper02.jpg,doghouse.jpg,penguin.jpg,hockeystick.jpg,worldmap.jpg,bacon.jpg,magneticcompass.jpg,trampoline.jpg,punchingbag.jpg,acorn.jpg,electricguitar01.jpg,,,,,0,0,10,,,,,.\resources\doghouse.jpg,,,1,,,,,,,,,1,,,,,,,,,None,278.3872528800001,None,278.3872528800001,None,,,,,,,273.5376068999999,276.28743940000004,276.02073659999996,None,0.07335600411973493,276.5207177000002,None,276.5207177000002,None,277.57064919999993,None,277.57064919999993,None,right,0.5781161999998403,277.57064919999993,None,278.2039316999999,None,right,0.16088219999983266,278.2039316999999,None,278.2039316999999,None,-9.449538188347068,150.06529944787107,,1,001,2021_Apr_07_1316,AB_pic_singleT2,2021.1.2,59.9897657460564,
AB,lag3,3,4,7,0.06000000005000003,0.02,0.3,main,,,,,0,18,18,18,,,,,,,birdfeeder.jpg,witchhat.jpg,snowman.jpg,dalmatian.jpg,cashregister01.jpg,floorlamp.jpg,sheep.jpg,ostrich.jpg,cow.jpg,parachute.jpg,skippingrope.jpg,moon.jpg,microwave.jpg,noparkingsign.jpg,flag.jpg,shower.jpg,squirrel.jpg,,,,,0,0,9,,,,,.\resources\sheep.jpg,,,1,,,,,,,,,1,,,,,,,,,None,283.0202519799999,None,283.0202519799999,None,,,,,,,278.4039219000001,281.1537261000003,280.88711390000026,None,0.07220744961916432,281.40370410000014,None,281.40370410000014,None,282.33697329999995,None,282.33697329999995,None,right,0.41987440000002607,282.33697329999995,None,282.83693459999995,None,right,0.15986979999979667,282.83693459999995,None,282.83693459999995,None,-9.245350626609204,150.08541244191312,,1,001,2021_Apr_07_1316,AB_pic_singleT2,2021.1.2,59.9897657460564,
AB,lag2,2,5,7,0.06000000005000003,0.02,0.3,main,,,,,0,19,19,19,,,,,,,jeep.jpg,cork02.jpg,birdfeeder.jpg,whiteout.jpg,golfball.jpg,frisbee.jpg,acorn.jpg,bed.jpg,hammerheadshark.jpg,barrel01.jpg,ipad02.jpg,ladybug03.jpg,recyclingbin.jpg,hand01b.jpg,donut.jpg,nunchuk.jpg,lighthouse.jpg,,,,,0,0,9,,,,,.\resources\acorn.jpg,,,1,,,,,,,,,1,,,,,,,,,None,288.2865146800003,None,288.2865146800003,None,,,,,,,283.0369356000001,285.7867199000002,285.50344829999995,None,0.07083729734123102,286.0200592000001,None,286.0200592000001,None,286.9366396999999,None,286.9366396999999,None,right,1.0601888000001054,286.9366396999999,None,288.0532069000001,None,right,0.2075843000002351,288.0532069000001,None,288.0532069000001,None,-9.041371318747801,150.10494628835954,,1,001,2021_Apr_07_1316,AB_pic_singleT2,2021.1.2,59.9897657460564,
AB,lag4,4,3,7,0.06000000005000003,0.02,0.3,main,,,,,0,20,20,20,,,,,,,swing.jpg,horseshoe.jpg,trumpet.jpg,cheetah.jpg,lightswitch01.jpg,swordfish.jpg,tricycle.jpg,hockeystick.jpg,hotdogweiner.jpg,urinal.jpg,windshieldwiper02.jpg,flag.jpg,eiffeltower.jpg,coffeemaker.jpg,exitsign.jpg,pooltable.jpg,cobra.jpg,,,,,0,0,9,,,,,.\resources\tricycle.jpg,,,1,,,,,,,,,1,,,,,,,,,None,293.6194712800001,None,293.6194712800001,None,,,,,,,288.3031887000002,291.05341450000014,290.78674039999987,None,0.06946916765711102,291.28630169999997,None,291.28630169999997,None,292.2030958,None,292.2030958,None,right,1.0656021999998302,292.2030958,None,293.33617619999995,None,right,0.23681919999989987,293.33617619999995,None,293.33617619999995,None,-8.842325275046704,150.1233434660107,,1,001,2021_Apr_07_1316,AB_pic_singleT2,2021.1.2,59.9897657460564,
AB,lag7,7,5,12,0.06000000005000003,0.02,0.3,main,,,,,0,21,21,21,,,,,,,parkfountain.jpg,apron.jpg,microwave.jpg,grizzly.jpg,doghouse.jpg,penguin.jpg,cannon.jpg,shovel01.jpg,dolphin01.jpg,bluejay.jpg,athleticsock.jpg,cow.jpg,bullet.jpg,birdnest.jpg,bowtie.jpg,boxingglove01.jpg,bull.jpg,,,,,0,1,14,,,,,.\resources\cow.jpg,,,0,,,,,,,,,1,,,,,,,,,None,299.96942148000005,None,299.96942148000005,None,,,,,,,293.6361391999999,296.3863513000001,296.11970070000007,None,0.06813477104899711,296.63632540000026,None,296.63632540000026,None,297.9691582999999,None,297.9691582999999,None,left,0.6916261999999733,297.9691582999999,None,298.73576839999987,None,left,1.1891107999999804,298.73576839999987,None,298.73576839999987,None,-9.325562456697487,150.0961388417322,,1,001,2021_Apr_07_1316,AB_pic_singleT2,2021.1.2,59.9897657460564,
AB,lag6,6,5,11,0.06000000005000003,0.02,0.3,main,,,,,0,22,22,22,,,,,,,foot.jpg,mouse.jpg,windshieldwiper02.jpg,donut.jpg,bull.jpg,chefshat.jpg,sandcastle.jpg,microphone01.jpg,drumset.jpg,jeep.jpg,marble.jpg,lawnmower.jpg,dragonfly01.jpg,locker.jpg,badmintonracket.jpg,golfball.jpg,bullet.jpg,,,,,0,0,13,,,,,.\resources\marble.jpg,,,1,,,,,,,,,1,,,,,,,,,None,305.0187142799999,None,305.0187142799999,None,,,,,,,299.9860870000002,302.73553960000027,302.46888420000005,None,0.07136663807929408,302.9855255000002,None,302.9855255000002,None,304.2687665000003,None,304.2687665000003,None,right,0.44002950000003693,304.2687665000003,None,304.7853949999999,None,right,0.18749289999959728,304.7853949999999,None,304.7853949999999,None,-9.282484897077111,150.1060745686462,,1,001,2021_Apr_07_1316,AB_pic_singleT2,2021.1.2,59.9897657460564,
AB,lag7,7,5,12,0.06000000005000003,0.02,0.3,main,,,,,0,23,23,23,,,,,,,snowman.jpg,schoolbus.jpg,surfboard.jpg,badmintonracket.jpg,leafblower01.jpg,kangaroo.jpg,spiderweb.jpg,bowtie.jpg,cactus.jpg,showerhead01.jpg,porcupine.jpg,butterfly.jpg,locker.jpg,cobra.jpg,foldingchair.jpg,wheelbarrow01.jpg,africanelephant.jpg,,,,,0,1,14,,,,,.\resources\butterfly.jpg,,,1,,,,,,,,,1,,,,,,,,,None,310.5849740800003,None,310.5849740800003,None,,,,,,,305.03537700000015,307.7851760000003,307.5185531000002,None,0.07107493343527532,308.0351636999999,None,308.0351636999999,None,309.4183960999999,None,309.4183960999999,None,right,0.7943601000001763,309.4183960999999,None,310.26833480000005,None,left,0.28850980000015625,310.26833480000005,None,310.26833480000005,None,-9.17447102722303,150.12036038414283,,1,001,2021_Apr_07_1316,AB_pic_singleT2,2021.1.2,59.9897657460564,
AB,lag5,5,3,8,0.06000000005000003,0.02,0.3,main,,,,,0,24,24,24,,,,,,,bowtie.jpg,spicerack.jpg,hulahoop.jpg,fridge.jpg,telescope.jpg,drumset.jpg,athleticsock.jpg,steeringwheel.jpg,hockeypuck.jpg,volleyball.jpg,airhockeytable.jpg,waterfountain02.jpg,smokingpipe.jpg,penguin.jpg,safe.jpg,pokerchips.jpg,doghouse.jpg,,,,,1,0,10,,,,,.\resources\steeringwheel.jpg,,,1,,,,,,,,,1,,,,,,,,,None,315.7346073800003,None,315.7346073800003,None,,,,,,,310.6016580999999,313.35144579999996,313.0681582000002,None,0.07034865464830346,313.5680993000001,None,313.5680993000001,None,314.58468870000024,None,314.58468870000024,None,left,0.860086599999704,314.58468870000024,None,315.51796289999993,None,right,0.19085180000001856,315.51796289999993,None,315.51796289999993,None,-9.061714060767441,150.13458967751586,,1,001,2021_Apr_07_1316,AB_pic_singleT2,2021.1.2,59.9897657460564,
AB,lag3,3,3,6,0.06000000005000003,0.02,0.3,main,,,,,0,25,25,25,,,,,,,rollerblade.jpg,scooter.jpg,fridge.jpg,coffeemaker.jpg,cat.jpg,daddylonglegs.jpg,porcupine.jpg,polarbear.jpg,nose.jpg,grizzly.jpg,fishskeleton.jpg,sheep.jpg,hockeypuck.jpg,hulahoop.jpg,cruiseship.jpg,swing.jpg,bowlingball.jpg,,,,,1,0,8,,,,,.\resources\daddylonglegs.jpg,,,1,,,,,,,,,1,,,,,,,,,None,320.8513546800003,None,320.8513546800003,None,,,,,,,315.7512792000002,318.50108249999994,318.2344307000003,None,0.06959094799092806,318.7510636000002,None,318.7510636000002,None,319.56767130000026,None,319.56767130000026,None,left,0.765103199999885,319.56767130000026,None,320.50093400000014,None,right,0.3278506000001471,320.50093400000014,None,320.50093400000014,None,-8.950333276474213,150.14821818898432,,1,001,2021_Apr_07_1316,AB_pic_singleT2,2021.1.2,59.9897657460564,
AB,lag2,2,3,5,0.06000000005000003,0.02,0.3,main,,,,,0,26,26,26,,,,,,,rose.jpg,skateboard.jpg,zebra.jpg,soccerball.jpg,beaver.jpg,peacock.jpg,dalmatian.jpg,tree.jpg,ladybug03.jpg,frisbee.jpg,panda.jpg,cork02.jpg,kite.jpg,electricguitar01.jpg,toilet.jpg,barrel01.jpg,cupcake.jpg,,,,,0,0,7,,,,,.\resources\beaver.jpg,,,1,,,,,,,,,1,,,,,,,,,None,325.38390268,None,325.38390268,None,,,,,,,320.8680718999999,323.6174160999999,323.3507314000003,None,0.06884282585747298,323.8506926,None,323.8506926,None,324.5839626000002,None,324.5839626000002,None,right,0.5088533000002826,324.5839626000002,None,325.1672381000003,None,right,0.1737647999998444,325.1672381000003,None,325.1672381000003,None,-8.840656877675887,150.1611379645941,,1,001,2021_Apr_07_1316,AB_pic_singleT2,2021.1.2,59.9897657460564,
AB,lag1,1,5,6,0.06000000005000003,0.02,0.3,main,,,,,0,27,27,27,,,,,,,fireplace.jpg,rollerblade.jpg,stubbywrench01a.jpg,eiffeltower.jpg,soccerball.jpg,holdfast.jpg,wheelchair.jpg,basketball01.jpg,giraffe.jpg,jellyfish.jpg,waterfountain02.jpg,car.jpg,treadmill.jpg,cork02.jpg,tank.jpg,jellybean.jpg,locker.jpg,,,,,1,1,8,,,,,.\resources\holdfast.jpg,,,1,,,,,,,,,1,,,,,,,,,None,330.68352158000005,None,330.68352158000005,None,,,,,,,325.4005781999999,328.15035910000006,327.8837133000002,None,0.06810651129460107,328.4003673000002,None,328.4003673000002,None,329.20029520000026,None,329.20029520000026,None,left,0.948520599999938,329.20029520000026,None,330.21687599999996,None,left,0.4439137999997911,330.21687599999996,None,330.21687599999996,None,-8.7324540163629,150.17330170206668,,1,001,2021_Apr_07_1316,AB_pic_singleT2,2021.1.2,59.9897657460564,
AB,lag4,4,5,9,0.06000000005000003,0.02,0.3,main,,,,,0,28,28,28,,,,,,,donut.jpg,cymbal.jpg,skippingrope.jpg,porcupine.jpg,penguin.jpg,swing.jpg,tank.jpg,cannon.jpg,ducttape.jpg,hotdogweiner.jpg,pingpongtable.jpg,triangle.jpg,humanskeleton.jpg,toolbox02.jpg,boat.jpg,fishskeleton.jpg,granolabar01.jpg,,,,,1,0,11,,,,,.\resources\ducttape.jpg,,,1,,,,,,,,,0,,,,,,,,,None,336.21687727999995,None,336.21687727999995,None,,,,,,,330.7001814,333.44997650000005,333.1833571000002,None,0.06738047484337581,333.6832976999999,None,333.6832976999999,None,334.7665572000001,None,334.7665572000001,None,left,0.6782157000002371,334.7665572000001,None,335.51650310000014,None,left,0.6642762999999832,335.51650310000014,None,335.51650310000014,None,-8.625486704863695,150.18467966147546,,1,001,2021_Apr_07_1316,AB_pic_singleT2,2021.1.2,59.9897657460564,
AB,lag3,3,4,7,0.06000000005000003,0.02,0.3,main,,,,,0,29,29,29,,,,,,,magneticcompass.jpg,porcupine.jpg,mummy.jpg,electricguitar01.jpg,hulahoop.jpg,bull.jpg,surfboard.jpg,arrow02.jpg,trophy01.jpg,grizzly.jpg,moon.jpg,worldmap.jpg,crosscountryski.jpg,honeybee.jpg,tulip02.jpg,cork02.jpg,microwave.jpg,,,,,1,0,9,,,,,.\resources\surfboard.jpg,,,1,,,,,,,,,0,,,,,,,,,None,341.54941448000034,None,341.54941448000034,None,,,,,,,336.2502144,338.99958670000024,338.7162725000003,None,0.06666313160936715,339.2162421000003,None,339.2162421000003,None,340.1161731000002,None,340.1161731000002,None,left,0.6085823999997046,340.1161731000002,None,340.78279580000026,None,left,0.7180444999999054,340.78279580000026,None,340.78279580000026,None,-8.519559531762306,150.19525297448786,,1,001,2021_Apr_07_1316,AB_pic_singleT2,2021.1.2,59.9897657460564,
AB,lag1,1,4,5,0.06000000005000003,0.02,0.3,main,,,,,0,30,30,30,,,,,,,jellybean.jpg,humanskeleton.jpg,dragonfly01.jpg,platypus.jpg,windmill.jpg,bumpercar.jpg,rollerblade.jpg,chainsaw.jpg,well.jpg,cloud.jpg,badmintonracket.jpg,bathtub.jpg,funnel.jpg,popcorn.jpg,witchhat.jpg,ear.jpg,trumpet.jpg,,,,,1,0,7,,,,,.\resources\windmill.jpg,,,1,,,,,,,,,1,,,,,,,,,None,346.2157278799999,None,346.2157278799999,None,,,,,,,341.5660705,344.3158846000001,344.0492223000001,None,0.06595317559446971,344.5491996999999,None,344.5491996999999,None,345.2658142,None,345.2658142,None,left,0.7229280999999901,345.2658142,None,346.04907890000004,None,right,0.13966630000004443,346.04907890000004,None,346.04907890000004,None,-8.414516470125664,150.20501135114185,,1,001,2021_Apr_07_1316,AB_pic_singleT2,2021.1.2,59.9897657460564,
AB,lag4,4,5,9,0.06000000005000003,0.02,0.3,main,,,,,0,31,31,31,,,,,,,horseshoe.jpg,stubbywrench01a.jpg,bow.jpg,dartboard.jpg,pumpkin.jpg,corn02.jpg,pokerchips.jpg,skippingrope.jpg,giraffe.jpg,seal.jpg,pirateflag.jpg,sausage.jpg,eyepatch.jpg,rooster.jpg,brownsugar.jpg,honeybee.jpg,eye.jpg,,,,,0,0,11,,,,,.\resources\giraffe.jpg,,,1,,,,,,,,,1,,,,,,,,,None,351.2487179799999,None,351.2487179799999,None,,,,,,,346.2324094999999,348.9822033999999,348.71556020000025,None,0.06524955953922006,349.2155216000001,None,349.2155216000001,None,350.2654461000002,None,350.2654461000002,None,right,0.7233860000001187,350.2654461000002,None,351.06538660000024,None,right,0.13950299999987692,351.06538660000024,None,351.06538660000024,None,-8.31023377886651,150.21395156571248,,1,001,2021_Apr_07_1316,AB_pic_singleT2,2021.1.2,59.9897657460564,
AB,lag6,6,3,9,0.06000000005000003,0.02,0.3,main,,,,,0,32,32,32,,,,,,,pirateflag.jpg,ladybug03.jpg,horse.jpg,footballhelmet.jpg,scorpion.jpg,treadmill.jpg,golfball.jpg,daddylonglegs.jpg,hulahoop.jpg,urinal.jpg,electrictoothbrush01c.jpg,bacon.jpg,basketball01.jpg,lollipop04.jpg,horseshoe.jpg,ear.jpg,hotdogweiner.jpg,,,,,0,1,11,,,,,.\resources\hulahoop.jpg,,,0,,,,,,,,,1,,,,,,,,,None,357.3487585800002,None,357.3487585800002,None,,,,,,,351.2653852000003,354.01519499999995,353.74855350000007,None,0.06455144837691434,354.2485168000003,None,354.2485168000003,None,355.28178100000014,None,355.28178100000014,None,left,1.546993399999792,355.28178100000014,None,356.91543820000015,None,left,0.40935480000007374,356.91543820000015,None,356.91543820000015,None,-8.610708924549861,150.19799274077107,,1,001,2021_Apr_07_1316,AB_pic_singleT2,2021.1.2,59.9897657460564,
AB,lag2,2,3,5,0.06000000005000003,0.02,0.3,main,,,,,0,33,33,33,,,,,,,electrictoothbrush01c.jpg,baseballbat.jpg,dragonfly01.jpg,nosmokingsign.jpg,skippingrope.jpg,squirrel.jpg,toilet.jpg,paperairplane.jpg,chainsaw.jpg,waterfountain02.jpg,acousticguitar02.jpg,knee.jpg,frenchfries.jpg,peacock.jpg,magneticcompass.jpg,shower.jpg,toucan.jpg,,,,,1,1,7,,,,,.\resources\skippingrope.jpg,,,1,,,,,,,,,1,,,,,,,,,None,362.0984160800002,None,362.0984160800002,None,,,,,,,357.3654411000002,360.1147734000001,359.84814640000013,None,0.06655883413118395,360.36476230000017,None,360.36476230000017,None,361.06469830000015,None,361.06469830000015,None,left,0.7800820999996176,361.06469830000015,None,361.93175440000005,None,left,0.1450435000001562,361.93175440000005,None,361.93175440000005,None,-8.57446947427744,150.20465172549896,,1,001,2021_Apr_07_1316,AB_pic_singleT2,2021.1.2,59.9897657460564,
AB,lag5,5,4,9,0.06000000005000003,0.02,0.3,main,,,,,0,34,34,34,,,,,,,cow.jpg,guitarcase.jpg,jeans01.jpg,hulahoop.jpg,dartboard.jpg,pirateflag.jpg,dromedary.jpg,snowman.jpg,saltshaker03a.jpg,pooltable.jpg,baseballbat.jpg,snowshoe.jpg,dandelion.jpg,punchingbag.jpg,xylophone.jpg,lighthouse.jpg,ostrich.jpg,,,,,0,0,11,,,,,.\resources\saltshaker03a.jpg,,,1,,,,,,,,,1,,,,,,,,,None,366.9647324800002,None,366.9647324800002,None,,,,,,,362.1150840999999,364.86443310000004,364.5978233000001,None,0.06631461623173136,365.1144148000003,None,365.1144148000003,None,366.1643361000001,None,366.1643361000001,None,right,0.5684833999998773,366.1643361000001,None,366.81428670000014,None,right,0.1345248000002357,366.81428670000014,None,366.81428670000014,None,-8.50352505055977,150.21322140128748,,1,001,2021_Apr_07_1316,AB_pic_singleT2,2021.1.2,59.9897657460564,
AB,lag7,7,5,12,0.06000000005000003,0.02,0.3,main,,,,,0,35,35,35,,,,,,,kneepad01c.jpg,calendar.jpg,treadmill.jpg,sausage.jpg,bow.jpg,musicsheet.jpg,triangle.jpg,arrow02.jpg,zipper.jpg,surfboard.jpg,sandcastle.jpg,toad.jpg,mummy.jpg,trampoline.jpg,electricguitar01.jpg,leafrake.jpg,bench01.jpg,,,,,1,0,14,,,,,.\resources\toad.jpg,,,0,,,,,,,,,0,,,,,,,,,None,372.4971864800003,None,372.4971864800003,None,,,,,,,366.9814225,369.73074399999996,369.4474740999999,None,0.06583854150400967,369.9640668000002,None,369.9640668000002,None,371.2639459000002,None,371.2639459000002,None,right,0.7729439999998249,371.2639459000002,None,372.13054869999996,None,left,0.34624790000043504,372.13054869999996,None,372.13054869999996,None,-8.74491454766301,150.20197626335008,,1,001,2021_Apr_07_1316,AB_pic_singleT2,2021.1.2,59.9897657460564,
AB,lag5,5,5,10,0.06000000005000003,0.02,0.3,main,,,,,0,36,36,36,,,,,,,hammerheadshark.jpg,spear02.jpg,whiteout.jpg,ironingboard01.jpg,christmastree.jpg,moose.jpg,schoolbus.jpg,ladder.jpg,wallclock.jpg,toad.jpg,trumpet.jpg,dragonfly01.jpg,totempole.jpg,cupcake.jpg,birthdaycandle.jpg,daddylonglegs.jpg,dolphin01.jpg,,,,,0,0,12,,,,,.\resources\toad.jpg,,,1,,,,,,,,,1,,,,,,,,,None,377.3135233800002,None,377.3135233800002,None,,,,,,,372.51388610000004,375.2636547000002,374.9970109000001,None,0.06745056996467069,375.51364360000025,None,375.51364360000025,None,376.66355999999996,None,376.66355999999996,None,right,0.4132299999996576,376.66355999999996,None,377.1301865999999,None,right,0.1546464999996715,377.1301865999999,None,377.1301865999999,None,-8.706241200434787,150.2095863901272,,1,001,2021_Apr_07_1316,AB_pic_singleT2,2021.1.2,59.9897657460564,
AB,lag7,7,3,10,0.06000000005000003,0.02,0.3,main,,,,,0,37,37,37,,,,,,,lip.jpg,holdfast.jpg,beaver.jpg,jeep.jpg,boxingglove01.jpg,mrpotatohead.jpg,anchor.jpg,bowlingball.jpg,microwave.jpg,barrel01.jpg,banjo.jpg,licenseplate.jpg,pokerchips.jpg,tricycle.jpg,skateboard.jpg,dreamcatcher.jpg,greatwhiteshark.jpg,,,,,0,0,12,,,,,.\resources\barrel01.jpg,,,1,,,,,,,,,1,,,,,,,,,None,382.29648618,None,382.29648618,None,,,,,,,377.3301798000002,380.0799793000001,379.81335820000004,None,0.06718969011300086,380.32999580000023,None,380.32999580000023,None,381.4798788000003,None,381.4798788000003,None,right,0.5730330999999751,381.4798788000003,None,382.1298351999999,None,right,0.14698689999977432,382.1298351999999,None,382.1298351999999,None,-8.649197468250405,150.21816885081225,,1,001,2021_Apr_07_1316,AB_pic_singleT2,2021.1.2,59.9897657460564,
AB,lag4,4,3,7,0.06000000005000003,0.02,0.3,main,,,,,0,38,38,38,,,,,,,acousticguitar02.jpg,paperairplane.jpg,ladybug03.jpg,mummy.jpg,cross01.jpg,frenchfries.jpg,helicopter.jpg,volleyball.jpg,cat.jpg,whiteout.jpg,trampoline.jpg,birdnest.jpg,foosballtable.jpg,kiwi03.jpg,fishingrod.jpg,dragonfly01.jpg,toolbox02.jpg,,,,,0,1,9,,,,,.\resources\helicopter.jpg,,,1,,,,,,,,,1,,,,,,,,,None,387.74609978000024,None,387.74609978000024,None,,,,,,,382.3131593000003,385.06298160000006,384.7963141,None,0.0668061121110919,385.31294560000015,None,385.31294560000015,None,386.19621069999994,None,386.19621069999994,None,right,1.2165407000002233,386.19621069999994,None,387.4794526999999,None,left,0.23735050000004776,387.4794526999999,None,387.4794526999999,None,-8.591474871875942,150.22648587924908,,1,001,2021_Apr_07_1316,AB_pic_singleT2,2021.1.2,59.9897657460564,
AB,lag3,3,5,8,0.06000000005000003,0.02,0.3,main,,,,,0,39,39,39,,,,,,,leafrake.jpg,boat.jpg,tire.jpg,beaver.jpg,hammerheadshark.jpg,turnstile.jpg,wheelchair.jpg,snowshovel.jpg,ipad02.jpg,nose.jpg,toyanimal05.jpg,dormer.jpg,dreamcatcher.jpg,tortoise01.jpg,boxingglove01.jpg,jeans01.jpg,spear02.jpg,,,,,0,0,10,,,,,.\resources\snowshovel.jpg,,,1,,,,,,,,,1,,,,,,,,,None,392.39578917999995,None,392.39578917999995,None,,,,,,,387.76277960000016,390.51261250000016,390.2459174999999,None,0.06641817635949954,390.7458909000002,None,390.7458909000002,None,391.7291521000002,None,391.7291521000002,None,right,0.45170969999981025,391.7291521000002,None,392.2624831000003,None,right,0.10224749999997584,392.2624831000003,None,392.2624831000003,None,-8.534148638477571,150.2344374467117,,1,001,2021_Apr_07_1316,AB_pic_singleT2,2021.1.2,59.9897657460564,
AB,lag2,2,4,6,0.06000000005000003,0.02,0.3,main,,,,,0,40,40,40,,,,,,,acorn.jpg,birdnest.jpg,musicsheet.jpg,bullet.jpg,table01.jpg,swing.jpg,skunk.jpg,squid.jpg,dandelion.jpg,masquerademask01.jpg,fingerprint.jpg,rollerblade.jpg,windshieldwiper02.jpg,lighthouse.jpg,armadillo.jpg,cow.jpg,parachute.jpg,,,,,0,0,8,,,,,.\resources\swing.jpg,,,1,,,,,,,,,0,,,,,,,,,None,397.54540318000033,None,397.54540318000033,None,,,,,,,392.41243310000027,395.16223119999995,394.8789227000002,None,0.06603308248227877,395.39555670000027,None,395.39555670000027,None,396.1788352000003,None,396.1788352000003,None,right,1.0179650999998557,396.1788352000003,None,397.2787618000002,None,left,0.2221503999999186,397.2787618000002,None,397.2787618000002,None,-8.477245501207438,150.24199918578282,,1,001,2021_Apr_07_1316,AB_pic_singleT2,2021.1.2,59.9897657460564,
AB,lag1,1,4,5,0.06000000005000003,0.02,0.3,main,,,,,0,41,41,41,,,,,,,ipad02.jpg,floorlamp.jpg,athleticsock.jpg,cloud.jpg,motorcycle.jpg,seal.jpg,rubikcube.jpg,jellyfish.jpg,wheelbarrow01.jpg,uprightpiano01.jpg,waterfountain02.jpg,skunk.jpg,bowlingball.jpg,escalator.jpg,turnstile.jpg,seagull.jpg,punchingbag.jpg,,,,,1,0,7,,,,,.\resources\motorcycle.jpg,,,1,,,,,,,,,1,,,,,,,,,None,402.56173288000025,None,402.56173288000025,None,,,,,,,397.5620779000001,400.3118962000003,400.0452494000001,None,0.06565101579971988,400.5452104000001,None,400.5452104000001,None,401.26183979999996,None,401.26183979999996,None,left,0.8551062999999886,401.26183979999996,None,402.22842560000026,None,right,0.31241829999999027,402.22842560000026,None,402.22842560000026,None,-8.420728345829817,150.24915480476972,,1,001,2021_Apr_07_1316,AB_pic_singleT2,2021.1.2,59.9897657460564,
AB,lag6,6,5,11,0.06000000005000003,0.02,0.3,main,,,,,0,42,42,42,,,,,,,alligator.jpg,englishcucumber.jpg,spicerack.jpg,dromedary.jpg,toucan.jpg,ceilingfan01.jpg,xylophone.jpg,arrow02.jpg,bridge.jpg,trumpet.jpg,scorpion.jpg,bull.jpg,greathornowl.jpg,mattress.jpg,hulahoop.jpg,bat.jpg,horse.jpg,,,,,0,0,13,,,,,.\resources\scorpion.jpg,,,1,,,,,,,,,0,,,,,,,,,None,408.11178468000014,None,408.11178468000014,None,,,,,,,402.5784263999999,405.3282312000001,405.0615487,None,0.06527173294047961,405.5615330999999,None,405.5615330999999,None,406.7781047000003,None,406.7781047000003,None,right,0.8506483999999546,406.7781047000003,None,407.69469930000014,None,left,0.39804800000001705,407.69469930000014,None,407.69469930000014,None,-8.36456018157736,150.25589128551042,,1,001,2021_Apr_07_1316,AB_pic_singleT2,2021.1.2,59.9897657460564,
AB,lag5,5,5,10,0.06000000005000003,0.02,0.3,main,,,,,0,43,43,43,,,,,,,saxophone.jpg,coffeemaker.jpg,cow.jpg,anchor.jpg,greywolf.jpg,paperairplane.jpg,showerhead01.jpg,bowlingpin.jpg,chefshat.jpg,dalmatian.jpg,stool01.jpg,waterfall.jpg,well.jpg,jackrabbit.jpg,fridge.jpg,steeringwheel.jpg,candycane01a.jpg,,,,,0,0,12,,,,,.\resources\dalmatian.jpg,,,1,,,,,,,,,1,,,,,,,,,None,414.3946494800001,None,414.3946494800001,None,,,,,,,408.1284525000001,410.87785269999995,410.5945004,None,0.06489498986877697,411.11112360000016,None,411.11112360000016,None,412.2276984,None,412.2276984,None,right,1.937126100000114,412.2276984,None,414.24463060000016,None,right,0.1281355999999505,414.24463060000016,None,414.24463060000016,None,-8.308707983400545,150.26219823331303,,1,001,2021_Apr_07_1316,AB_pic_singleT2,2021.1.2,59.9897657460564,
AB,lag7,7,5,12,0.06000000005000003,0.02,0.3,main,,,,,0,44,44,44,,,,,,,pumpkin.jpg,punchingbag.jpg,cashregister01.jpg,showerhead01.jpg,dreamcatcher.jpg,pooltable.jpg,humanskeleton.jpg,christmaslights.jpg,dalmatian.jpg,armadillo.jpg,seagull.jpg,cat.jpg,skateboard.jpg,bench01.jpg,frenchfries.jpg,lip.jpg,xylophone.jpg,,,,,0,1,14,,,,,.\resources\cat.jpg,,,1,,,,,,,,,1,,,,,,,,,None,419.59383298,None,419.59383298,None,,,,,,,414.4112822000002,417.16066180000007,416.8940250999999,None,0.06452056777092365,417.3939780999999,None,417.3939780999999,None,418.6938857,None,418.6938857,None,right,0.5829413000001296,418.6938857,None,419.3438406999999,None,left,0.22892749999982698,419.3438406999999,None,419.3438406999999,None,-8.253142508399964,150.26806755266264,,1,001,2021_Apr_07_1316,AB_pic_singleT2,2021.1.2,59.9897657460564,
AB,lag3,3,4,7,0.06000000005000003,0.02,0.3,main,,,,,0,45,45,45,,,,,,,cruiseship.jpg,masquerademask01.jpg,licenseplate.jpg,discoball.jpg,zipper.jpg,rubikcube.jpg,athleticsock.jpg,frenchfries.jpg,ceilingfan01.jpg,wallclock.jpg,toilet.jpg,tortoise01.jpg,firehydrant.jpg,totempole.jpg,jellybean.jpg,parkingmeter.jpg,exitsign.jpg,,,,,0,1,9,,,,,.\resources\athleticsock.jpg,,,1,,,,,,,,,1,,,,,,,,,None,424.8938805800002,None,424.8938805800002,None,,,,,,,419.6104909999999,422.3602916,422.0936431,None,0.06414827199492426,422.61028190000025,None,422.61028190000025,None,423.4602119000001,None,423.4602119000001,None,right,0.9365614000003006,423.4602119000001,None,424.49347450000005,None,left,0.36732419999998456,424.49347450000005,None,424.49347450000005,None,-8.197837891765797,150.273493182119,,1,001,2021_Apr_07_1316,AB_pic_singleT2,2021.1.2,59.9897657460564,
AB,lag2,2,5,7,0.06000000005000003,0.02,0.3,main,,,,,0,46,46,46,,,,,,,bat.jpg,spear02.jpg,nose.jpg,telescope.jpg,witchhat.jpg,vulture.jpg,leafrake.jpg,drumstick.jpg,ladder.jpg,bathtub.jpg,tent.jpg,bluecheese.jpg,tarantula.jpg,chainsaw.jpg,duck01.jpg,waterfall.jpg,rollerblade.jpg,,,,,0,0,9,,,,,.\resources\leafrake.jpg,,,1,,,,,,,,,1,,,,,,,,,None,429.52644118000023,None,429.52644118000023,None,,,,,,,424.9105486000003,427.6599136,427.3932943,None,0.06377792949333064,427.90989820000004,None,427.90989820000004,None,428.75983399999996,None,428.75983399999996,None,right,0.5409409999997479,428.75983399999996,None,429.3931256999999,None,right,0.10761139999976876,429.3931256999999,None,429.3931256999999,None,-8.142771281216552,150.27847086417128,,1,001,2021_Apr_07_1316,AB_pic_singleT2,2021.1.2,59.9897657460564,
AB,lag6,6,5,11,0.06000000005000003,0.02,0.3,main,,,,,0,47,47,47,,,,,,,frenchfries.jpg,rubikcube.jpg,skunk.jpg,elbow.jpg,toyanimal05.jpg,kneepad01c.jpg,holdfast.jpg,waterfountain02.jpg,cat.jpg,safe.jpg,fridge.jpg,floorlamp.jpg,nosmokingsign.jpg,zipper.jpg,football.jpg,fingerprint.jpg,icecube02.jpg,,,,,0,0,13,,,,,.\resources\fridge.jpg,,,1,,,,,,,,,1,,,,,,,,,None,434.35945198000024,None,434.35945198000024,None,,,,,,,429.5431155000001,432.2929503999999,432.0262686000001,None,0.06340938650453302,432.5262312,None,432.5262312,None,433.7261603000002,None,433.7261603000002,None,right,0.43874460000006366,433.7261603000002,None,434.2594446000003,None,right,0.08134190000009767,434.2594446000003,None,434.2594446000003,None,-8.087922519948108,150.28299794385507,,1,001,2021_Apr_07_1316,AB_pic_singleT2,2021.1.2,59.9897657460564,
AB,lag1,1,4,5,0.06000000005000003,0.02,0.3,main,,,,,0,48,48,48,,,,,,,dartboard.jpg,doghouse.jpg,corn02.jpg,windmill.jpg,bumpercar.jpg,tree.jpg,bluejay.jpg,helicopter.jpg,harmonica.jpg,jackrabbit.jpg,foot.jpg,jellybean.jpg,polarbear.jpg,hand01b.jpg,key07.jpg,christmaslights.jpg,tent.jpg,,,,,0,0,7,,,,,.\resources\bumpercar.jpg,,,1,,,,,,,,,1,,,,,,,,,None,438.8757492799999,None,438.8757492799999,None,,,,,,,434.3761018,437.12589990000015,436.85925780000025,None,0.06304250654227378,437.37589130000015,None,437.37589130000015,None,438.05917320000026,None,438.05917320000026,None,right,0.6017712999996547,438.05917320000026,None,438.74242540000023,None,right,0.11034940000035931,438.74242540000023,None,438.74242540000023,None,-8.033273871497135,150.28707319199162,,1,001,2021_Apr_07_1316,AB_pic_singleT2,2021.1.2,59.9897657460564,
AB,lag4,4,3,7,0.06000000005000003,0.02,0.3,main,,,,,0,49,49,49,,,,,,,paperairplane.jpg,safe.jpg,holdfast.jpg,beerbottle.jpg,apron.jpg,treadmill.jpg,bullet.jpg,airhockeytable.jpg,tortoise01.jpg,englishcucumber.jpg,ant.jpg,windshieldwiper02.jpg,acorn.jpg,birdnest.jpg,arrow02.jpg,telescope.jpg,helicopter.jpg,,,,,0,0,9,,,,,.\resources\bullet.jpg,,,1,,,,,,,,,1,,,,,,,,,None,443.3587701800001,None,443.3587701800001,None,,,,,,,438.8924288000003,441.6426684000003,441.3759894,None,0.062677168651648,441.8755361000003,None,441.8755361000003,None,442.7254806000001,None,442.7254806000001,None,right,0.3832689000000755,442.7254806000001,None,443.19211110000015,None,right,0.12477939999962473,443.19211110000015,None,443.19211110000015,None,-7.978809780040893,150.29069664965527,,1,001,2021_Apr_07_1316,AB_pic_singleT2,2021.1.2,59.9897657460564,
AB,lag3,3,4,7,0.06000000005000003,0.02,0.3,main,,,,,0,50,50,50,,,,,,,dragonfly01.jpg,witchhat.jpg,humanskeleton.jpg,funnel.jpg,showerhead01.jpg,snowshovel.jpg,pirateflag.jpg,dandelion.jpg,turnstile.jpg,africanelephant.jpg,zebra.jpg,uprightpiano01.jpg,ladybug03.jpg,church.jpg,flag.jpg,skateboard.jpg,birdfeeder.jpg,,,,,1,0,9,,,,,.\resources\pirateflag.jpg,,,1,,,,,,,,,1,,,,,,,,,None,448.3084366800002,None,448.3084366800002,None,,,,,,,443.3754411,446.1257420000002,445.8586226000002,None,0.062313265890249395,446.35860589999993,None,446.35860589999993,None,447.20852220000006,None,447.20852220000006,None,left,0.7082381000000169,447.20852220000006,None,447.9918157000002,None,right,0.29300270000021555,447.9918157000002,None,447.9918157000002,None,-7.924516660770395,150.2938694910206,,1,001,2021_Apr_07_1316,AB_pic_singleT2,2021.1.2,59.9897657460564,
AB,lag7,7,5,12,0.06000000005000003,0.02,0.3,main,,,,,0,51,51,51,,,,,,,moon.jpg,horse.jpg,anchor.jpg,exitsign.jpg,callbell.jpg,donut.jpg,zebra.jpg,recyclingbin.jpg,elbow.jpg,giraffe.jpg,fridge.jpg,lighthouse.jpg,waterfall.jpg,sword01.jpg,lion.jpg,sausage.jpg,acousticguitar02.jpg,,,,,1,0,14,,,,,.\resources\lighthouse.jpg,,,1,,,,,,,,,1,,,,,,,,,None,453.47473647999993,None,453.47473647999993,None,,,,,,,448.3251095999999,451.0749111,450.8082876000003,None,0.06195070400024911,451.3250923999999,None,451.3250923999999,None,452.5581379,None,452.5581379,None,left,0.622697700000117,452.5581379,None,453.2747499000002,None,right,0.15420300000005227,453.2747499000002,None,453.2747499000002,None,-7.870382715931997,150.29659390218427,,1,001,2021_Apr_07_1316,AB_pic_singleT2,2021.1.2,59.9897657460564,
AB,lag1,1,5,6,0.06000000005000003,0.02,0.3,main,,,,,0,52,52,52,,,,,,,soccerball.jpg,penguin.jpg,mouse.jpg,microwave.jpg,kangaroo.jpg,ceilingfan01.jpg,footballhelmet.jpg,cigar.jpg,bull.jpg,tie02.jpg,athleticsock.jpg,funnel.jpg,wallclock.jpg,trumpet.jpg,dormer.jpg,rubikcube.jpg,kneepad01c.jpg,,,,,0,0,8,,,,,.\resources\ceilingfan01.jpg,,,1,,,,,,,,,1,,,,,,,,,None,458.69102267999995,None,458.69102267999995,None,,,,,,,453.4913994000003,456.2412079999999,455.9745603000001,None,0.06158940024333684,456.49138200000016,None,456.49138200000016,None,457.2411396000002,None,457.2411396000002,None,right,1.0916754999998375,457.2411396000002,None,458.4077156000003,None,right,0.253114000000096,458.4077156000003,None,458.4077156000003,None,-7.816397772907188,150.2988729739106,,1,001,2021_Apr_07_1316,AB_pic_singleT2,2021.1.2,59.9897657460564,
AB,lag4,4,4,8,0.06000000005000003,0.02,0.3,main,,,,,0,53,53,53,,,,,,,cow.jpg,englishcucumber.jpg,dromedary.jpg,trampoline.jpg,boat.jpg,panda.jpg,ladybug03.jpg,callbell.jpg,sheep.jpg,cheetah.jpg,calendar.jpg,parkfountain.jpg,ladder.jpg,pumpkin.jpg,duck01.jpg,eiffeltower.jpg,wheelchair.jpg,,,,,0,1,10,,,,,.\resources\callbell.jpg,,,1,,,,,,,,,1,,,,,,,,,None,463.7739981799999,None,463.7739981799999,None,,,,,,,458.70770010000024,461.4575444000002,461.1741909000002,None,0.06122928237542083,461.6741502,None,461.6741502,None,462.59075440000015,None,462.59075440000015,None,right,0.6300200999999106,462.59075440000015,None,463.30737369999997,None,left,0.44137240000009115,463.30737369999997,None,463.30737369999997,None,-7.762553141318166,150.30071060656797,,1,001,2021_Apr_07_1316,AB_pic_singleT2,2021.1.2,59.9897657460564,
AB,lag6,6,5,11,0.06000000005000003,0.02,0.3,main,,,,,0,54,54,54,,,,,,,lip.jpg,triangle.jpg,kiwi03.jpg,seagull.jpg,leafblower01.jpg,honeybee.jpg,calendar.jpg,cheetah.jpg,icecube02.jpg,apron.jpg,lion.jpg,boxingglove01.jpg,doghouse.jpg,mrpotatohead.jpg,daddylonglegs.jpg,tree.jpg,tie02.jpg,,,,,0,0,13,,,,,.\resources\lion.jpg,,,1,,,,,,,,,1,,,,,,,,,None,468.62367097999993,None,468.62367097999993,None,,,,,,,463.7906659,466.5404711000001,466.2572033000001,None,0.06087028774192809,466.7571274000002,None,466.7571274000002,None,467.9237006000003,None,467.9237006000003,None,right,0.4810981000000538,467.9237006000003,None,468.47366090000014,None,right,0.13108439999996335,468.47366090000014,None,468.47366090000014,None,-7.708841486647837,150.30211142576948,,1,001,2021_Apr_07_1316,AB_pic_singleT2,2021.1.2,59.9897657460564,
AB,lag2,2,4,6,0.06000000005000003,0.02,0.3,main,,,,,0,55,55,55,,,,,,,car.jpg,spear02.jpg,crab01.jpg,hockeypuck.jpg,nose.jpg,eyepatch.jpg,pingpongtable.jpg,seagull.jpg,schoolbus.jpg,bull.jpg,shovel01.jpg,tie02.jpg,badmintonracket.jpg,greatwhiteshark.jpg,accordion01.jpg,snowshoe.jpg,lollipop04.jpg,,,,,0,0,8,,,,,.\resources\eyepatch.jpg,,,1,,,,,,,,,1,,,,,,,,,None,472.9566776800001,None,472.9566776800001,None,,,,,,,468.6403223000002,471.39012630000025,471.1234864000003,None,0.06051236247775262,471.64010929999995,None,471.64010929999995,None,472.37339120000024,None,472.37339120000024,None,right,0.36742770000000746,472.37339120000024,None,472.82335379999995,None,right,0.1174724000002243,472.82335379999995,None,472.82335379999995,None,-7.655256718263809,150.3030807074345,,1,001,2021_Apr_07_1316,AB_pic_singleT2,2021.1.2,59.9897657460564,
AB,lag5,5,4,9,0.06000000005000003,0.02,0.3,main,,,,,0,56,56,56,,,,,,,licenseplate.jpg,duck01.jpg,vulture.jpg,bathtub.jpg,foosballtable.jpg,lightswitch01.jpg,golfball.jpg,lawnmower.jpg,shower.jpg,chainsaw.jpg,fingerprint.jpg,worldmap.jpg,trumpet.jpg,windshieldwiper02.jpg,kiwi03.jpg,fishskeleton.jpg,jackrabbit.jpg,,,,,1,0,11,,,,,.\resources\shower.jpg,,,1,,,,,,,,,1,,,,,,,,,None,477.9896237800002,None,477.9896237800002,None,,,,,,,472.9733418999999,475.72317650000014,475.4398325000002,None,0.06015546079845903,475.95646380000017,None,475.95646380000017,None,476.92306340000005,None,476.92306340000005,None,left,0.8337440999998762,476.92306340000005,None,477.83964060000017,None,right,0.13311279999970793,477.83964060000017,None,477.83964060000017,None,-7.601793890065314,150.3036243111794,,1,001,2021_Apr_07_1316,AB_pic_singleT2,2021.1.2,59.9897657460564,
AB,lag2,2,3,5,0.06000000005000003,0.02,0.3,main,,,,,0,57,57,57,,,,,,,bow.jpg,xylophone.jpg,firehydrant.jpg,telescope.jpg,tarantula.jpg,bumpercar.jpg,bluejay.jpg,accordion01.jpg,cross01.jpg,pooltable.jpg,slug.jpg,spiderweb.jpg,fingerprint.jpg,leafrake.jpg,pirateflag.jpg,toolbox02.jpg,microwave.jpg,,,,,0,1,7,,,,,.\resources\tarantula.jpg,,,1,,,,,,,,,1,,,,,,,,,None,482.73929558,None,482.73929558,None,,,,,,,478.00629630000003,480.7564927000003,480.4898490999999,None,0.059799544371443886,480.9894208999999,None,480.9894208999999,None,481.6560271000003,None,481.6560271000003,None,right,0.8049058999999943,481.6560271000003,None,482.5393032000002,None,left,0.16953979999971125,482.5393032000002,None,482.5393032000002,None,-7.548449112238235,150.3037486210829,,1,001,2021_Apr_07_1316,AB_pic_singleT2,2021.1.2,59.9897657460564,
AB,lag6,6,5,11,0.06000000005000003,0.02,0.3,main,,,,,0,58,58,58,,,,,,,badmintonracket.jpg,jeans01.jpg,hockeystick.jpg,cigar.jpg,ipad02.jpg,athleticsock.jpg,foosballtable.jpg,lion.jpg,pooltable.jpg,safe.jpg,ladder.jpg,acorn.jpg,dolphin01.jpg,grizzly.jpg,eye.jpg,bull.jpg,porcupine.jpg,,,,,0,0,13,,,,,.\resources\ladder.jpg,,,1,,,,,,,,,1,,,,,,,,,space,487.4891451000003,None,487.4891451000003,None,,,,,,,482.7559652,485.5061703000001,485.2395037000001,None,0.05944458175745632,485.7561381999999,None,485.7561381999999,None,486.87234149999995,None,486.87234149999995,None,right,0.3644091999999546,486.87234149999995,None,487.3222942000002,None,right,0.11446049999995012,487.3222942000002,None,487.3222942000002,None,-7.495219472821777,150.3034604930029,11.915597400000024,1,001,2021_Apr_07_1316,AB_pic_singleT2,2021.1.2,59.9897657460564,
AB,lag7,7,4,11,0.06000000005000003,0.02,0.3,main,,,,,0,59,59,59,,,,,,,platypus.jpg,fortunecookie.jpg,football.jpg,trampoline.jpg,licenseplate.jpg,pumpkin.jpg,smokingpipe.jpg,duck01.jpg,fridge.jpg,panda.jpg,steeringwheel.jpg,mouse.jpg,turnstile.jpg,knee.jpg,barrel01.jpg,soccerball.jpg,leafrake.jpg,,,,,1,0,13,,,,,.\resources\steeringwheel.jpg,,,1,,,,,,,,,1,,,,,,,,,None,504.65445897999996,None,504.65445897999996,None,,,,,,,499.4386139000003,502.1879798,501.92130350000025,None,0.059090547914265296,502.42126020000023,None,502.42126020000023,None,503.5545222999999,None,503.5545222999999,None,left,0.8822316000000683,503.5545222999999,None,504.5044542999999,None,right,0.13227450000022145,504.5044542999999,None,504.5044542999999,None,-7.442102967969822,150.30276720773026,,1,001,2021_Apr_07_1316,AB_pic_singleT2,2021.1.2,59.9897657460564,
AB,lag5,5,3,8,0.06000000005000003,0.02,0.3,main,,,,,0,60,60,60,,,,,,,calendar.jpg,toolbox02.jpg,totempole.jpg,ceilingfan01.jpg,christmastree.jpg,lollipop04.jpg,handcuffs.jpg,recyclingbin.jpg,chefshat.jpg,ostrich.jpg,turnstile.jpg,boat.jpg,helicopter.jpg,stubbywrench01a.jpg,crab01.jpg,bowtie.jpg,penguin.jpg,,,,,0,0,10,,,,,.\resources\recyclingbin.jpg,,,1,,,,,,,,,1,,,,,,,,,None,509.20457978,None,509.20457978,None,,,,,,,504.6711075000003,507.42090740000003,507.1542654,None,0.05873742375540014,507.67090050000024,None,507.67090050000024,None,508.55416430000014,None,508.55416430000014,None,right,0.410653800000091,508.55416430000014,None,509.0379091,None,right,0.14289919999964695,509.0379091,None,509.0379091,None,-7.389098439936255,150.30167642933816,,1,001,2021_Apr_07_1316,AB_pic_singleT2,2021.1.2,59.9897657460564,
AB,lag3,3,5,8,0.06000000005000003,0.02,0.3,main,,,,,0,61,61,61,,,,,,,saltshaker03a.jpg,ducttape.jpg,hand01b.jpg,bluecheese.jpg,bowlingpin.jpg,cigar.jpg,rose.jpg,pig.jpg,greathornowl.jpg,calendar.jpg,parrot01.jpg,firehydrant.jpg,licenseplate.jpg,tricycle.jpg,pigeon.jpg,toucan.jpg,porcupine.jpg,,,,,0,0,10,,,,,.\resources\pig.jpg,,,1,,,,,,,,,1,,,,,,,,,None,513.6704619800001,None,513.6704619800001,None,,,,,,,509.2212307,511.9705876000003,511.70393839999997,None,0.058385195757824776,512.2205739000001,None,512.2205739000001,None,513.0871682000002,None,513.0871682000002,None,right,0.3576054000000113,513.0871682000002,None,513.5371350999999,None,right,0.10759409999991476,513.5371350999999,None,513.5371350999999,None,-7.3362055219362725,150.30019616818973,,1,001,2021_Apr_07_1316,AB_pic_singleT2,2021.1.2,59.9897657460564,
AB,lag4,4,5,9,0.06000000005000003,0.02,0.3,main,,,,,0,62,62,62,,,,,,,trophy01.jpg,handcuffs.jpg,fishingrod.jpg,donut.jpg,safe.jpg,escalator.jpg,bacon.jpg,cloud.jpg,key07.jpg,nose.jpg,lollipop04.jpg,holdfast.jpg,eyepatch.jpg,parkingmeter.jpg,doghouse.jpg,whiteout.jpg,uprightpiano01.jpg,,,,,0,0,11,,,,,.\resources\key07.jpg,,,1,,,,,,,,,1,,,,,,,,,None,518.20344668,None,518.20344668,None,,,,,,,513.6871409,516.4369618999999,516.1702866999999,None,0.05803385561317208,516.6702449,None,516.6702449,None,517.636821,None,517.636821,None,right,0.3520564000000377,517.636821,None,518.1034758999999,None,right,0.06940489999988131,518.1034758999999,None,518.1034758999999,None,-7.283424589135071,150.2983347481057,,1,001,2021_Apr_07_1316,AB_pic_singleT2,2021.1.2,59.9897657460564,
AB,lag1,1,3,4,0.06000000005000003,0.02,0.3,main,,,,,0,63,63,63,,,,,,,cat.jpg,golfball.jpg,worldmap.jpg,stubbywrench01a.jpg,pig.jpg,apron.jpg,snowshovel.jpg,snowman.jpg,snowboard.jpg,spear02.jpg,hand01b.jpg,waterfountain02.jpg,swing.jpg,lawnmower.jpg,wallclock.jpg,tank.jpg,sheep.jpg,,,,,1,0,6,,,,,.\resources\stubbywrench01a.jpg,,,1,,,,,,,,,1,,,,,,,,,None,522.8364229800003,None,522.8364229800003,None,,,,,,,518.2201092,520.9699177000002,520.6866075000003,None,0.05768339991780402,521.1865714,None,521.1865714,None,521.7531927,None,521.7531927,None,left,0.7475953999996818,521.7531927,None,522.5697961000001,None,right,0.25114250000024185,522.5697961000001,None,522.5697961000001,None,-7.230756715098445,150.29610077726485,,1,001,2021_Apr_07_1316,AB_pic_singleT2,2021.1.2,59.9897657460564,
AB,lag5,5,4,9,0.06000000005000003,0.02,0.3,main,,,,,0,64,64,64,,,,,,,barrel01.jpg,cloud.jpg,kite.jpg,sheep.jpg,birdnest.jpg,greatwhiteshark.jpg,ladybug03.jpg,rooster.jpg,ducttape.jpg,jellyfish.jpg,smokingpipe.jpg,africanelephant.jpg,squirrel.jpg,bowtie.jpg,toolbox02.jpg,dreamcatcher.jpg,fishingrod.jpg,,,,,1,0,11,,,,,.\resources\ducttape.jpg,,,1,,,,,,,,,1,,,,,,,,,None,527.86987158,None,527.86987158,None,,,,,,,522.8535302999999,525.6029469,525.3362721000003,None,0.0573338298974808,525.8362384000002,None,525.8362384000002,None,526.7863682000002,None,526.7863682000002,None,left,0.7944410999998581,526.7863682000002,None,527.6694437000001,None,right,0.17531640000015614,527.6694437000001,None,527.6694437000001,None,-7.178203633109609,150.29350312245117,,1,001,2021_Apr_07_1316,AB_pic_singleT2,2021.1.2,59.9897657460564,
AB,lag4,4,3,7,0.06000000005000003,0.02,0.3,main,,,,,0,65,65,65,,,,,,,discoball.jpg,spiderweb.jpg,rubikcube.jpg,bench01.jpg,elbow.jpg,football.jpg,apron.jpg,bowtie.jpg,drumstick.jpg,church.jpg,windmill.jpg,butterfly.jpg,footballhelmet.jpg,tarantula.jpg,beerbottle.jpg,birdhouse.jpg,trampoline.jpg,,,,,0,1,9,,,,,.\resources\apron.jpg,,,1,,,,,,,,,1,,,,,,,,,None,532.7190810800001,None,532.7190810800001,None,,,,,,,527.8865111,530.6358966000003,530.3692461,None,0.05698515116286564,530.8858740000001,None,530.8858740000001,None,531.6691592000002,None,531.6691592000002,None,right,0.7756399999998393,531.6691592000002,None,532.5524306000002,None,left,0.14039279999997234,532.5524306000002,None,532.5524306000002,None,-7.12576770181117,150.2905508862996,,1,001,2021_Apr_07_1316,AB_pic_singleT2,2021.1.2,59.9897657460564,
AB,lag7,7,3,10,0.06000000005000003,0.02,0.3,main,,,,,0,66,66,66,,,,,,,arrow02.jpg,safe.jpg,ant.jpg,ladder.jpg,apron.jpg,armadillo.jpg,hulahoop.jpg,cactus.jpg,table01.jpg,frenchfries.jpg,daddylonglegs.jpg,surfboard.jpg,skateboard.jpg,kite.jpg,church.jpg,dreamcatcher.jpg,frisbee.jpg,,,,,0,0,12,,,,,.\resources\frenchfries.jpg,,,1,,,,,,,,,1,,,,,,,,,None,537.3687502800002,None,537.3687502800002,None,,,,,,,532.7357686,535.4855418000002,535.2188991000003,None,0.05663737349243434,535.7188679999999,None,535.7188679999999,None,536.735463,None,536.735463,None,right,0.38131460000022344,536.735463,None,537.1854394000002,None,right,0.1395198000000164,537.1854394000002,None,537.1854394000002,None,-7.07345187468197,150.2872533872419,,1,001,2021_Apr_07_1316,AB_pic_singleT2,2021.1.2,59.9897657460564,
AB,lag2,2,3,5,0.06000000005000003,0.02,0.3,main,,,,,0,67,67,67,,,,,,,dreamcatcher.jpg,kneepad01c.jpg,lawnmower.jpg,bullet.jpg,leafblower01.jpg,cigar.jpg,scorpion.jpg,schoolbus.jpg,bat.jpg,ladybug03.jpg,fireplace.jpg,jeans01.jpg,sandcastle.jpg,horse.jpg,skippingrope.jpg,pig.jpg,moon.jpg,,,,,1,0,7,,,,,.\resources\leafblower01.jpg,,,1,,,,,,,,,1,,,,,,,,,None,542.1684238800002,None,542.1684238800002,None,,,,,,,537.3854366,540.1352391,539.8685888,None,0.056290510639673594,540.3852198,None,540.3852198,None,541.0018503000001,None,541.0018503000001,None,left,0.9469687999999223,541.0018503000001,None,542.0351209,None,right,0.11362710000003062,542.0351209,None,542.0351209,None,-7.021259672894853,150.2836201418593,,1,001,2021_Apr_07_1316,AB_pic_singleT2,2021.1.2,59.9897657460564,
AB,lag6,6,4,10,0.06000000005000003,0.02,0.3,main,,,,,0,68,68,68,,,,,,,knee.jpg,skippingrope.jpg,daddylonglegs.jpg,honeybee.jpg,funnel.jpg,lollipop04.jpg,squid.jpg,foldingchair.jpg,pigeon.jpg,rubikcube.jpg,bowlingball.jpg,hammerheadshark.jpg,eiffeltower.jpg,hockeypuck.jpg,panda.jpg,uprightpiano01.jpg,escalator.jpg,,,,,0,0,12,,,,,.\resources\rubikcube.jpg,,,1,,,,,,,,,1,,,,,,,,,None,546.8347406800002,None,546.8347406800002,None,,,,,,,542.1850950000003,544.9348958,544.6515878999999,None,0.05594458016168685,545.1515536000002,None,545.1515536000002,None,546.1681418000003,None,546.1681418000003,None,right,0.4366698999997425,546.1681418000003,None,546.6847796000002,None,right,0.11205259999996997,546.6847796000002,None,546.6847796000002,None,-6.969195161135763,150.27966084939482,,1,001,2021_Apr_07_1316,AB_pic_singleT2,2021.1.2,59.9897657460564,
AB,lag1,1,4,5,0.06000000005000003,0.02,0.3,main,,,,,0,69,69,69,,,,,,,sandcastle.jpg,bowtie.jpg,bowlingpin.jpg,holdfast.jpg,seagull.jpg,windshieldwiper02.jpg,drumstick.jpg,church.jpg,chefshat.jpg,trophy01.jpg,wallclock.jpg,scooter.jpg,soccerball.jpg,moose.jpg,well.jpg,crab01.jpg,nose.jpg,,,,,0,0,7,,,,,.\resources\seagull.jpg,,,1,,,,,,,,,1,,,,,,,,,None,551.13444548,None,551.13444548,None,,,,,,,546.8514410000002,549.6012234,549.3179441000002,None,0.05559960326653414,549.8345503999999,None,549.8345503999999,None,550.4511710000002,None,550.4511710000002,None,right,0.4655951999998251,550.4511710000002,None,550.9844739,None,right,0.1322466000001441,550.9844739,None,550.9844739,None,-6.917262925991357,150.27538537819694,,1,001,2021_Apr_07_1316,AB_pic_singleT2,2021.1.2,59.9897657460564,
AB,lag3,3,5,8,0.06000000005000003,0.02,0.3,main,,,,,0,70,70,70,,,,,,,porcupine.jpg,dalmatian.jpg,steeringwheel.jpg,christmaslights.jpg,funnel.jpg,africanelephant.jpg,basketball01.jpg,parrot01.jpg,zebra.jpg,tie02.jpg,parkfountain.jpg,totempole.jpg,coffeemaker.jpg,wheelchair.jpg,uprightpiano01.jpg,vulture.jpg,candycane01a.jpg,,,,,0,0,10,,,,,.\resources\parrot01.jpg,,,1,,,,,,,,,1,,,,,,,,,None,556.1012230800001,None,556.1012230800001,None,,,,,,,551.1511252999999,553.9009215000001,553.6176101000001,None,0.055255604676798846,554.1342420999999,None,554.1342420999999,None,554.9675189,None,554.9675189,None,right,0.9172956000002159,554.9675189,None,555.984551,None,right,0.10029729999996562,555.984551,None,555.984551,None,-6.865468056535387,150.2708037538773,,1,001,2021_Apr_07_1316,AB_pic_singleT2,2021.1.2,59.9897657460564,
AB,lag4,4,3,7,0.06000000005000003,0.02,0.3,main,,,,,0,71,71,71,,,,,,,boat.jpg,xylophone.jpg,duck01.jpg,hotdogweiner.jpg,tire.jpg,bridge.jpg,basketball01.jpg,platypus.jpg,chimney.jpg,car.jpg,bowlingball.jpg,trophy01.jpg,bow.jpg,harmonica.jpg,moose.jpg,steeringwheel.jpg,bumpercar.jpg,,,,,0,0,9,,,,,.\resources\basketball01.jpg,,,1,,,,,,,,,1,,,,,,,,,None,561.18374458,None,561.18374458,None,,,,,,,556.1178908000002,558.8672289000001,558.6005894,None,0.05491261250702111,559.1005468000003,None,559.1005468000003,None,559.8838242000002,None,559.8838242000002,None,right,1.0409571999998661,559.8838242000002,None,561.0170815000001,None,right,0.12388400000008915,561.0170815000001,None,561.0170815000001,None,-6.813816126762223,150.26592614898456,,1,001,2021_Apr_07_1316,AB_pic_singleT2,2021.1.2,59.9897657460564,
AB,lag1,1,3,4,0.06000000005000003,0.02,0.3,main,,,,,0,72,72,72,,,,,,,knee.jpg,totempole.jpg,squirrel.jpg,ladybug03.jpg,nosmokingsign.jpg,birdhouse.jpg,bridge.jpg,frenchfries.jpg,snowshovel.jpg,frisbee.jpg,cheetah.jpg,triangle.jpg,steeringwheel.jpg,cloud.jpg,electricguitar01.jpg,slug.jpg,greywolf.jpg,,,,,0,0,6,,,,,.\resources\ladybug03.jpg,,,1,,,,,,,,,1,,,,,,,,,None,565.8000716800001,None,565.8000716800001,None,,,,,,,561.2004265,563.9502053000001,563.6835787,None,0.05457065815274667,564.2001906,None,564.2001906,None,564.7334877000003,None,564.7334877000003,None,right,0.639272500000061,564.7334877000003,None,565.4667672999999,None,right,0.3059769999999844,565.4667672999999,None,565.4667672999999,None,-6.762313179533144,150.26076287402773,,1,001,2021_Apr_07_1316,AB_pic_singleT2,2021.1.2,59.9897657460564,
AB,lag2,2,3,5,0.06000000005000003,0.02,0.3,main,,,,,0,73,73,73,,,,,,,soccerball.jpg,whiteout.jpg,ironingboard01.jpg,chefshat.jpg,tortoise01.jpg,eyepatch.jpg,punchingbag.jpg,locker.jpg,badmintonracket.jpg,musicsheet.jpg,birthdaycandle.jpg,trampoline.jpg,floorlamp.jpg,cruiseship.jpg,bed.jpg,turnstile.jpg,dreamcatcher.jpg,,,,,0,1,7,,,,,.\resources\tortoise01.jpg,,,1,,,,,,,,,1,,,,,,,,,None,570.5003810800002,None,570.5003810800002,None,,,,,,,565.8167503,568.5665389999999,568.2998958000003,None,0.05422977618904066,568.8165237000003,None,568.8165237000003,None,569.4164793,None,569.4164793,None,right,0.7884038000001965,569.4164793,None,570.3001963000002,None,left,0.17660559999967518,570.3001963000002,None,570.3001963000002,None,-6.710965711713364,150.25532436965463,,1,001,2021_Apr_07_1316,AB_pic_singleT2,2021.1.2,59.9897657460564,
AB,lag5,5,5,10,0.06000000005000003,0.02,0.3,main,,,,,0,74,74,74,,,,,,,statue.jpg,tiger02.jpg,birdhouse.jpg,coffeemaker.jpg,bumpercar.jpg,fishingrod.jpg,toolbox02.jpg,vacuumcleaner01.jpg,dolphin01.jpg,scooter.jpg,cruiseship.jpg,recyclingbin.jpg,tulip02.jpg,moon.jpg,beerbottle.jpg,cashregister01.jpg,daddylonglegs.jpg,,,,,0,0,12,,,,,.\resources\scooter.jpg,,,1,,,,,,,,,1,,,,,,,,,None,575.1160716799999,None,575.1160716799999,None,,,,,,,570.5168484000001,573.2662018999999,572.9995578000003,None,0.05389000427640464,573.4995232000001,None,573.4995232000001,None,574.4827855000003,None,574.4827855000003,None,right,0.42602339999984906,574.4827855000003,None,574.9994132000002,None,right,0.09331770000017059,574.9994132000002,None,574.9994132000002,None,-6.659780660191048,150.24962119985966,,1,001,2021_Apr_07_1316,AB_pic_singleT2,2021.1.2,59.9897657460564,
AB,lag6,6,4,10,0.06000000005000003,0.02,0.3,main,,,,,0,75,75,75,,,,,,,tricycle.jpg,porcupine.jpg,nosmokingsign.jpg,lollipop04.jpg,parkingmeter.jpg,jeep.jpg,rooster.jpg,peacock.jpg,greywolf.jpg,hand01b.jpg,ironingboard01.jpg,bluecheese.jpg,cow.jpg,eye.jpg,football.jpg,ostrich.jpg,saltshaker03a.jpg,,,,,0,1,12,,,,,.\resources\hand01b.jpg,,,0,,,,,,,,,0,,,,,,,,,None,580.6656737800002,None,580.6656737800002,None,,,,,,,575.1327724000002,577.8825841000003,577.6159016000001,None,0.05355138307209559,578.1158596,None,578.1158596,None,579.0991256000002,None,579.0991256000002,None,left,1.3616580000002614,579.0991256000002,None,580.5490196000001,None,right,0.09576520000018718,580.5490196000001,None,580.5490196000001,None,-6.804103789090266,150.23419608681056,,1,001,2021_Apr_07_1316,AB_pic_singleT2,2021.1.2,59.9897657460564,
AB,lag7,7,3,10,0.06000000005000003,0.02,0.3,main,,,,,0,76,76,76,,,,,,,chefshat.jpg,chimney.jpg,ear.jpg,ladder.jpg,popcorn.jpg,witchhat.jpg,giraffe.jpg,rooster.jpg,toad.jpg,pooltable.jpg,saxophone.jpg,parrot01.jpg,ipad02.jpg,triangle.jpg,arrow02.jpg,nose.jpg,car.jpg,,,,,1,0,12,,,,,.\resources\pooltable.jpg,,,1,,,,,,,,,1,,,,,,,,,None,585.84861618,None,585.84861618,None,,,,,,,580.6823484000001,583.4321448000001,583.1654991999999,None,0.054517535711226875,583.6655071,None,583.6655071,None,584.6653915000002,None,584.6653915000002,None,left,0.8835292000003392,584.6653915000002,None,585.6153036999999,None,right,0.20543020000013712,585.6153036999999,None,585.6153036999999,None,-6.792717730330529,150.22770406702358,,1,001,2021_Apr_07_1316,AB_pic_singleT2,2021.1.2,59.9897657460564,
AB,lag3,3,4,7,0.06000000005000003,0.02,0.3,main,,,,,0,77,77,77,,,,,,,daddylonglegs.jpg,beerbottle.jpg,christmastree.jpg,dromedary.jpg,magneticcompass.jpg,jellybean.jpg,bluecheese.jpg,armadillo.jpg,trophy01.jpg,granolabar01.jpg,spear02.jpg,hockeystick.jpg,seal.jpg,scorpion.jpg,dolphin01.jpg,bull.jpg,sink.jpg,,,,,0,0,9,,,,,.\resources\bluecheese.jpg,,,1,,,,,,,,,1,,,,,,,,,None,590.2149919800003,None,590.2149919800003,None,,,,,,,585.865276,588.6151101,588.3318021,None,0.05444409965688739,588.8317652000001,None,588.8317652000001,None,589.5983742000003,None,589.5983742000003,None,right,0.3824370000002091,589.5983742000003,None,590.0650015000001,None,right,0.1317361000001256,590.0650015000001,None,590.0650015000001,None,-6.754983907406405,150.22256101669993,,1,001,2021_Apr_07_1316,AB_pic_singleT2,2021.1.2,59.9897657460564,
AB,lag4,4,4,8,0.06000000005000003,0.02,0.3,main,,,,,0,78,78,78,,,,,,,christmaslights.jpg,apron.jpg,skippingrope.jpg,brownsugar.jpg,musicsheet.jpg,golfball.jpg,tree.jpg,noparkingsign.jpg,dolphin01.jpg,vulture.jpg,tiger02.jpg,chimney.jpg,turnstile.jpg,fridge.jpg,scooter.jpg,mailbox02.jpg,coffeemaker.jpg,,,,,0,1,10,,,,,.\resources\noparkingsign.jpg,,,1,,,,,,,,,0,,,,,,,,,None,594.7146755800003,None,594.7146755800003,None,,,,,,,590.231687,592.9814601000003,592.7148133999999,None,0.05419477749165285,593.2314482000002,None,593.2314482000002,None,594.0647179000002,None,594.0647179000002,None,right,0.38004060000002937,594.0647179000002,None,594.5146817,None,right,0.15432629999986602,594.5146817,None,594.5146817,None,-6.713169860839533,150.21746673292526,,1,001,2021_Apr_07_1316,AB_pic_singleT2,2021.1.2,59.9897657460564,
AB,lag5,5,3,8,0.06000000005000003,0.02,0.3,main,,,,,0,79,79,79,,,,,,,vacuumcleaner01.jpg,guitarcase.jpg,spicerack.jpg,harmonica.jpg,cobra.jpg,moose.jpg,cruiseship.jpg,tulip02.jpg,chainsaw.jpg,hotdogweiner.jpg,cocktailshrimp02.jpg,kangaroo.jpg,butterfly.jpg,lip.jpg,stool01.jpg,horse.jpg,golfball.jpg,,,,,0,0,10,,,,,.\resources\tulip02.jpg,,,1,,,,,,,,,1,,,,,,,,,None,599.1809903800003,None,599.1809903800003,None,,,,,,,594.7313355000001,597.4811389000001,597.2144923000001,None,0.053918258629401784,597.7144579999999,None,597.7144579999999,None,598.5477423000002,None,598.5477423000002,None,right,0.37705800000003364,598.5477423000002,None,599.0143407,None,right,0.1344782999999552,599.0143407,None,599.0143407,None,-6.670834317842069,150.21221811794882,,1,001,2021_Apr_07_1316,AB_pic_singleT2,2021.1.2,59.9897657460564,
AB,lag6,6,3,9,0.06000000005000003,0.02,0.3,main,,,,,0,80,80,80,,,,,,,shovel01.jpg,surfboard.jpg,noparkingsign.jpg,tank.jpg,cloud.jpg,triangle.jpg,foldingchair.jpg,chainsaw.jpg,alligator.jpg,mailbox02.jpg,pingpongtable.jpg,squid.jpg,xylophone.jpg,pig.jpg,hockeypuck.jpg,motorcycle.jpg,ladybug03.jpg,,,,,1,0,11,,,,,.\resources\alligator.jpg,,,1,,,,,,,,,1,,,,,,,,,None,603.9639903800002,None,603.9639903800002,None,,,,,,,599.1976678999999,601.9474629000001,601.6808157999999,None,0.0536383043930247,602.180781,None,602.180781,None,603.0973853,None,603.0973853,None,left,0.6514893000003212,603.0973853,None,603.8139993,None,right,0.11081400000011854,603.8139993,None,603.8139993,None,-6.628546773864769,150.20678688043063,,1,001,2021_Apr_07_1316,AB_pic_singleT2,2021.1.2,59.9897657460564,
AB,lag3,3,5,8,0.06000000005000003,0.02,0.3,main,,,,,0,81,81,81,,,,,,,lollipop04.jpg,lion.jpg,spicerack.jpg,seal.jpg,skateboard.jpg,kite.jpg,sink.jpg,cannon.jpg,well.jpg,tiger02.jpg,beerbottle.jpg,granolabar01.jpg,seagull.jpg,tire.jpg,crosscountryski.jpg,moose.jpg,callbell.jpg,,,,,0,1,10,,,,,.\resources\cannon.jpg,,,0,,,,,,,,,1,,,,,,,,,None,608.98029338,None,608.98029338,None,,,,,,,603.9806798,606.7304557000002,606.4638063000002,None,0.05335871501841476,606.9637778000001,None,606.9637778000001,None,607.7970461,None,607.7970461,None,left,0.8957594999997127,607.7970461,None,608.7636725000002,None,left,0.20118520000005446,608.7636725000002,None,608.7636725000002,None,-6.755465437583356,150.1929684356156,,1,001,2021_Apr_07_1316,AB_pic_singleT2,2021.1.2,59.9897657460564,
AB,lag7,7,5,12,0.06000000005000003,0.02,0.3,main,,,,,0,82,82,82,,,,,,,bat.jpg,hockeypuck.jpg,crab01.jpg,pig.jpg,lip.jpg,xylophone.jpg,toad.jpg,birdnest.jpg,harmonica.jpg,chimney.jpg,wheelbarrow01.jpg,nosmokingsign.jpg,car.jpg,eyepatch.jpg,volleyball.jpg,marble.jpg,banjo.jpg,,,,,0,0,14,,,,,.\resources\nosmokingsign.jpg,,,1,,,,,,,,,1,,,,,,,,,None,613.71326618,None,613.71326618,None,,,,,,,608.9969654000001,611.7467695999999,611.4634811999999,None,0.05420866158719966,611.9800817,None,611.9800817,None,613.0966712,None,613.0966712,None,right,0.35614669999995385,613.0966712,None,613.5299769000003,None,right,0.16279340000028242,613.5299769000003,None,613.5299769000003,None,-6.7420837866735415,150.18709459176256,,1,001,2021_Apr_07_1316,AB_pic_singleT2,2021.1.2,59.9897657460564,
AB,lag1,1,3,4,0.06000000005000003,0.02,0.3,main,,,,,0,83,83,83,,,,,,,candycane01a.jpg,accordion01.jpg,worldmap.jpg,toolbox02.jpg,lightswitch01.jpg,christmastree.jpg,pooltable.jpg,foot.jpg,makiroll.jpg,toad.jpg,hockeystick.jpg,pingpongtable.jpg,coffeemaker.jpg,acousticguitar02.jpg,rubikcube.jpg,airhockeytable.jpg,dreamcatcher.jpg,,,,,0,0,6,,,,,.\resources\toolbox02.jpg,,,1,,,,,,,,,0,,,,,,,,,None,618.47958818,None,618.47958818,None,,,,,,,613.7299324,616.4801388999999,616.2135099000002,None,0.0541216818255119,616.7301517000001,None,616.7301517000001,None,617.2630119999999,None,617.2630119999999,None,right,0.9016990999998598,617.2630119999999,None,618.2462740000001,None,left,0.2065176999999494,618.2462740000001,None,618.2462740000001,None,-6.708801889308814,150.182228797447,,1,001,2021_Apr_07_1316,AB_pic_singleT2,2021.1.2,59.9897657460564,
AB,lag2,2,3,5,0.06000000005000003,0.02,0.3,main,,,,,0,84,84,84,,,,,,,fireplace.jpg,dolphin01.jpg,corn02.jpg,christmastree.jpg,musicsheet.jpg,popcorn.jpg,parkfountain.jpg,panda.jpg,squirrel.jpg,cruiseship.jpg,fridge.jpg,slug.jpg,eye.jpg,key07.jpg,whiteout.jpg,bullet.jpg,hotdogweiner.jpg,,,,,0,0,7,,,,,.\resources\musicsheet.jpg,,,1,,,,,,,,,1,,,,,,,,,None,622.69594748,None,622.69594748,None,,,,,,,618.4962549000002,621.2464592000001,620.9798171000002,None,0.05390182523756976,621.4964435000002,None,621.4964435000002,None,622.0959983000002,None,622.0959983000002,None,right,0.3647906999999577,622.0959983000002,None,622.5292946,None,right,0.14749600000004648,622.5292946,None,622.5292946,None,-6.672938940412268,150.1773752089396,,1,001,2021_Apr_07_1316,AB_pic_singleT2,2021.1.2,59.9897657460564,
AB,lag1,1,4,5,0.06000000005000003,0.02,0.3,main,,,,,0,85,85,85,,,,,,,snowshoe.jpg,skippingrope.jpg,panda.jpg,badmintonracket.jpg,mattress.jpg,banjo.jpg,christmaslights.jpg,beerbottle.jpg,frisbee.jpg,locker.jpg,horse.jpg,boat.jpg,greatwhiteshark.jpg,turnstile.jpg,lion.jpg,nunchuk.jpg,skunk.jpg,,,,,1,1,7,,,,,.\resources\mattress.jpg,,,1,,,,,,,,,1,,,,,,,,,None,627.5789447800001,None,627.5789447800001,None,,,,,,,622.7126277000002,625.4628695000001,625.1961746000002,None,0.05366476335279841,625.6957449000001,None,625.6957449000001,None,626.3123624,None,626.3123624,None,left,0.7964198999998189,626.3123624,None,627.1789963000001,None,left,0.3698540000000321,627.1789963000001,None,627.1789963000001,None,-6.636843773982341,150.17240048034816,,1,001,2021_Apr_07_1316,AB_pic_singleT2,2021.1.2,59.9897657460564,
AB,lag5,5,4,9,0.06000000005000003,0.02,0.3,main,,,,,0,86,86,86,,,,,,,lion.jpg,stubbywrench01a.jpg,lip.jpg,electrictoothbrush01c.jpg,lollipop04.jpg,christmastree.jpg,horseshoe.jpg,cross01.jpg,licenseplate.jpg,nosmokingsign.jpg,saltshaker03a.jpg,whiteout.jpg,bowlingpin.jpg,frisbee.jpg,triangle.jpg,jeans01.jpg,wheelchair.jpg,,,,,0,0,11,,,,,.\resources\licenseplate.jpg,,,1,,,,,,,,,1,,,,,,,,,None,632.0286290800003,None,632.0286290800003,None,,,,,,,627.5956329,630.3454105000001,630.0787559,None,0.0534261829033768,630.5787251000002,None,630.5787251000002,None,631.4953246,None,631.4953246,None,right,0.29347020000022894,631.4953246,None,631.8619931000003,None,right,0.1427531999997882,631.8619931000003,None,631.8619931000003,None,-6.600835150246257,150.16728807864777,,1,001,2021_Apr_07_1316,AB_pic_singleT2,2021.1.2,59.9897657460564,
AB,lag7,7,4,11,0.06000000005000003,0.02,0.3,main,,,,,0,87,87,87,,,,,,,dartboard.jpg,licenseplate.jpg,saxophone.jpg,lip.jpg,musicsheet.jpg,humanskeleton.jpg,tire.jpg,tricycle.jpg,guitarcase.jpg,dragonfly01.jpg,cactus.jpg,masquerademask01.jpg,barrel01.jpg,tarantula.jpg,ceilingfan01.jpg,golfball.jpg,moon.jpg,,,,,0,0,13,,,,,.\resources\cactus.jpg,,,1,,,,,,,,,1,,,,,,,,,None,636.7783476799999,None,636.7783476799999,None,,,,,,,632.0453151000002,634.7955936000003,634.528937,None,0.05318821171747481,635.0451329000002,None,635.0451329000002,None,636.0783835000002,None,636.0783835000002,None,right,0.45443659999955344,636.0783835000002,None,636.6283524,None,right,0.11246989999972357,636.6283524,None,636.6283524,None,-6.564955678415603,150.1620375077186,,1,001,2021_Apr_07_1316,AB_pic_singleT2,2021.1.2,59.9897657460564,
AB,lag4,4,3,7,0.06000000005000003,0.02,0.3,main,,,,,0,88,88,88,,,,,,,swing.jpg,cactus.jpg,rubikcube.jpg,boat.jpg,guitarcase.jpg,windmill.jpg,leafblower01.jpg,baseballbat.jpg,key07.jpg,waterfall.jpg,tiger02.jpg,triangle.jpg,coffeemaker.jpg,jeans01.jpg,spear02.jpg,flag.jpg,mailbox02.jpg,,,,,0,1,9,,,,,.\resources\leafblower01.jpg,,,1,,,,,,,,,1,,,,,,,,,None,642.06164308,None,642.06164308,None,,,,,,,636.7950009000001,639.5448077000001,639.2781819000002,None,0.052951133132612065,639.7947890999999,None,639.7947890999999,None,640.5280448000003,None,640.5280448000003,None,right,1.2687699999996767,640.5280448000003,None,641.8783235000001,None,left,0.1504847000001064,641.8783235000001,None,641.8783235000001,None,-6.529210119355865,150.15665065535504,,1,001,2021_Apr_07_1316,AB_pic_singleT2,2021.1.2,59.9897657460564,
AB,lag6,6,4,10,0.06000000005000003,0.02,0.3,main,,,,,0,89,89,89,,,,,,,toad.jpg,hotdogweiner.jpg,fortunecookie.jpg,greywolf.jpg,bullet.jpg,boxingglove01.jpg,cloud.jpg,parrot01.jpg,worldmap.jpg,bridge.jpg,jellybean.jpg,dreamcatcher.jpg,moon.jpg,snowshoe.jpg,foosballtable.jpg,kneepad01c.jpg,cork02.jpg,,,,,0,0,12,,,,,.\resources\bridge.jpg,,,1,,,,,,,,,1,,,,,,,,,None,646.6942461800003,None,646.6942461800003,None,,,,,,,642.0783021000002,644.8281262,644.5447950000002,None,0.05271497763121866,645.0443631000003,None,645.0443631000003,None,646.0109545,None,646.0109545,None,right,0.4179709999998522,646.0109545,None,646.4942575,None,right,0.15860320000001593,646.4942575,None,646.4942575,None,-6.493598199606586,150.15112991275396,,1,001,2021_Apr_07_1316,AB_pic_singleT2,2021.1.2,59.9897657460564,
AB,lag3,3,3,6,0.06000000005000003,0.02,0.3,main,,,,,0,90,90,90,,,,,,,dalmatian.jpg,christmaslights.jpg,tulip02.jpg,bumpercar.jpg,toilet.jpg,giraffe.jpg,wheelbarrow01.jpg,moose.jpg,baseballbat.jpg,worldmap.jpg,drumstick.jpg,bat.jpg,sheep.jpg,snowshoe.jpg,greatwhiteshark.jpg,lawnmower.jpg,lizard.jpg,,,,,0,1,8,,,,,.\resources\giraffe.jpg,,,0,,,,,,,,,1,,,,,,,,,None,651.5105511800001,None,651.5105511800001,None,,,,,,,646.7109049999999,649.4611085000001,649.1944696999999,None,0.05247974201263172,649.6940319999999,None,649.6940319999999,None,650.3773177000003,None,650.3773177000003,None,left,0.715461900000264,650.3773177000003,None,651.1772523,None,left,0.3155005999997229,651.1772523,None,651.1772523,None,-6.604238586052363,150.13847640778627,,1,001,2021_Apr_07_1316,AB_pic_singleT2,2021.1.2,59.9897657460564,
AB,lag2,2,3,5,0.06000000005000003,0.02,0.3,main,,,,,0,91,91,91,,,,,,,curtain.jpg,rubikcube.jpg,cannon.jpg,tie02.jpg,beerbottle.jpg,crown.jpg,bridge.jpg,pumpkin.jpg,waterfountain02.jpg,birdnest.jpg,pokerchips.jpg,key07.jpg,ladybug03.jpg,dandelion.jpg,chainsaw.jpg,punchingbag.jpg,cashregister01.jpg,,,,,0,1,7,,,,,.\resources\beerbottle.jpg,,,1,,,,,,,,,1,,,,,,,,,None,656.3435643800002,None,656.3435643800002,None,,,,,,,651.5272364000002,654.2770361000003,654.0103868000001,None,0.053221087214641936,654.5270152000003,None,654.5270152000003,None,655.1269698000001,None,655.1269698000001,None,right,0.8859298000002127,655.1269698000001,None,656.1102352000003,None,left,0.21450899999990725,656.1102352000003,None,656.1102352000003,None,-6.590960545377766,150.13269184404305,,1,001,2021_Apr_07_1316,AB_pic_singleT2,2021.1.2,59.9897657460564,
AB,lag4,4,4,8,0.06000000005000003,0.02,0.3,main,,,,,0,92,92,92,,,,,,,tarantula.jpg,cruiseship.jpg,accordion01.jpg,ostrich.jpg,hand01b.jpg,magneticcompass.jpg,turnstile.jpg,frenchfries.jpg,dolphin01.jpg,coffeemaker.jpg,bridge.jpg,tennisracket.jpg,whiteout.jpg,foldingchair.jpg,motorcycle.jpg,trumpet.jpg,volleyball.jpg,,,,,1,0,10,,,,,.\resources\frenchfries.jpg,,,1,,,,,,,,,0,,,,,,,,,None,661.3598561800003,None,661.3598561800003,None,,,,,,,656.3602276000001,659.1104284000003,658.8437753000003,None,0.053134695771553754,659.3604356999999,None,659.3604356999999,None,660.1766166000002,None,660.1766166000002,None,left,0.9642039999998815,660.1766166000002,None,661.2098699000003,None,left,0.13089350000018385,661.2098699000003,None,661.2098699000003,None,-6.561841943193727,150.12770025449714,,1,001,2021_Apr_07_1316,AB_pic_singleT2,2021.1.2,59.9897657460564,
AB,lag7,7,4,11,0.06000000005000003,0.02,0.3,main,,,,,0,93,93,93,,,,,,,snowshovel.jpg,birdnest.jpg,schoolbus.jpg,nosmokingsign.jpg,holdfast.jpg,magneticcompass.jpg,cruiseship.jpg,shower.jpg,turnstile.jpg,flamingo.jpg,drumset.jpg,pingpongtable.jpg,birdhouse.jpg,pirateflag.jpg,lily.jpg,jellyfish.jpg,coffeemaker.jpg,,,,,0,0,13,,,,,.\resources\drumset.jpg,,,1,,,,,,,,,1,,,,,,,,,None,665.9762078800003,None,665.9762078800003,None,,,,,,,661.3765481,664.1267264000003,663.8434569000001,None,0.05294250355424017,664.3600724000003,None,664.3600724000003,None,665.3929114000002,None,665.3929114000002,None,right,0.3720134999998663,665.3929114000002,None,665.8595448000001,None,right,0.09717790000013338,665.8595448000001,None,665.8595448000001,None,-6.530869609644844,150.12271605303187,,1,001,2021_Apr_07_1316,AB_pic_singleT2,2021.1.2,59.9897657460564,
AB,lag1,1,5,6,0.06000000005000003,0.02,0.3,main,,,,,0,94,94,94,,,,,,,crab01.jpg,cork02.jpg,makiroll.jpg,jellybean.jpg,eiffeltower.jpg,scorpion.jpg,marble.jpg,firehydrant.jpg,swordfish.jpg,banjo.jpg,drumstick.jpg,bench01.jpg,vulture.jpg,dormer.jpg,skunk.jpg,toilet.jpg,parkfountain.jpg,,,,,0,1,8,,,,,.\resources\scorpion.jpg,,,1,,,,,,,,,1,,,,,,,,,None,670.8091772800002,None,670.8091772800002,None,,,,,,,665.9928817,668.7431255000001,668.4764175999999,None,0.05273794785306138,668.9759907000002,None,668.9759907000002,None,669.6592752000001,None,669.6592752000001,None,right,0.7615276999999878,669.6592752000001,None,670.5092276,None,left,0.27150209999990693,670.5092276,None,670.5092276,None,-6.499768313617818,150.11764302755512,,1,001,2021_Apr_07_1316,AB_pic_singleT2,2021.1.2,59.9897657460564,
AB,lag5,5,4,9,0.06000000005000003,0.02,0.3,main,,,,,0,95,95,95,,,,,,,zipper.jpg,snowshoe.jpg,noparkingsign.jpg,scorpion.jpg,brownsugar.jpg,vacuumcleaner01.jpg,bowlingpin.jpg,witchhat.jpg,cobra.jpg,dalmatian.jpg,cow.jpg,drumstick.jpg,lightswitch01.jpg,panda.jpg,crown.jpg,stubbywrench01a.jpg,shovel01.jpg,,,,,0,1,11,,,,,.\resources\cobra.jpg,,,1,,,,,,,,,1,,,,,,,,,None,676.0254759799999,None,676.0254759799999,None,,,,,,,670.8258620000001,673.5760525000001,673.3093907000002,None,0.052532550576284816,673.8089755999999,None,673.8089755999999,None,674.7088855000002,None,674.7088855000002,None,right,0.9520187000002807,674.7088855000002,None,675.7421649000003,None,left,0.2625882000002093,675.7421649000003,None,675.7421649000003,None,-6.468750867070156,150.11246992871307,,1,001,2021_Apr_07_1316,AB_pic_singleT2,2021.1.2,59.9897657460564,
AB,lag2,2,5,7,0.06000000005000003,0.02,0.3,main,,,,,0,96,96,96,,,,,,,jellyfish.jpg,hulahoop.jpg,smokingpipe.jpg,elbow.jpg,harmonica.jpg,butterfly.jpg,skippingrope.jpg,trumpet.jpg,banjo.jpg,greatwhiteshark.jpg,locker.jpg,marble.jpg,triangle.jpg,chefshat.jpg,dartboard.jpg,jeans01.jpg,soccerball.jpg,,,,,0,1,9,,,,,.\resources\skippingrope.jpg,,,1,,,,,,,,,0,,,,,,,,,None,680.6918226800002,None,680.6918226800002,None,,,,,,,676.0421541999999,678.792351,678.5257081,None,0.05232773287868976,679.0252700000001,None,679.0252700000001,None,679.7752128000002,None,679.7752128000002,None,right,0.5576037999999244,679.7752128000002,None,680.4251864000003,None,right,0.25174120000019684,680.4251864000003,None,680.4251864000003,None,-6.43784276201139,150.10719617829594,,1,001,2021_Apr_07_1316,AB_pic_singleT2,2021.1.2,59.9897657460564,
AB,lag6,6,3,9,0.06000000005000003,0.02,0.3,main,,,,,0,97,97,97,,,,,,,whiteout.jpg,polarbear.jpg,paperairplane.jpg,pig.jpg,sink.jpg,funnel.jpg,locker.jpg,cat.jpg,floorlamp.jpg,accordion01.jpg,jellyfish.jpg,lawnmower.jpg,parkfountain.jpg,snowman.jpg,foldingchair.jpg,bacon.jpg,urinal.jpg,,,,,0,1,11,,,,,.\resources\floorlamp.jpg,,,0,,,,,,,,,1,,,,,,,,,None,685.32484728,None,685.32484728,None,,,,,,,680.7084677000003,683.4587357999999,683.1754162000002,None,0.052123664436699246,683.6749628000002,None,683.6749628000002,None,684.5749002000002,None,684.5749002000002,None,left,0.49389860000019326,684.5749002000002,None,685.1415209000002,None,left,0.15125239999997575,685.1415209000002,None,685.1415209000002,None,-6.536900165054208,150.0956203038366,,1,001,2021_Apr_07_1316,AB_pic_singleT2,2021.1.2,59.9897657460564,
AB,lag3,3,3,6,0.06000000005000003,0.02,0.3,main,,,,,0,98,98,98,,,,,,,safe.jpg,knee.jpg,well.jpg,butterfly.jpg,microwave.jpg,cocktailshrimp02.jpg,swordfish.jpg,ladder.jpg,mailbox02.jpg,athleticsock.jpg,mummy.jpg,lizard.jpg,fortunecookie.jpg,daddylonglegs.jpg,footballhelmet.jpg,crown.jpg,granolabar01.jpg,,,,,0,0,8,,,,,.\resources\cocktailshrimp02.jpg,,,1,,,,,,,,,1,,,,,,,,,None,689.6412226800002,None,689.6412226800002,None,,,,,,,685.34152,688.0913368000001,687.8246991000001,None,0.052787646369263,688.3246564000001,None,688.3246564000001,None,689.0079453000003,None,689.0079453000003,None,right,0.4048297999997885,689.0079453000003,None,689.507901,None,right,0.11285050000014962,689.507901,None,689.507901,None,-6.523589367284582,150.09020110863278,,1,001,2021_Apr_07_1316,AB_pic_singleT2,2021.1.2,59.9897657460564,
AB,lag1,1,3,4,0.06000000005000003,0.02,0.3,main,,,,,0,99,99,99,,,,,,,ironingboard01.jpg,mailbox02.jpg,firehydrant.jpg,birdhouse.jpg,ducttape.jpg,fishskeleton.jpg,microwave.jpg,cheetah.jpg,alligator.jpg,penguin.jpg,doghouse.jpg,saxophone.jpg,cocktailshrimp02.jpg,englishcucumber.jpg,arrow02.jpg,bathtub.jpg,spear02.jpg,,,,,1,1,6,,,,,.\resources\birdhouse.jpg,,,1,,,,,,,,,1,,,,,,,,,None,694.12425268,None,694.12425268,None,,,,,,,689.6578970999999,692.4077427000002,692.1410450000003,None,0.052700867011827315,692.6410147000001,None,692.6410147000001,None,693.1743133,None,693.1743133,None,left,0.6544425000001866,693.1743133,None,693.9242527000001,None,left,0.1526017999999567,693.9242527000001,None,693.9242527000001,None,-6.497516878467282,150.08541670450904,,1,001,2021_Apr_07_1316,AB_pic_singleT2,2021.1.2,59.9897657460564,
AB,lag2,2,4,6,0.06000000005000003,0.02,0.3,main,,,,,0,100,100,100,,,,,,,wallclock.jpg,tie02.jpg,lighthouse.jpg,xylophone.jpg,hulahoop.jpg,rollerblade.jpg,treadmill.jpg,pokerchips.jpg,fishingrod.jpg,electrictoothbrush01c.jpg,fingerprint.jpg,donut.jpg,popcorn.jpg,surfboard.jpg,bed.jpg,scooter.jpg,calendar.jpg,,,,,0,0,8,,,,,.\resources\rollerblade.jpg,,,0,,,,,,,,,0,,,,,,,,,None,698.9739046799999,None,698.9739046799999,None,,,,,,,694.1409068000003,696.8907125999999,696.6240676000002,None,0.05252882933395832,697.1406975,None,697.1406975,None,697.8073150999999,None,697.8073150999999,None,left,0.50943929999994,697.8073150999999,None,698.4072682000001,None,left,0.5257615000000442,698.4072682000001,None,698.4072682000001,None,-6.589262249667493,150.07486292372744,,1,001,2021_Apr_07_1316,AB_pic_singleT2,2021.1.2,59.9897657460564,
AB,lag3,3,5,8,0.06000000005000003,0.02,0.3,main,,,,,0,101,101,101,,,,,,,bow.jpg,bullet.jpg,discoball.jpg,floorlamp.jpg,exitsign.jpg,apron.jpg,polarbear.jpg,smokingpipe.jpg,moose.jpg,knee.jpg,ant.jpg,bathtub.jpg,trampoline.jpg,eyepatch.jpg,frisbee.jpg,pingpongtable.jpg,zipper.jpg,,,,,0,0,10,,,,,.\resources\smokingpipe.jpg,,,1,,,,,,,,,1,,,,,,,,,None,703.5402388800002,None,703.5402388800002,None,,,,,,,698.9905744000002,701.7403785000001,701.4737141999999,None,0.05314385404330372,701.9903604000001,None,701.9903604000001,None,702.8069564000002,None,702.8069564000002,None,right,0.32588510000005044,702.8069564000002,None,703.2236139000001,None,right,0.27723070000001826,703.2236139000001,None,703.2236139000001,None,-6.575448998054651,150.07010018803302,,1,001,2021_Apr_07_1316,AB_pic_singleT2,2021.1.2,59.9897657460564,
AB,lag5,5,3,8,0.06000000005000003,0.02,0.3,main,,,,,0,102,102,102,,,,,,,lawnmower.jpg,turnstile.jpg,well.jpg,saxophone.jpg,polarbear.jpg,hockeystick.jpg,totempole.jpg,bow.jpg,uprightpiano01.jpg,hotdogweiner.jpg,ant.jpg,locker.jpg,lizard.jpg,chair.jpg,porcupine.jpg,parrot01.jpg,hand01b.jpg,,,,,1,1,10,,,,,.\resources\bow.jpg,,,1,,,,,,,,,1,,,,,,,,,None,708.0899132799999,None,708.0899132799999,None,,,,,,,703.5569068,706.3067266000003,706.0400668000002,None,0.05305349532784168,706.5400263000001,None,706.5400263000001,None,707.3732990000003,None,707.3732990000003,None,left,0.5115214000002197,707.3732990000003,None,707.97325,None,left,0.08750199999985853,707.97325,None,707.97325,None,-6.551455356729938,150.06584737041857,,1,001,2021_Apr_07_1316,AB_pic_singleT2,2021.1.2,59.9897657460564,
AB,lag6,6,5,11,0.06000000005000003,0.02,0.3,main,,,,,0,103,103,103,,,,,,,bench01.jpg,corn02.jpg,turnstile.jpg,chefshat.jpg,scooter.jpg,apron.jpg,trophy01.jpg,pokerchips.jpg,kangaroo.jpg,ostrich.jpg,witchhat.jpg,calendar.jpg,flamingo.jpg,greywolf.jpg,cruiseship.jpg,leafrake.jpg,football.jpg,,,,,0,0,13,,,,,.\resources\witchhat.jpg,,,1,,,,,,,,,1,,,,,,,,,None,713.38998088,None,713.38998088,None,,,,,,,708.1065816999999,710.8563810999999,710.5897356999999,None,0.05289511142569633,711.1063693000001,None,711.1063693000001,None,712.1396251000001,None,712.1396251000001,None,right,0.5370687999998154,712.1396251000001,None,712.7729122000001,None,right,0.5918420000002698,712.7729122000001,None,712.7729122000001,None,-6.52658124254885,150.0615883595666,,1,001,2021_Apr_07_1316,AB_pic_singleT2,2021.1.2,59.9897657460564,
