trialType,cndTyp,lag,T1_loc,T2_loc,stimLen,isi,skipProb,phase,trials.thisRepN,trials.thisTrialN,trials.thisN,trials.thisIndex,trials2.thisRepN,trials2.thisTrialN,trials2.thisN,trials2.thisIndex,key_resp_4.keys,key_resp_4.rt,key_resp_4.started,key_resp_4.stopped,textbox.started,textbox.stopped,img0,img1,img2,img3,img4,img5,img6,img7,img8,img9,img10,img11,img12,img13,img14,img15,img16,option1.started,option1.stopped,text_2.started,text_2.stopped,skip1,skip2,lastPresent,displayPicture.started,displayPicture.stopped,polygon_2.started,polygon_2.stopped,opt1_t1,polygon_4.started,polygon_4.stopped,cor1,option1_t1.started,option1_t1.stopped,key_resp.keys,key_resp.rt,key_resp.started,key_resp.stopped,polygon_5.started,polygon_5.stopped,cor2,key_resp_2.keys,key_resp_2.rt,key_resp_2.started,key_resp_2.stopped,textbox_2.started,textbox_2.stopped,textbox_3.started,textbox_3.stopped,key_resp_3.keys,key_resp_3.started,key_resp_3.stopped,textbox_6.started,textbox_6.stopped,key_resp_7.keys,key_resp_7.rt,key_resp_7.started,key_resp_7.stopped,textbox_4.started,textbox_4.stopped,option1_3.started,option1_3.stopped,text_7.started,text_7.stopped,curStimTim,displayPicture_4.started,displayPicture_4.stopped,polygon_16.started,polygon_16.stopped,polygon_7.started,polygon_7.stopped,option1_t1_2.started,option1_t1_2.stopped,key_resp_6.keys,key_resp_6.rt,key_resp_6.started,key_resp_6.stopped,polygon_17.started,polygon_17.stopped,key_resp_8.keys,key_resp_8.rt,key_resp_8.started,key_resp_8.stopped,textbox_5.started,textbox_5.stopped,B0,B1,key_resp_3.rt,participant,session,date,expName,psychopyVersion,frameRate,
,,,,,,,,,,,,,,,,,space,25.324791300000015,13.859122200000002,None,,,,,,,,,,,,,,,,,,,,,,,,,,,,,,,,,,,,,,,,,,,,,,,,,,,,,,,,,,,,,,,,,,,,,,,,,,,,,,,,,,,,,,,,,,,7,001,2021_Apr_08_1332,AB_pic_singleT2,2021.1.2,60.01064588853873,
AB,lag7,7,5,12,0.2,0.05,0.5,,0,0,0,7,,,,,,,,,13.859122200000002,None,birdhouse.jpg,penguin.jpg,uprightpiano01.jpg,dandelion.jpg,lily.jpg,hulahoop.jpg,airhockeytable.jpg,hockeypuck.jpg,ear.jpg,rooster.jpg,parrot01.jpg,mattress.jpg,cupcake.jpg,saxophone.jpg,recyclingbin.jpg,windshieldwiper02.jpg,tree.jpg,39.22521809999989,41.97522059999983,41.70858199999975,None,1,0,14,42.208334899999954,None,42.208334899999954,None,.\resources\mattress.jpg,45.97484600000007,None,1,45.97484600000007,None,left,1.3611329000000296,45.97484600000007,None,47.3581280999997,None,1,right,1.1698292000000947,47.3581280999997,None,47.3581280999997,None,48.57469339999989,None,None,49.57456500999992,None,49.57456500999992,None,,,,,,,,,,,,,,,,,,,,,,,,,,,,,,,,,,,7,001,2021_Apr_08_1332,AB_pic_singleT2,2021.1.2,60.01064588853873,
AB,lag7,7,4,11,0.2,0.05,0.5,,0,1,1,2,,,,,,,,,,,airhockeytable.jpg,tulip02.jpg,wheelbarrow01.jpg,worldmap.jpg,helicopter.jpg,parkingmeter.jpg,bowtie.jpg,snowshoe.jpg,tree.jpg,knee.jpg,cymbal.jpg,stool01.jpg,kangaroo.jpg,chainsaw.jpg,leafrake.jpg,lizard.jpg,fishskeleton.jpg,49.574672400000054,52.32499890000008,52.05835969999998,None,0,1,13,52.57497969999986,None,52.57497969999986,None,.\resources\cymbal.jpg,56.07424869999977,None,1,56.07424869999977,None,right,2.309625099999721,56.07424869999977,None,58.42403349999995,None,1,left,1.0238349999999627,58.42403349999995,None,58.42403349999995,None,59.47395400000005,None,None,60.47378571000004,None,60.47378571000004,None,,,,,,,,,,,,,,,,,,,,,,,,,,,,,,,,,,,7,001,2021_Apr_08_1332,AB_pic_singleT2,2021.1.2,60.01064588853873,
AB,lag4,4,4,8,0.2,0.05,0.5,,0,2,2,13,,,,,,,,,,,kite.jpg,tarantula.jpg,anchor.jpg,crosscountryski.jpg,bed.jpg,volleyball.jpg,saltshaker03a.jpg,seal.jpg,lollipop04.jpg,kangaroo.jpg,surfboard.jpg,tortoise01.jpg,nosmokingsign.jpg,fishskeleton.jpg,nose.jpg,punchingbag.jpg,worldmap.jpg,60.49057709999988,63.24079230000007,62.974083900000096,None,1,1,10,63.47368129999995,None,63.47368129999995,None,.\resources\seal.jpg,66.22348280000006,None,1,66.22348280000006,None,left,1.2323510000001079,66.22348280000006,None,67.47337339999967,None,1,left,0.6865579999998772,67.47337339999967,None,67.47337339999967,None,68.20665710000003,None,None,69.20649010999992,None,69.20649010999992,None,,,,,,,,,,,,,,,,,,,,,,,,,,,,,,,,,,,7,001,2021_Apr_08_1332,AB_pic_singleT2,2021.1.2,60.01064588853873,
AB,lag3,3,3,6,0.2,0.05,0.5,,0,3,3,5,,,,,,,,,,,key07.jpg,birdnest.jpg,parachute.jpg,trampoline.jpg,cobra.jpg,steeringwheel.jpg,wallclock.jpg,moose.jpg,escalator.jpg,lighthouse.jpg,kneepad01c.jpg,cymbal.jpg,spear02.jpg,eiffeltower.jpg,greatwhiteshark.jpg,squid.jpg,daddylonglegs.jpg,69.20659369999976,71.95679699999982,71.68974019999996,None,1,1,8,72.1897042999999,None,72.1897042999999,None,.\resources\steeringwheel.jpg,74.45620719999988,None,1,74.45620719999988,None,left,1.2397060000002966,74.45620719999988,None,75.73945079999976,None,1,left,0.7243984000001547,75.73945079999976,None,75.73945079999976,None,76.50608789999978,None,None,77.5058831099997,None,77.5058831099997,None,,,,,,,,,,,,,,,,,,,,,,,,,,,,,,,,,,,7,001,2021_Apr_08_1332,AB_pic_singleT2,2021.1.2,60.01064588853873,
AB,lag5,5,4,9,0.2,0.05,0.5,,0,4,4,6,,,,,,,,,,,calendar.jpg,mummy.jpg,beaver.jpg,marble.jpg,masquerademask01.jpg,parkingmeter.jpg,helicopter.jpg,jellybean.jpg,bowtie.jpg,chair.jpg,rose.jpg,snowshovel.jpg,cork02.jpg,beerbottle.jpg,cashregister01.jpg,barrel01.jpg,chimney.jpg,77.52265559999978,80.2728474999999,80.00623229999974,None,0,0,11,80.5057741999999,None,80.5057741999999,None,.\resources\bowtie.jpg,83.52221999999983,None,1,83.52221999999983,None,right,0.5016303000002154,83.52221999999983,None,84.055519,None,1,right,0.7122918000000027,84.055519,None,84.055519,None,84.80547219999971,None,None,85.80526810999996,None,85.80526810999996,None,,,,,,,,,,,,,,,,,,,,,,,,,,,,,,,,,,,7,001,2021_Apr_08_1332,AB_pic_singleT2,2021.1.2,60.01064588853873,
AB,lag4,4,3,7,0.2,0.05,0.5,,0,5,5,1,,,,,,,,,,,uprightpiano01.jpg,curtain.jpg,penguin.jpg,cannon.jpg,rubikcube.jpg,hotdogweiner.jpg,brownsugar.jpg,toilet.jpg,bow.jpg,sheep.jpg,daddylonglegs.jpg,icecube02.jpg,popcorn.jpg,moose.jpg,humanskeleton.jpg,airhockeytable.jpg,cactus.jpg,85.80538569999999,88.55556829999978,88.2889181999999,None,1,1,9,88.78850489999968,None,88.78850489999968,None,.\resources\brownsugar.jpg,91.30498360000001,None,1,91.30498360000001,None,left,1.4550884000000224,91.30498360000001,None,92.78821059999973,None,1,left,0.5475722999999562,92.78821059999973,None,92.78821059999973,None,93.3715057999998,None,None,94.37132580999983,None,94.37132580999983,None,,,,,,,,,,,,,,,,,,,,,,,,,,,,,,,,,,,7,001,2021_Apr_08_1332,AB_pic_singleT2,2021.1.2,60.01064588853873,
AB,lag2,2,3,5,0.2,0.05,0.5,,0,6,6,4,,,,,,,,,,,bat.jpg,windshieldwiper02.jpg,horse.jpg,dartboard.jpg,duck01.jpg,treadmill.jpg,acorn.jpg,lightswitch01.jpg,masquerademask01.jpg,cow.jpg,bumpercar.jpg,wallclock.jpg,toolbox02.jpg,worldmap.jpg,christmaslights.jpg,daddylonglegs.jpg,pumpkin.jpg,94.38810429999967,97.13829159999977,96.87165669999968,None,1,0,7,97.3712201999997,None,97.3712201999997,None,.\resources\duck01.jpg,99.3877852999999,None,1,99.3877852999999,None,left,2.316010400000323,99.3877852999999,None,101.75470429999996,None,1,right,0.9330802999998014,101.75470429999996,None,101.75470429999996,None,102.72131739999986,None,None,103.72112510999992,None,103.72112510999992,None,,,,,,,,,,,,,,,,,,,,,,,,,,,,,,,,,,,7,001,2021_Apr_08_1332,AB_pic_singleT2,2021.1.2,60.01064588853873,
AB,lag1,1,3,4,0.2,0.05,0.5,,0,7,7,3,,,,,,,,,,,alligator.jpg,squid.jpg,urinal.jpg,snowman.jpg,cigar.jpg,acorn.jpg,electricguitar01.jpg,raccoon.jpg,barrel01.jpg,helicopter.jpg,accordion01.jpg,spear02.jpg,snowshovel.jpg,windshieldwiper02.jpg,banjo.jpg,foosballtable.jpg,knee.jpg,103.73792229999981,106.48730279999972,106.22069169999986,None,0,1,6,106.73728369999981,None,106.73728369999981,None,.\resources\snowman.jpg,108.4871564,None,1,108.4871564,None,right,1.8006577000001016,108.4871564,None,110.30363989999978,None,1,left,0.7521618000000672,110.30363989999978,None,110.30363989999978,None,111.10399419999976,None,None,112.10343520999973,None,112.10343520999973,None,,,,,,,,,,,,,,,,,,,,,,,,,,,,,,,,,,,7,001,2021_Apr_08_1332,AB_pic_singleT2,2021.1.2,60.01064588853873,
AB,lag6,6,5,11,0.2,0.05,0.5,,0,8,8,8,,,,,,,,,,,birdhouse.jpg,fingerprint.jpg,scooter.jpg,whiteout.jpg,eye.jpg,birdnest.jpg,helicopter.jpg,bacon.jpg,marble.jpg,noparkingsign.jpg,skateboard.jpg,leafblower01.jpg,skunk.jpg,parrot01.jpg,skippingrope.jpg,bowtie.jpg,witchhat.jpg,112.12058410000009,114.87037849999979,114.58706799999982,None,0,1,13,115.08663099999967,None,115.08663099999967,None,.\resources\skateboard.jpg,118.6030437999998,None,1,118.6030437999998,None,right,1.6207555999999386,118.6030437999998,None,120.2695761,None,1,left,0.6422789999996894,120.2695761,None,120.2695761,None,120.95286510000005,None,None,121.95273211000008,None,121.95273211000008,None,,,,,,,,,,,,,,,,,,,,,,,,,,,,,,,,,,,7,001,2021_Apr_08_1332,AB_pic_singleT2,2021.1.2,60.01064588853873,
AB,lag3,3,5,8,0.2,0.05,0.5,,0,9,9,10,,,,,,,,,,,safe.jpg,foosballtable.jpg,microphone01.jpg,key07.jpg,ironingboard01.jpg,recyclingbin.jpg,cat.jpg,smokingpipe.jpg,horseshoe.jpg,seagull.jpg,greathornowl.jpg,cymbal.jpg,fortunecookie.jpg,seal.jpg,lawnmower.jpg,worldmap.jpg,apron.jpg,121.96948369999973,124.71967180000001,124.43639119999989,None,0,1,10,124.95258149999972,None,124.95258149999972,None,.\resources\smokingpipe.jpg,127.70238599999993,None,1,127.70238599999993,None,right,1.1374928999998701,127.70238599999993,None,128.86896509999997,None,1,left,0.4588392999999087,128.86896509999997,None,128.86896509999997,None,129.3522594000001,None,None,130.35208350999997,None,130.35208350999997,None,,,,,,,,,,,,,,,,,,,,,,,,,,,,,,,,,,,7,001,2021_Apr_08_1332,AB_pic_singleT2,2021.1.2,60.01064588853873,
AB,lag6,6,5,11,0.2,0.05,0.5,,0,10,10,0,,,,,,,,,,,greathornowl.jpg,eiffeltower.jpg,dartboard.jpg,cow.jpg,paperairplane.jpg,tarantula.jpg,seal.jpg,penguin.jpg,mailbox02.jpg,corn02.jpg,nosmokingsign.jpg,cross01.jpg,seagull.jpg,africanelephant.jpg,kangaroo.jpg,lip.jpg,foot.jpg,130.35219549999965,133.10239309999997,132.83579419999978,None,0,0,13,133.3353164,None,133.3353164,None,.\resources\nosmokingsign.jpg,136.85171979999996,None,1,136.85171979999996,None,right,1.1001172000001134,136.85171979999996,None,137.98497259999976,None,1,right,0.7507972000003065,137.98497259999976,None,137.98497259999976,None,138.76825109999982,None,None,139.76809831000006,None,139.76809831000006,None,,,,,,,,,,,,,,,,,,,,,,,,,,,,,,,,,,,7,001,2021_Apr_08_1332,AB_pic_singleT2,2021.1.2,60.01064588853873,
AB,lag5,5,4,9,0.2,0.05,0.5,,0,11,11,11,,,,,,,,,,,horse.jpg,boat.jpg,sledgehammer.jpg,pirateflag.jpg,fortunecookie.jpg,armadillo.jpg,spear02.jpg,toyanimal05.jpg,kite.jpg,crown.jpg,greatwhiteshark.jpg,butterfly.jpg,brownsugar.jpg,polarbear.jpg,toolbox02.jpg,curtain.jpg,paperairplane.jpg,139.78484170000002,142.53503759999967,142.25177209999993,None,1,1,11,142.767961,None,142.767961,None,.\resources\kite.jpg,145.76773729999968,None,1,145.76773729999968,None,left,1.216009799999938,145.76773729999968,None,147.01765479999995,None,1,left,1.1260630000001584,147.01765479999995,None,147.01765479999995,None,148.16796780000004,None,None,149.1677972099998,None,149.1677972099998,None,,,,,,,,,,,,,,,,,,,,,,,,,,,,,,,,,,,7,001,2021_Apr_08_1332,AB_pic_singleT2,2021.1.2,60.01064588853873,
AB,lag1,1,4,5,0.2,0.05,0.5,,0,12,12,12,,,,,,,,,,,lion.jpg,table01.jpg,statue.jpg,frenchfries.jpg,snowshoe.jpg,whiteout.jpg,ant.jpg,ear.jpg,bat.jpg,polarbear.jpg,icecube02.jpg,christmastree.jpg,lighthouse.jpg,marble.jpg,cannon.jpg,microphone01.jpg,windmill.jpg,149.18456389999983,151.93399090000003,151.65067329999965,None,0,0,7,152.16730589999997,None,152.16730589999997,None,.\resources\snowshoe.jpg,154.1671824,None,1,154.1671824,None,right,0.9366002000001572,154.1671824,None,155.15045529999998,None,1,right,0.5852981000002728,155.15045529999998,None,155.15045529999998,None,155.78417839999975,None,None,156.78355931000002,None,156.78355931000002,None,,,,,,,,,,,,,,,,,,,,,,,,,,,,,,,,,,,7,001,2021_Apr_08_1332,AB_pic_singleT2,2021.1.2,60.01064588853873,
AB,lag2,2,5,7,0.2,0.05,0.5,,0,13,13,9,,,,,,,,,,,sink.jpg,cactus.jpg,mouse.jpg,mrpotatohead.jpg,shower.jpg,holdfast.jpg,jellybean.jpg,bridge.jpg,fishskeleton.jpg,hotdogweiner.jpg,mattress.jpg,candycane01a.jpg,coffeemaker.jpg,leafblower01.jpg,polarbear.jpg,squid.jpg,badmintonracket.jpg,156.80033060000005,159.55013069999995,159.26684029999979,None,1,0,9,159.76678489999995,None,159.76678489999995,None,.\resources\jellybean.jpg,162.2832368999998,None,1,162.2832368999998,None,left,1.0444486999999754,162.2832368999998,None,163.36650340000006,None,1,right,0.9452606999998352,163.36650340000006,None,163.36650340000006,None,164.36685089999992,None,None,165.36667021000008,None,165.36667021000008,None,,,,,,,,,,,,,,,,,,,,,,,,,,,,,,,,,,,7,001,2021_Apr_08_1332,AB_pic_singleT2,2021.1.2,60.01064588853873,
,,,,,,,,,,,,,,,,,,,,,,,,,,,,,,,,,,,,,,,,,,,,,,,,,,,,,,,,,,,,,,,,,,,,,,,,,,,,,space,7.479171399999814,165.36677359999976,None,,,,,,,,,,,,,,,,,,,,,,,,,,,,,,,7,001,2021_Apr_08_1332,AB_pic_singleT2,2021.1.2,60.01064588853873,
AB,lag6,6,5,11,0.2,0.05,0.5,ramp,,,,,0,0,0,0,,,,,,,kneepad01c.jpg,schoolbus.jpg,lion.jpg,chimney.jpg,escalator.jpg,locker.jpg,bowlingball.jpg,lily.jpg,pig.jpg,giraffe.jpg,cork02.jpg,fishingrod.jpg,foldingchair.jpg,ladybug03.jpg,jellyfish.jpg,surfboard.jpg,lip.jpg,,,,,0,1,13,,,,,.\resources\cork02.jpg,,,1,,,,,,,,,1,,,,,,,,,None,180.88222780999982,None,180.88222780999982,None,,,,,165.36677359999976,None,172.9828883,175.7322681999999,175.46567819999973,None,0.2,175.89891559999978,None,175.89891559999978,None,179.43199389999972,None,179.43199389999972,None,right,0.9437194000001909,179.43199389999972,None,180.41527229999974,None,left,0.44045820000019376,180.41527229999974,None,180.41527229999974,None,,,,7,001,2021_Apr_08_1332,AB_pic_singleT2,2021.1.2,60.01064588853873,
AB,lag4,4,4,8,0.19066666667,0.048,0.48,ramp,,,,,0,1,1,1,,,,,,,banjo.jpg,mailbox02.jpg,corn02.jpg,jeep.jpg,snowshovel.jpg,doghouse.jpg,makiroll.jpg,scooter.jpg,holdfast.jpg,apron.jpg,sandcastle.jpg,crab01.jpg,paperairplane.jpg,key07.jpg,lizard.jpg,squid.jpg,acorn.jpg,,,,,0,0,10,,,,,.\resources\scooter.jpg,,,1,,,,,,,,,1,,,,,,,,,None,187.76463011,None,187.76463011,None,,,,,,,180.89897029999975,183.64837009999974,183.38173629999983,None,0.19066666667,183.89833809999982,None,183.89833809999982,None,186.53148539999984,None,186.53148539999984,None,right,0.5883126000003358,186.53148539999984,None,187.19810879999977,None,right,0.5375659000001178,187.19810879999977,None,187.19810879999977,None,-10.001360791690049,150.0000000424746,,7,001,2021_Apr_08_1332,AB_pic_singleT2,2021.1.2,60.01064588853873,
AB,lag7,7,4,11,0.18133333334,0.046,0.45999999999999996,ramp,,,,,0,2,2,2,,,,,,,table01.jpg,fireplace.jpg,chefshat.jpg,dandelion.jpg,greywolf.jpg,lip.jpg,flamingo.jpg,rose.jpg,skunk.jpg,apron.jpg,bumpercar.jpg,beerbottle.jpg,funnel.jpg,stubbywrench01a.jpg,rollerblade.jpg,tank.jpg,shovel01.jpg,,,,,0,1,13,,,,,.\resources\bumpercar.jpg,,,1,,,,,,,,,1,,,,,,,,,None,195.34741810999972,None,195.34741810999972,None,,,,,,,187.78185349999967,190.53122570000005,190.24788309999985,None,0.18133333334,190.74786049999966,None,190.74786049999966,None,193.96429420000004,None,193.96429420000004,None,right,0.8273764999999003,193.96429420000004,None,194.8642216999997,None,left,0.4634448000001612,194.8642216999997,None,194.8642216999997,None,-10.002719446389834,150.00000013655824,,7,001,2021_Apr_08_1332,AB_pic_singleT2,2021.1.2,60.01064588853873,
AB,lag5,5,5,10,0.17200000001000001,0.044,0.43999999999999995,ramp,,,,,0,3,3,3,,,,,,,snowman.jpg,bathtub.jpg,callbell.jpg,cat.jpg,bat.jpg,hockeystick.jpg,toilet.jpg,motorcycle.jpg,penguin.jpg,bow.jpg,panda.jpg,slug.jpg,mouse.jpg,cheetah.jpg,birthdaycandle.jpg,horseshoe.jpg,ipad02.jpg,,,,,1,0,12,,,,,.\resources\bow.jpg,,,1,,,,,,,,,0,,,,,,,,,None,202.89724610999988,None,202.89724610999988,None,,,,,,,195.36417029999984,198.11398310000004,197.8473288,None,0.17200000001000001,198.3473352000001,None,198.3473352000001,None,201.18042479999986,None,201.18042479999986,None,left,1.0832602000000406,201.18042479999986,None,202.33032129999992,None,left,0.5254514000002928,202.33032129999992,None,202.33032129999992,None,-10.004075333761547,150.00000038823157,,7,001,2021_Apr_08_1332,AB_pic_singleT2,2021.1.2,60.01064588853873,
AB,lag2,2,3,5,0.16266666668000002,0.041999999999999996,0.41999999999999993,ramp,,,,,0,4,4,4,,,,,,,car.jpg,lip.jpg,cork02.jpg,saltshaker03a.jpg,alligator.jpg,mattress.jpg,ipad02.jpg,calendar.jpg,flag.jpg,guitarcase.jpg,parkingmeter.jpg,cloud.jpg,eye.jpg,cactus.jpg,spicerack.jpg,schoolbus.jpg,surfboard.jpg,,,,,0,1,7,,,,,.\resources\alligator.jpg,,,1,,,,,,,,,1,,,,,,,,,None,209.37969640999987,None,209.37969640999987,None,,,,,,,202.91404310000007,205.66340319999972,205.39678619999995,None,0.16266666668000002,205.91338959999985,None,205.91338959999985,None,207.56326880000006,None,207.56326880000006,None,right,1.2604153000002043,207.56326880000006,None,208.89651139999978,None,left,0.45508879999988494,208.89651139999978,None,208.89651139999978,None,-10.005426297173447,150.0000011389316,,7,001,2021_Apr_08_1332,AB_pic_singleT2,2021.1.2,60.01064588853873,
AB,lag3,3,5,8,0.15333333335000002,0.039999999999999994,0.3999999999999999,ramp,,,,,0,5,5,5,,,,,,,showerhead01.jpg,horse.jpg,greatwhiteshark.jpg,rose.jpg,calendar.jpg,rollerblade.jpg,foldingchair.jpg,donut.jpg,tie02.jpg,tent.jpg,wallclock.jpg,masquerademask01.jpg,toyanimal05.jpg,bumpercar.jpg,parrot01.jpg,pig.jpg,ostrich.jpg,,,,,0,0,10,,,,,.\resources\donut.jpg,,,1,,,,,,,,,1,,,,,,,,,None,216.06297680999992,None,216.06297680999992,None,,,,,,,209.39646779999975,212.14667239999972,211.8800226999997,None,0.15333333335000002,212.37958759999992,None,212.37958759999992,None,214.52942940000003,None,214.52942940000003,None,right,0.814238099999784,214.52942940000003,None,215.41270200000008,None,right,0.6189844000000448,215.41270200000008,None,215.41270200000008,None,-10.006764806001751,150.00000351094027,,7,001,2021_Apr_08_1332,AB_pic_singleT2,2021.1.2,60.01064588853873,
AB,lag1,1,4,5,0.14400000002000002,0.03799999999999999,0.3799999999999999,ramp,,,,,0,6,6,6,,,,,,,humanskeleton.jpg,microwave.jpg,jackrabbit.jpg,funnel.jpg,raccoon.jpg,lightswitch01.jpg,leafrake.jpg,schoolbus.jpg,granolabar01.jpg,wheelchair.jpg,safe.jpg,toolbox02.jpg,bacon.jpg,cloud.jpg,crab01.jpg,sheep.jpg,christmaslights.jpg,,,,,0,1,7,,,,,.\resources\raccoon.jpg,,,1,,,,,,,,,1,,,,,,,,,None,221.89547140999971,None,221.89547140999971,None,,,,,,,216.07972119999977,218.8291122999999,218.56287410000004,None,0.14400000002000002,219.06243319999976,None,219.06243319999976,None,220.54565709999997,None,220.54565709999997,None,right,0.8539904000003844,220.54565709999997,None,221.4789413999997,None,left,0.40081540000028326,221.4789413999997,None,221.4789413999997,None,-10.008064094004647,150.00001124737665,,7,001,2021_Apr_08_1332,AB_pic_singleT2,2021.1.2,60.01064588853873,
AB,lag6,6,5,11,0.13466666669000002,0.03599999999999999,0.3599999999999999,ramp,,,,,0,7,7,7,,,,,,,boxingglove01.jpg,table01.jpg,knee.jpg,snowman.jpg,surfboard.jpg,spear02.jpg,pingpongtable.jpg,corn02.jpg,squirrel.jpg,mailbox02.jpg,jeans01.jpg,leafrake.jpg,xylophone.jpg,hammerheadshark.jpg,bathtub.jpg,birdnest.jpg,donut.jpg,,,,,1,0,13,,,,,.\resources\jeans01.jpg,,,1,,,,,,,,,1,,,,,,,,,None,228.87828511000012,None,228.87828511000012,None,,,,,,,221.91223039999977,224.6624496999998,224.37911570000006,None,0.13466666669000002,224.87868600000002,None,224.87868600000002,None,227.29518019999978,None,227.29518019999978,None,left,0.9764443999997638,227.29518019999978,None,228.34509359999993,None,right,0.5025649999997768,228.34509359999993,None,228.34509359999993,None,-10.009227634136485,150.00003695987715,,7,001,2021_Apr_08_1332,AB_pic_singleT2,2021.1.2,60.01064588853873,
AB,lag3,3,4,7,0.12533333336000002,0.03399999999999999,0.33999999999999986,ramp,,,,,0,8,8,8,,,,,,,birdfeeder.jpg,firehydrant.jpg,flag.jpg,hotdogweiner.jpg,bull.jpg,cannon.jpg,fridge.jpg,cashregister01.jpg,candycane01a.jpg,smokingpipe.jpg,wheelchair.jpg,eye.jpg,pooltable.jpg,safe.jpg,pumpkin.jpg,fishskeleton.jpg,elbow.jpg,,,,,0,1,9,,,,,.\resources\fridge.jpg,,,1,,,,,,,,,1,,,,,,,,,None,234.7945285100001,None,234.7945285100001,None,,,,,,,228.8950560999997,231.64526559999968,231.37861350000003,None,0.12533333336000002,231.87817300000006,None,231.87817300000006,None,233.494733,None,233.494733,None,right,0.8490107000002354,233.494733,None,234.41135540000005,None,left,0.3562480999999025,234.41135540000005,None,234.41135540000005,None,-10.009903325668345,150.00012340554508,,7,001,2021_Apr_08_1332,AB_pic_singleT2,2021.1.2,60.01064588853873,
AB,lag4,4,4,8,0.11600000003000002,0.03199999999999999,0.31999999999999984,ramp,,,,,0,9,9,9,,,,,,,flamingo.jpg,cheetah.jpg,telescope.jpg,worldmap.jpg,cross01.jpg,panda.jpg,doghouse.jpg,stubbywrench01a.jpg,hammerheadshark.jpg,corn02.jpg,wallclock.jpg,greathornowl.jpg,ostrich.jpg,rooster.jpg,fishskeleton.jpg,bed.jpg,mrpotatohead.jpg,,,,,0,0,10,,,,,.\resources\stubbywrench01a.jpg,,,1,,,,,,,,,1,,,,,,,,,None,240.62745241000007,None,240.62745241000007,None,,,,,,,234.81129359999977,237.56152669999983,237.29485669999985,None,0.11600000003000002,237.7944075999999,None,237.7944075999999,None,239.44429089999994,None,239.44429089999994,None,right,0.5554474999999002,239.44429089999994,None,240.07757649999985,None,right,0.530033099999855,240.07757649999985,None,240.07757649999985,None,-10.0087969897031,150.00041576432758,,7,001,2021_Apr_08_1332,AB_pic_singleT2,2021.1.2,60.01064588853873,
AB,lag5,5,4,9,0.10666666670000002,0.029999999999999985,0.2999999999999998,ramp,,,,,0,10,10,10,,,,,,,drumstick.jpg,cat.jpg,ipad02.jpg,daddylonglegs.jpg,paperairplane.jpg,hotdogweiner.jpg,seal.jpg,sandcastle.jpg,licenseplate.jpg,fishingrod.jpg,moose.jpg,cow.jpg,vacuumcleaner01.jpg,soccerball.jpg,lightswitch01.jpg,corn02.jpg,bumpercar.jpg,,,,,0,1,11,,,,,.\resources\licenseplate.jpg,,,1,,,,,,,,,1,,,,,,,,,None,246.6603657100001,None,246.6603657100001,None,,,,,,,240.64421979999997,243.39404079999986,243.12739629999987,None,0.10666666670000002,243.62738579999996,None,243.62738579999996,None,245.29390120000016,None,245.29390120000016,None,right,0.8977452999997695,245.29390120000016,None,246.26050189999978,None,left,0.37115890000040963,246.26050189999978,None,246.26050189999978,None,-10.001153334151129,150.00140318068046,,7,001,2021_Apr_08_1332,AB_pic_singleT2,2021.1.2,60.01064588853873,
AB,lag2,2,3,5,0.09733333337000002,0.027999999999999983,0.3,ramp,,,,,0,11,11,11,,,,,,,skippingrope.jpg,redfox.jpg,magneticcompass.jpg,tarantula.jpg,table01.jpg,harmonica.jpg,cork02.jpg,noparkingsign.jpg,dromedary.jpg,triangle.jpg,coffeemaker.jpg,motorcycle.jpg,exitsign.jpg,kite.jpg,ladybug03.jpg,polarbear.jpg,platypus.jpg,,,,,0,0,7,,,,,.\resources\table01.jpg,,,1,,,,,,,,,1,,,,,,,,,None,251.89331611000003,None,251.89331611000003,None,,,,,,,246.67712239999992,249.42692529999977,249.16032339999992,None,0.09733333337000002,249.66025519999994,None,249.66025519999994,None,250.69349929999998,None,250.69349929999998,None,right,0.578142200000002,250.69349929999998,None,251.36013260000027,None,right,0.4955333999996583,251.36013260000027,None,251.36013260000027,None,-9.969929362530102,150.00467706564078,,7,001,2021_Apr_08_1332,AB_pic_singleT2,2021.1.2,60.01064588853873,
AB,lag1,1,4,5,0.08800000004000003,0.02599999999999998,0.3,ramp,,,,,0,12,12,12,,,,,,,waterfountain02.jpg,cork02.jpg,hammerheadshark.jpg,kite.jpg,bowlingball.jpg,dandelion.jpg,bumpercar.jpg,ipad02.jpg,fishingrod.jpg,athleticsock.jpg,doghouse.jpg,lily.jpg,trophy01.jpg,turnstile.jpg,licenseplate.jpg,cat.jpg,discoball.jpg,,,,,0,1,7,,,,,.\resources\bowlingball.jpg,,,1,,,,,,,,,1,,,,,,,,,None,257.20959671,None,257.20959671,None,,,,,,,251.9100897000003,254.65989669999954,254.3932407999996,None,0.08800000004000003,254.89320120000002,None,254.89320120000002,None,255.8264647000001,None,255.8264647000001,None,right,0.8771153999996386,255.8264647000001,None,256.7597264000001,None,left,0.4238689000003433,256.7597264000001,None,256.7597264000001,None,-9.860203419559875,150.01481140263897,,7,001,2021_Apr_08_1332,AB_pic_singleT2,2021.1.2,60.01064588853873,
AB,lag7,7,5,12,0.07866666671000003,0.02399999999999998,0.3,ramp,,,,,0,13,13,13,,,,,,,birdfeeder.jpg,fingerprint.jpg,totempole.jpg,pirateflag.jpg,bluecheese.jpg,acorn.jpg,squirrel.jpg,dormer.jpg,bullet.jpg,greywolf.jpg,birthdaycandle.jpg,urinal.jpg,airhockeytable.jpg,candycane01a.jpg,electricguitar01.jpg,ironingboard01.jpg,ladybug03.jpg,,,,,0,0,14,,,,,.\resources\urinal.jpg,,,1,,,,,,,,,1,,,,,,,,,None,264.1928474100001,None,264.1928474100001,None,,,,,,,257.2263780999997,259.9761969999995,259.69284930000003,None,0.07866666671000003,260.1928161999999,None,260.1928161999999,None,261.75936950000005,None,261.75936950000005,None,right,1.0162211999995634,261.75936950000005,None,262.8259559000003,None,right,1.3256765999994968,262.8259559000003,None,262.8259559000003,None,-9.545471510334263,150.0407565987997,,7,001,2021_Apr_08_1332,AB_pic_singleT2,2021.1.2,60.01064588853873,
AB,lag1,1,3,4,0.06933333338000003,0.021999999999999978,0.3,ramp,,,,,0,14,14,14,,,,,,,microphone01.jpg,triangle.jpg,dandelion.jpg,chefshat.jpg,mrpotatohead.jpg,hockeystick.jpg,mattress.jpg,exitsign.jpg,firehydrant.jpg,treadmill.jpg,floorlamp.jpg,tulip02.jpg,cocktailshrimp02.jpg,pokerchips.jpg,peacock.jpg,bull.jpg,guitarcase.jpg,,,,,1,0,6,,,,,.\resources\chefshat.jpg,,,0,,,,,,,,,0,,,,,,,,,None,270.4923517100002,None,270.4923517100002,None,,,,,,,264.2096385,266.9589839999994,266.69236690000025,None,0.06933333338000003,267.2089702999997,None,267.2089702999997,None,267.8589412999995,None,267.8589412999995,None,right,1.3406421999998201,267.8589412999995,None,269.29213409999966,None,left,1.163536600000043,269.29213409999966,None,269.29213409999966,None,-10.346395904151075,149.99035156811522,,7,001,2021_Apr_08_1332,AB_pic_singleT2,2021.1.2,60.01064588853873,
AB,lag6,6,5,11,0.06000000005000003,0.02,0.3,main,,,,,0,15,15,15,,,,,,,sledgehammer.jpg,boxingglove01.jpg,foldingchair.jpg,dormer.jpg,licenseplate.jpg,bumpercar.jpg,mattress.jpg,anchor.jpg,leafblower01.jpg,fishingrod.jpg,corn02.jpg,hand01b.jpg,eyepatch.jpg,steeringwheel.jpg,donut.jpg,cat.jpg,skateboard.jpg,,,,,0,1,13,,,,,.\resources\corn02.jpg,,,1,,,,,,,,,1,,,,,,,,,None,276.70815971000013,None,276.70815971000013,None,,,,,,,270.5091176000001,273.2585114999997,272.9919028999998,None,0.07822296662824203,273.50849400000016,None,273.50849400000016,None,274.8917299,None,274.8917299,None,right,1.0038574000000153,274.8917299,None,275.9749907999999,None,left,0.696652599999652,275.9749907999999,None,275.9749907999999,None,-10.402241849313903,149.99646901972835,,7,001,2021_Apr_08_1332,AB_pic_singleT2,2021.1.2,60.01064588853873,
AB,lag1,1,5,6,0.06000000005000003,0.02,0.3,main,,,,,0,16,16,16,,,,,,,flag.jpg,lightswitch01.jpg,noparkingsign.jpg,tennisracket.jpg,birdnest.jpg,footballhelmet.jpg,africanelephant.jpg,foot.jpg,foldingchair.jpg,bowlingpin.jpg,seal.jpg,urinal.jpg,penguin.jpg,birdfeeder.jpg,englishcucumber.jpg,dalmatian.jpg,moose.jpg,,,,,0,0,8,,,,,.\resources\footballhelmet.jpg,,,1,,,,,,,,,1,,,,,,,,,None,282.35772530999986,None,282.35772530999986,None,,,,,,,276.72495019999997,279.47473369999943,279.2080891999999,None,0.07859209145038808,279.7080893999996,None,279.7080893999996,None,280.6246471999998,None,280.6246471999998,None,right,1.1508426000000327,280.6246471999998,None,281.8245288000003,None,right,0.5030422999998336,281.8245288000003,None,281.8245288000003,None,-10.226666819415556,150.0203921470079,,7,001,2021_Apr_08_1332,AB_pic_singleT2,2021.1.2,60.01064588853873,
AB,lag5,5,3,8,0.06000000005000003,0.02,0.3,main,,,,,0,17,17,17,,,,,,,tank.jpg,pig.jpg,sausage.jpg,anchor.jpg,vacuumcleaner01.jpg,jellybean.jpg,callbell.jpg,beaver.jpg,birthdaycandle.jpg,bluejay.jpg,musicsheet.jpg,raccoon.jpg,cashregister01.jpg,butterfly.jpg,leafrake.jpg,skunk.jpg,lawnmower.jpg,,,,,1,0,10,,,,,.\resources\beaver.jpg,,,1,,,,,,,,,1,,,,,,,,,None,288.82394560999967,None,288.82394560999967,None,,,,,,,282.37448799999993,285.12466489999997,284.8580238999998,None,0.07740921760260219,285.35760979999986,None,285.35760979999986,None,286.45752519999996,None,286.45752519999996,None,left,1.294195600000421,286.45752519999996,None,287.8241161000001,None,right,0.9755247999992207,287.8241161000001,None,287.8241161000001,None,-10.009919766549862,150.04718499327026,,7,001,2021_Apr_08_1332,AB_pic_singleT2,2021.1.2,60.01064588853873,
AB,lag3,3,4,7,0.06000000005000003,0.02,0.3,main,,,,,0,18,18,18,,,,,,,funnel.jpg,fireplace.jpg,lollipop04.jpg,elbow.jpg,cow.jpg,donut.jpg,tricycle.jpg,barrel01.jpg,beaver.jpg,banjo.jpg,rose.jpg,bathtub.jpg,butterfly.jpg,cat.jpg,bacon.jpg,horseshoe.jpg,dolphin01.jpg,,,,,0,0,9,,,,,.\resources\tricycle.jpg,,,0,,,,,,,,,1,,,,,,,,,None,295.14062070999955,None,295.14062070999955,None,,,,,,,288.84071339999946,291.5905343999998,291.32389250000006,None,0.07595086924277109,291.8239043999997,None,291.8239043999997,None,292.80711870000005,None,292.80711870000005,None,left,1.6724401000001308,292.80711870000005,None,294.5570124999999,None,right,0.5545678999997108,294.5570124999999,None,294.5570124999999,None,-10.564742944140887,150.01513398911757,,7,001,2021_Apr_08_1332,AB_pic_singleT2,2021.1.2,60.01064588853873,
AB,lag2,2,5,7,0.06000000005000003,0.02,0.3,main,,,,,0,19,19,19,,,,,,,kneepad01c.jpg,hulahoop.jpg,cocktailshrimp02.jpg,stubbywrench01a.jpg,mummy.jpg,well.jpg,squid.jpg,giraffe.jpg,horse.jpg,spicerack.jpg,flamingo.jpg,trampoline.jpg,soccerball.jpg,eyepatch.jpg,holdfast.jpg,corn02.jpg,honeybee.jpg,,,,,1,0,9,,,,,.\resources\squid.jpg,,,1,,,,,,,,,0,,,,,,,,,None,301.1402142100002,None,301.1402142100002,None,,,,,,,295.1574058000001,297.90681540000014,297.6401304999995,None,0.07966554431853344,298.1400969000001,None,298.1400969000001,None,299.15669469999966,None,299.15669469999966,None,left,1.1789182000002256,299.15669469999966,None,300.42326769999954,None,left,0.6882590000004711,300.42326769999954,None,300.42326769999954,None,-10.513995494446428,150.02987318024853,,7,001,2021_Apr_08_1332,AB_pic_singleT2,2021.1.2,60.01064588853873,
AB,lag4,4,3,7,0.06000000005000003,0.02,0.3,main,,,,,0,20,20,20,,,,,,,brownsugar.jpg,snowboard.jpg,mrpotatohead.jpg,jeep.jpg,stubbywrench01a.jpg,eye.jpg,nosmokingsign.jpg,toucan.jpg,scooter.jpg,callbell.jpg,rollerblade.jpg,pumpkin.jpg,hulahoop.jpg,bathtub.jpg,skateboard.jpg,bridge.jpg,surfboard.jpg,,,,,1,0,9,,,,,.\resources\nosmokingsign.jpg,,,1,,,,,,,,,0,,,,,,,,,None,306.93974801000024,None,306.93974801000024,None,,,,,,,301.1570274999999,303.9063427999995,303.6396985999995,None,0.07931946887183662,304.13965809999945,None,304.13965809999945,None,305.15624869999965,None,305.15624869999965,None,left,0.995358799999849,305.15624869999965,None,306.20614799999976,None,left,0.7054103000000396,306.20614799999976,None,306.20614799999976,None,-10.392838332470719,150.05011444380816,,7,001,2021_Apr_08_1332,AB_pic_singleT2,2021.1.2,60.01064588853873,
AB,lag7,7,5,12,0.06000000005000003,0.02,0.3,main,,,,,0,21,21,21,,,,,,,doghouse.jpg,apron.jpg,bluecheese.jpg,ironingboard01.jpg,chair.jpg,baseballbat.jpg,nose.jpg,frenchfries.jpg,bumpercar.jpg,xylophone.jpg,callbell.jpg,toilet.jpg,paperairplane.jpg,ostrich.jpg,skippingrope.jpg,telescope.jpg,dolphin01.jpg,,,,,0,0,14,,,,,.\resources\toilet.jpg,,,1,,,,,,,,,1,,,,,,,,,None,312.90599620999967,None,312.90599620999967,None,,,,,,,306.9565335000002,309.70588649999945,309.43924560000005,None,0.07850132428923767,309.9392120999996,None,309.9392120999996,None,311.43909680000024,None,311.43909680000024,None,right,0.6964895999999499,311.43909680000024,None,312.2223799999997,None,right,0.6651367999993454,312.2223799999997,None,312.2223799999997,None,-10.26876573382924,150.0704111207971,,7,001,2021_Apr_08_1332,AB_pic_singleT2,2021.1.2,60.01064588853873,
AB,lag6,6,5,11,0.06000000005000003,0.02,0.3,main,,,,,0,22,22,22,,,,,,,rooster.jpg,birdhouse.jpg,rubikcube.jpg,cheetah.jpg,dromedary.jpg,surfboard.jpg,rollerblade.jpg,safe.jpg,kneepad01c.jpg,foot.jpg,eiffeltower.jpg,firehydrant.jpg,bow.jpg,cupcake.jpg,nose.jpg,tire.jpg,lizard.jpg,,,,,1,0,13,,,,,.\resources\eiffeltower.jpg,,,1,,,,,,,,,1,,,,,,,,,None,319.23887961,None,319.23887961,None,,,,,,,312.9227599000001,315.6721328999997,315.4054756999999,None,0.07766394459709683,315.9054648999995,None,315.9054648999995,None,317.3053396999999,None,317.3053396999999,None,left,1.1181965999994645,317.3053396999999,None,318.5219401999998,None,right,0.6856371999992916,318.5219401999998,None,318.5219401999998,None,-10.147980163924524,150.09009617008556,,7,001,2021_Apr_08_1332,AB_pic_singleT2,2021.1.2,60.01064588853873,
AB,lag7,7,5,12,0.06000000005000003,0.02,0.3,main,,,,,0,23,23,23,,,,,,,fishskeleton.jpg,acousticguitar02.jpg,eiffeltower.jpg,bench01.jpg,airhockeytable.jpg,jellyfish.jpg,whiteout.jpg,bow.jpg,treadmill.jpg,parkingmeter.jpg,safe.jpg,mummy.jpg,englishcucumber.jpg,golfball.jpg,greatwhiteshark.jpg,hammerheadshark.jpg,fishingrod.jpg,,,,,1,0,14,,,,,.\resources\mummy.jpg,,,1,,,,,,,,,1,,,,,,,,,None,325.5050717099999,None,325.5050717099999,None,,,,,,,319.2556331999999,322.0050040000001,321.7383622000002,None,0.0768490048268975,322.2549917000001,None,322.2549917000001,None,323.7215487999997,None,323.7215487999997,None,left,1.2059619000001476,323.7215487999997,None,325.0218923999996,None,right,0.46573540000008506,325.0218923999996,None,325.0218923999996,None,-10.030429259384112,150.1090296806315,,7,001,2021_Apr_08_1332,AB_pic_singleT2,2021.1.2,60.01064588853873,
AB,lag5,5,3,8,0.06000000005000003,0.02,0.3,main,,,,,0,24,24,24,,,,,,,escalator.jpg,xylophone.jpg,licenseplate.jpg,dragonfly01.jpg,helicopter.jpg,rooster.jpg,foot.jpg,lip.jpg,marble.jpg,lion.jpg,trumpet.jpg,apron.jpg,zipper.jpg,masquerademask01.jpg,tree.jpg,sheep.jpg,bowlingball.jpg,,,,,0,1,10,,,,,.\resources\lip.jpg,,,1,,,,,,,,,1,,,,,,,,,None,331.3546573099999,None,331.3546573099999,None,,,,,,,325.5218887999995,328.27126069999986,328.0045772999997,None,0.07605620824272838,328.5045720000003,None,328.5045720000003,None,329.5877967000001,None,329.5877967000001,None,right,1.1397276999996393,329.5877967000001,None,330.8048001000002,None,left,0.5148075999995854,330.8048001000002,None,330.8048001000002,None,-9.915575298731351,150.1271434285328,,7,001,2021_Apr_08_1332,AB_pic_singleT2,2021.1.2,60.01064588853873,
AB,lag3,3,3,6,0.06000000005000003,0.02,0.3,main,,,,,0,25,25,25,,,,,,,fingerprint.jpg,ear.jpg,coffeemaker.jpg,humanskeleton.jpg,vacuumcleaner01.jpg,banjo.jpg,granolabar01.jpg,cigar.jpg,spicerack.jpg,key07.jpg,cactus.jpg,helicopter.jpg,pumpkin.jpg,cymbal.jpg,pig.jpg,pigeon.jpg,beerbottle.jpg,,,,,1,0,8,,,,,.\resources\banjo.jpg,,,1,,,,,,,,,1,,,,,,,,,None,336.85424791000025,None,336.85424791000025,None,,,,,,,331.37142749999975,334.1207995999998,333.85415199999943,None,0.07528198699944913,334.3541061000001,None,334.3541061000001,None,335.23737539999956,None,335.23737539999956,None,left,0.8501846999997724,335.23737539999956,None,336.1539848999996,None,right,0.6615671999998085,336.1539848999996,None,336.1539848999996,None,-9.802945777294047,150.14439079150344,,7,001,2021_Apr_08_1332,AB_pic_singleT2,2021.1.2,60.01064588853873,
AB,lag2,2,3,5,0.06000000005000003,0.02,0.3,main,,,,,0,26,26,26,,,,,,,fishingrod.jpg,horse.jpg,zipper.jpg,platypus.jpg,nose.jpg,sausage.jpg,greywolf.jpg,moon.jpg,chair.jpg,rollerblade.jpg,giraffe.jpg,africanelephant.jpg,helicopter.jpg,honeybee.jpg,boxingglove01.jpg,redfox.jpg,leafrake.jpg,,,,,0,0,7,,,,,.\resources\nose.jpg,,,1,,,,,,,,,0,,,,,,,,,None,342.25345411,None,342.25345411,None,,,,,,,336.8710447999997,339.620402,339.3371049000002,None,0.07452319783262346,339.83703560000004,None,339.83703560000004,None,340.62032690000024,None,340.62032690000024,None,right,1.0271222999999736,340.62032690000024,None,341.73691800000006,None,left,0.4786840000006123,341.73691800000006,None,341.73691800000006,None,-9.692160588478336,150.16073899803158,,7,001,2021_Apr_08_1332,AB_pic_singleT2,2021.1.2,60.01064588853873,
AB,lag1,1,5,6,0.06000000005000003,0.02,0.3,main,,,,,0,27,27,27,,,,,,,sledgehammer.jpg,wheelchair.jpg,toad.jpg,moose.jpg,ceilingfan01.jpg,spear02.jpg,masquerademask01.jpg,table01.jpg,seagull.jpg,ipad02.jpg,nunchuk.jpg,ostrich.jpg,waterfall.jpg,mouse.jpg,paperairplane.jpg,bull.jpg,smokingpipe.jpg,,,,,0,0,8,,,,,.\resources\spear02.jpg,,,1,,,,,,,,,0,,,,,,,,,None,347.50307700999986,None,347.50307700999986,None,,,,,,,342.2702027,345.02003399999967,344.75337869999976,None,0.07377730706122491,345.2533398999999,None,345.2533398999999,None,346.11995400000023,None,346.11995400000023,None,right,0.7836189999998169,346.11995400000023,None,346.96989600000006,None,left,0.5016886000003069,346.96989600000006,None,346.96989600000006,None,-9.582914236964987,150.17616622275543,,7,001,2021_Apr_08_1332,AB_pic_singleT2,2021.1.2,60.01064588853873,
AB,lag4,4,5,9,0.06000000005000003,0.02,0.3,main,,,,,0,28,28,28,,,,,,,scorpion.jpg,funnel.jpg,toucan.jpg,dandelion.jpg,safe.jpg,tricycle.jpg,stool01.jpg,dreamcatcher.jpg,firehydrant.jpg,helicopter.jpg,daddylonglegs.jpg,barrel01.jpg,cashregister01.jpg,tarantula.jpg,statue.jpg,lightswitch01.jpg,lawnmower.jpg,,,,,0,0,11,,,,,.\resources\firehydrant.jpg,,,1,,,,,,,,,1,,,,,,,,,None,352.96929000999955,None,352.96929000999955,None,,,,,,,347.5198700999995,350.2696413999997,350.0029953999997,None,0.07304227344447131,350.51963509999996,None,350.51963509999996,None,351.6528635999998,None,351.6528635999998,None,right,0.5707423000003473,351.6528635999998,None,352.30277290000004,None,right,0.6487747000001036,352.30277290000004,None,352.30277290000004,None,-9.474959376226966,150.1906595709158,,7,001,2021_Apr_08_1332,AB_pic_singleT2,2021.1.2,60.01064588853873,
AB,lag3,3,4,7,0.06000000005000003,0.02,0.3,main,,,,,0,29,29,29,,,,,,,table01.jpg,chainsaw.jpg,kite.jpg,bow.jpg,birdfeeder.jpg,football.jpg,cashregister01.jpg,donut.jpg,licenseplate.jpg,jellyfish.jpg,cow.jpg,cobra.jpg,skateboard.jpg,stool01.jpg,firehydrant.jpg,crown.jpg,swordfish.jpg,,,,,0,0,9,,,,,.\resources\cashregister01.jpg,,,1,,,,,,,,,1,,,,,,,,,None,358.21891681,None,358.21891681,None,,,,,,,352.98607459999994,355.73629779999965,355.4696412999997,None,0.07231643944022016,355.96918499999947,None,355.96918499999947,None,356.9191059,None,356.9191059,None,right,0.5685193999997864,356.9191059,None,357.56906430000026,None,right,0.6224494000007326,357.56906430000026,None,357.56906430000026,None,-9.36809449750719,150.20421346890313,,7,001,2021_Apr_08_1332,AB_pic_singleT2,2021.1.2,60.01064588853873,
AB,lag1,1,4,5,0.06000000005000003,0.02,0.3,main,,,,,0,30,30,30,,,,,,,recyclingbin.jpg,elbow.jpg,cigar.jpg,sandcastle.jpg,kite.jpg,eiffeltower.jpg,raccoon.jpg,urinal.jpg,anchor.jpg,cobra.jpg,bat.jpg,escalator.jpg,turnstile.jpg,corn02.jpg,cupcake.jpg,rollerblade.jpg,hulahoop.jpg,,,,,0,0,7,,,,,.\resources\kite.jpg,,,1,,,,,,,,,1,,,,,,,,,None,365.31883140999946,None,365.31883140999946,None,,,,,,,358.23571010000023,360.9858833000003,360.71923899999956,None,0.07159844993864682,361.2187997999995,None,361.2187997999995,None,361.98540319999984,None,361.98540319999984,None,right,1.3660969000002297,361.98540319999984,None,363.41863820000026,None,right,1.8849156999995103,363.41863820000026,None,363.41863820000026,None,-9.262154785407736,150.21682835145393,,7,001,2021_Apr_08_1332,AB_pic_singleT2,2021.1.2,60.01064588853873,
AB,lag4,4,5,9,0.06000000005000003,0.02,0.3,main,,,,,0,31,31,31,,,,,,,foldingchair.jpg,bench01.jpg,anchor.jpg,trophy01.jpg,raccoon.jpg,tricycle.jpg,telescope.jpg,parkingmeter.jpg,bowlingball.jpg,bridge.jpg,calendar.jpg,scorpion.jpg,dalmatian.jpg,hand01b.jpg,table01.jpg,toad.jpg,fridge.jpg,,,,,0,0,11,,,,,.\resources\bowlingball.jpg,,,1,,,,,,,,,1,,,,,,,,,None,370.5680231100001,None,370.5680231100001,None,,,,,,,365.3355633999995,368.0849701000002,367.8183162999999,None,0.07088719195704256,368.3182763,None,368.3182763,None,369.43486559999974,None,369.43486559999974,None,right,0.4046216999995522,369.43486559999974,None,369.9181748999995,None,right,0.6252967000000353,369.9181748999995,None,369.9181748999995,None,-9.157005206581303,150.22850958552135,,7,001,2021_Apr_08_1332,AB_pic_singleT2,2021.1.2,60.01064588853873,
AB,lag6,6,3,9,0.06000000005000003,0.02,0.3,main,,,,,0,32,32,32,,,,,,,microwave.jpg,nosmokingsign.jpg,cheetah.jpg,magneticcompass.jpg,doghouse.jpg,athleticsock.jpg,drumset.jpg,kiwi03.jpg,whiteout.jpg,rose.jpg,bluecheese.jpg,ladder.jpg,wallclock.jpg,tulip02.jpg,parrot01.jpg,porcupine.jpg,treadmill.jpg,,,,,0,0,11,,,,,.\resources\whiteout.jpg,,,1,,,,,,,,,1,,,,,,,,,None,377.7675010099998,None,377.7675010099998,None,,,,,,,370.584789,373.3345881,373.0679374999995,None,0.07018174910201819,373.5679054999996,None,373.5679054999996,None,374.68448750000016,None,374.68448750000016,None,right,1.1629950999995344,374.68448750000016,None,375.9177271000003,None,right,1.8098509000001286,375.9177271000003,None,375.9177271000003,None,-9.052535186242801,150.2392665851948,,7,001,2021_Apr_08_1332,AB_pic_singleT2,2021.1.2,60.01064588853873,
AB,lag2,2,3,5,0.06000000005000003,0.02,0.3,main,,,,,0,33,33,33,,,,,,,cactus.jpg,stool01.jpg,jeep.jpg,treadmill.jpg,chimney.jpg,crown.jpg,pirateflag.jpg,slug.jpg,stubbywrench01a.jpg,chefshat.jpg,sausage.jpg,tarantula.jpg,tank.jpg,drumstick.jpg,dreamcatcher.jpg,moose.jpg,drumset.jpg,,,,,0,0,7,,,,,.\resources\chimney.jpg,,,1,,,,,,,,,1,,,,,,,,,None,382.6338215100001,None,382.6338215100001,None,,,,,,,377.78469840000025,380.5340689999998,380.26744240000016,None,0.06948136652040458,380.78404439999986,None,380.78404439999986,None,381.5173227,None,381.5173227,None,right,0.5062131000004229,381.5173227,None,382.1006112,None,right,0.5149190000001909,382.1006112,None,382.1006112,None,-8.948654436709948,150.24911208141756,,7,001,2021_Apr_08_1332,AB_pic_singleT2,2021.1.2,60.01064588853873,
AB,lag5,5,4,9,0.06000000005000003,0.02,0.3,main,,,,,0,34,34,34,,,,,,,nunchuk.jpg,porcupine.jpg,vacuumcleaner01.jpg,parachute.jpg,skateboard.jpg,nose.jpg,bat.jpg,ducttape.jpg,totempole.jpg,parkfountain.jpg,snowshovel.jpg,scorpion.jpg,zebra.jpg,golfball.jpg,vulture.jpg,pirateflag.jpg,callbell.jpg,,,,,0,0,11,,,,,.\resources\totempole.jpg,,,1,,,,,,,,,1,,,,,,,,,None,388.38340480999943,None,388.38340480999943,None,,,,,,,382.65057079999997,385.40037040000016,385.13373269999965,None,0.0687854234521499,385.63369120000016,None,385.63369120000016,None,386.7336117,None,386.7336117,None,right,0.37789780000002793,386.7336117,None,387.18357009999954,None,right,1.1759392000003572,387.18357009999954,None,387.18357009999954,None,-8.845289639874645,150.2580615176901,,7,001,2021_Apr_08_1332,AB_pic_singleT2,2021.1.2,60.01064588853873,
AB,lag7,7,5,12,0.06000000005000003,0.02,0.3,main,,,,,0,35,35,35,,,,,,,shower.jpg,scooter.jpg,jellybean.jpg,bed.jpg,eye.jpg,wheelchair.jpg,porcupine.jpg,daddylonglegs.jpg,brownsugar.jpg,bullet.jpg,uprightpiano01.jpg,zipper.jpg,mailbox02.jpg,tire.jpg,lip.jpg,bumpercar.jpg,turnstile.jpg,,,,,1,0,14,,,,,.\resources\zipper.jpg,,,1,,,,,,,,,1,,,,,,,,,None,394.1834294099996,None,394.1834294099996,None,,,,,,,388.40012739999975,391.15037149999944,390.8837158000001,None,0.06809341141267124,391.3832897999996,None,391.3832897999996,None,392.7332027999996,None,392.7332027999996,None,left,0.7462706999995135,392.7332027999996,None,393.5498160000002,None,right,0.6016754999991463,393.5498160000002,None,393.5498160000002,None,-8.742381776143569,150.2661325489447,,7,001,2021_Apr_08_1332,AB_pic_singleT2,2021.1.2,60.01064588853873,
AB,lag5,5,5,10,0.06000000005000003,0.02,0.3,main,,,,,0,36,36,36,,,,,,,corn02.jpg,foot.jpg,cannon.jpg,sledgehammer.jpg,pigeon.jpg,eye.jpg,ant.jpg,lion.jpg,christmastree.jpg,skunk.jpg,stubbywrench01a.jpg,christmaslights.jpg,showerhead01.jpg,slug.jpg,cocktailshrimp02.jpg,popcorn.jpg,bluejay.jpg,,,,,0,0,12,,,,,.\resources\skunk.jpg,,,1,,,,,,,,,1,,,,,,,,,None,399.39927751000016,None,399.39927751000016,None,,,,,,,394.20020909999994,396.94958929999984,396.68294259999993,None,0.0674049166332563,397.1995455000001,None,397.1995455000001,None,398.3494593999999,None,398.3494593999999,None,right,0.35401020000063,398.3494593999999,None,398.7831943999995,None,right,0.5922506000006251,398.7831943999995,None,398.7831943999995,None,-8.63988395295388,150.27334462547992,,7,001,2021_Apr_08_1332,AB_pic_singleT2,2021.1.2,60.01064588853873,
AB,lag7,7,3,10,0.06000000005000003,0.02,0.3,main,,,,,0,37,37,37,,,,,,,motorcycle.jpg,toucan.jpg,lily.jpg,foldingchair.jpg,cross01.jpg,englishcucumber.jpg,bacon.jpg,turnstile.jpg,acorn.jpg,ladybug03.jpg,vacuumcleaner01.jpg,swing.jpg,electricguitar01.jpg,discoball.jpg,chair.jpg,tarantula.jpg,lighthouse.jpg,,,,,0,0,12,,,,,.\resources\ladybug03.jpg,,,1,,,,,,,,,1,,,,,,,,,None,404.4155861099995,None,404.4155861099995,None,,,,,,,399.4160598000003,402.1658517000001,401.8992032000001,None,0.06671960578944724,402.4158357000001,None,402.4158357000001,None,403.5490861000003,None,403.5490861000003,None,right,0.40232040000046254,403.5490861000003,None,404.0323848000003,None,right,0.3670784999994794,404.0323848000003,None,404.0323848000003,None,-8.537759627048503,150.27971864758268,,7,001,2021_Apr_08_1332,AB_pic_singleT2,2021.1.2,60.01064588853873,
AB,lag4,4,3,7,0.06000000005000003,0.02,0.3,main,,,,,0,38,38,38,,,,,,,toilet.jpg,christmaslights.jpg,nose.jpg,barrel01.jpg,drumstick.jpg,bluecheese.jpg,mrpotatohead.jpg,pooltable.jpg,jellybean.jpg,wheelbarrow01.jpg,boxingglove01.jpg,cloud.jpg,birthdaycandle.jpg,penguin.jpg,rubikcube.jpg,granolabar01.jpg,lip.jpg,,,,,0,0,9,,,,,.\resources\mrpotatohead.jpg,,,1,,,,,,,,,1,,,,,,,,,None,409.16521370999965,None,409.16521370999965,None,,,,,,,404.43235549999963,407.18218659999957,406.91550830000006,None,0.06603721431925921,407.41547709999986,None,407.41547709999986,None,408.29873290000023,None,408.29873290000023,None,right,0.35681540000041423,408.29873290000023,None,408.73200789999964,None,right,0.40342510000027687,408.73200789999964,None,408.73200789999964,None,-8.43598114291485,150.28527667933304,,7,001,2021_Apr_08_1332,AB_pic_singleT2,2021.1.2,60.01064588853873,
AB,lag3,3,5,8,0.06000000005000003,0.02,0.3,main,,,,,0,39,39,39,,,,,,,wheelchair.jpg,motorcycle.jpg,mattress.jpg,bat.jpg,mailbox02.jpg,lizard.jpg,cupcake.jpg,beerbottle.jpg,shovel01.jpg,exitsign.jpg,surfboard.jpg,cigar.jpg,apron.jpg,brownsugar.jpg,statue.jpg,stool01.jpg,vulture.jpg,,,,,1,0,10,,,,,.\resources\beerbottle.jpg,,,1,,,,,,,,,1,,,,,,,,,None,414.3148395100003,None,414.3148395100003,None,,,,,,,409.18201219999946,411.9321882999998,411.6655374999996,None,0.06535753681974278,412.16510229999994,None,412.16510229999994,None,413.1316945000003,None,413.1316945000003,None,left,0.6518267000001288,413.1316945000003,None,413.84832159999996,None,right,0.43911409999964235,413.84832159999996,None,413.84832159999996,None,-8.334528529391504,150.29004171235025,,7,001,2021_Apr_08_1332,AB_pic_singleT2,2021.1.2,60.01064588853873,
AB,lag2,2,4,6,0.06000000005000003,0.02,0.3,main,,,,,0,40,40,40,,,,,,,beaver.jpg,chainsaw.jpg,grizzly.jpg,skateboard.jpg,toolbox02.jpg,handcuffs.jpg,masquerademask01.jpg,lawnmower.jpg,skunk.jpg,lip.jpg,dolphin01.jpg,motorcycle.jpg,saltshaker03a.jpg,honeybee.jpg,dromedary.jpg,greywolf.jpg,recyclingbin.jpg,,,,,1,0,8,,,,,.\resources\handcuffs.jpg,,,1,,,,,,,,,1,,,,,,,,,None,419.2811450099995,None,419.2811450099995,None,,,,,,,414.3316122000001,417.0818549999999,416.79851029999963,None,0.06468041913992346,417.2980583000003,None,417.2980583000003,None,418.08133169999974,None,418.08133169999974,None,left,0.6301500999998098,418.08133169999974,None,418.7812786999998,None,right,0.47413650000089547,418.7812786999998,None,418.7812786999998,None,-8.233388510195237,150.2940374719864,,7,001,2021_Apr_08_1332,AB_pic_singleT2,2021.1.2,60.01064588853873,
AB,lag1,1,4,5,0.06000000005000003,0.02,0.3,main,,,,,0,41,41,41,,,,,,,mailbox02.jpg,bathtub.jpg,alligator.jpg,floorlamp.jpg,ceilingfan01.jpg,locker.jpg,grizzly.jpg,recyclingbin.jpg,squid.jpg,crown.jpg,bowtie.jpg,uprightpiano01.jpg,hotdogweiner.jpg,pingpongtable.jpg,dormer.jpg,handcuffs.jpg,dragonfly01.jpg,,,,,0,1,7,,,,,.\resources\ceilingfan01.jpg,,,1,,,,,,,,,1,,,,,,,,,None,424.68075030999955,None,424.68075030999955,None,,,,,,,419.29791739999973,422.0481156999999,421.7648019000003,None,0.06400575187893372,422.2643624999996,None,422.2643624999996,None,422.96431939999957,None,422.96431939999957,None,right,1.227145400000154,422.96431939999957,None,424.2808801999995,None,left,0.38257960000009916,424.2808801999995,None,424.2808801999995,None,-8.132553693862082,150.29728825981525,,7,001,2021_Apr_08_1332,AB_pic_singleT2,2021.1.2,60.01064588853873,
AB,lag6,6,5,11,0.06000000005000003,0.02,0.3,main,,,,,0,42,42,42,,,,,,,turnstile.jpg,jeep.jpg,hammerheadshark.jpg,safe.jpg,bench01.jpg,bathtub.jpg,polarbear.jpg,arrow02.jpg,barrel01.jpg,waterfountain02.jpg,tank.jpg,foosballtable.jpg,eyepatch.jpg,hockeystick.jpg,foot.jpg,kangaroo.jpg,dartboard.jpg,,,,,0,0,13,,,,,.\resources\tank.jpg,,,1,,,,,,,,,1,,,,,,,,,None,429.7137258099998,None,429.7137258099998,None,,,,,,,424.69752349999953,427.44734779999953,427.1640089999996,None,0.0633334650624366,427.6639732999997,None,427.6639732999997,None,428.8638825000003,None,428.8638825000003,None,right,0.3676070000001346,428.8638825000003,None,429.29718360000015,None,right,0.3743399999993926,429.29718360000015,None,429.29718360000015,None,-8.0320219155721,150.29981882733094,,7,001,2021_Apr_08_1332,AB_pic_singleT2,2021.1.2,60.01064588853873,
AB,lag5,5,5,10,0.06000000005000003,0.02,0.3,main,,,,,0,43,43,43,,,,,,,saltshaker03a.jpg,cannon.jpg,daddylonglegs.jpg,birdhouse.jpg,jellyfish.jpg,ipad02.jpg,banjo.jpg,peacock.jpg,helicopter.jpg,fortunecookie.jpg,birthdaycandle.jpg,ladder.jpg,coffeemaker.jpg,shovel01.jpg,bull.jpg,moon.jpg,volleyball.jpg,,,,,1,0,12,,,,,.\resources\fortunecookie.jpg,,,1,,,,,,,,,1,,,,,,,,,None,435.0299985099997,None,435.0299985099997,None,,,,,,,429.73049429999946,432.4806883999995,432.21405259999983,None,0.06266352381643282,432.7136088000002,None,432.7136088000002,None,433.8135228999995,None,433.8135228999995,None,left,0.5458929999995235,433.8135228999995,None,434.4468204,None,right,0.5526079000001118,434.4468204,None,434.4468204,None,-7.9317957083786474,150.30165427659603,,7,001,2021_Apr_08_1332,AB_pic_singleT2,2021.1.2,60.01064588853873,
AB,lag7,7,5,12,0.06000000005000003,0.02,0.3,main,,,,,0,44,44,44,,,,,,,bench01.jpg,apron.jpg,spiderweb.jpg,surfboard.jpg,toilet.jpg,leafblower01.jpg,tulip02.jpg,pirateflag.jpg,treadmill.jpg,calendar.jpg,icecube02.jpg,curtain.jpg,jeep.jpg,sword01.jpg,wallclock.jpg,soccerball.jpg,microphone01.jpg,,,,,0,0,14,,,,,.\resources\curtain.jpg,,,0,,,,,,,,,1,,,,,,,,,None,440.52957580999976,None,440.52957580999976,None,,,,,,,435.0467745000001,437.7965726999996,437.53032200000007,None,0.06199592489082463,438.02989190000017,None,438.02989190000017,None,439.2797936000002,None,439.2797936000002,None,left,0.655717800000275,439.2797936000002,None,440.02972050000017,None,right,0.4737284000002546,440.02972050000017,None,440.02972050000017,None,-8.184832346535888,150.28273690427326,,7,001,2021_Apr_08_1332,AB_pic_singleT2,2021.1.2,60.01064588853873,
AB,lag3,3,4,7,0.06000000005000003,0.02,0.3,main,,,,,0,45,45,45,,,,,,,parachute.jpg,parkingmeter.jpg,chair.jpg,telescope.jpg,callbell.jpg,paperairplane.jpg,alligator.jpg,masquerademask01.jpg,fingerprint.jpg,trumpet.jpg,donut.jpg,shovel01.jpg,pumpkin.jpg,foosballtable.jpg,tank.jpg,boxingglove01.jpg,bat.jpg,,,,,0,1,9,,,,,.\resources\alligator.jpg,,,1,,,,,,,,,1,,,,,,,,,None,446.1796947099998,None,446.1796947099998,None,,,,,,,440.5463537999999,443.2966670999999,443.0300196000003,None,0.06368746607105227,443.54664879999973,None,443.54664879999973,None,444.39614440000014,None,444.39614440000014,None,right,1.2832441999998991,444.39614440000014,None,445.7631606,None,left,0.3882306999994398,445.7631606,None,445.7631606,None,-8.170751451562348,150.28145921404393,,7,001,2021_Apr_08_1332,AB_pic_singleT2,2021.1.2,60.01064588853873,
AB,lag2,2,5,7,0.06000000005000003,0.02,0.3,main,,,,,0,46,46,46,,,,,,,accordion01.jpg,hockeystick.jpg,ostrich.jpg,banjo.jpg,horse.jpg,horseshoe.jpg,lizard.jpg,discoball.jpg,stool01.jpg,pooltable.jpg,tortoise01.jpg,frenchfries.jpg,moose.jpg,harmonica.jpg,foosballtable.jpg,armadillo.jpg,bullet.jpg,,,,,1,0,9,,,,,.\resources\lizard.jpg,,,1,,,,,,,,,0,,,,,,,,,None,452.81271380999954,None,452.81271380999954,None,,,,,,,446.1964573,448.9458192999996,448.67916990000003,None,0.06359431071979586,449.19579980000026,None,449.19579980000026,None,450.0457290999998,None,450.0457290999998,None,left,1.5456712999994124,450.0457290999998,None,451.67938769999955,None,left,1.104084900000089,451.67938769999955,None,451.67938769999955,None,-8.107876325942277,150.2830395287389,,7,001,2021_Apr_08_1332,AB_pic_singleT2,2021.1.2,60.01064588853873,
AB,lag6,6,5,11,0.06000000005000003,0.02,0.3,main,,,,,0,47,47,47,,,,,,,butterfly.jpg,lighthouse.jpg,icecube02.jpg,tennisracket.jpg,windmill.jpg,cigar.jpg,swing.jpg,chefshat.jpg,drumset.jpg,punchingbag.jpg,bench01.jpg,leafblower01.jpg,baseballbat.jpg,locker.jpg,cashregister01.jpg,ear.jpg,worldmap.jpg,,,,,0,0,13,,,,,.\resources\bench01.jpg,,,1,,,,,,,,,1,,,,,,,,,None,458.0283592100001,None,458.0283592100001,None,,,,,,,452.82935059999954,455.5786637999995,455.3120474000002,None,0.06317526393420184,455.82864909999944,None,455.82864909999944,None,457.01187100000016,None,457.01187100000016,None,right,0.3716251000005286,457.01187100000016,None,457.4785052000002,None,right,0.5208985999997822,457.4785052000002,None,457.4785052000002,None,-8.037306835979672,150.2847016158909,,7,001,2021_Apr_08_1332,AB_pic_singleT2,2021.1.2,60.01064588853873,
AB,lag1,1,4,5,0.06000000005000003,0.02,0.3,main,,,,,0,48,48,48,,,,,,,cocktailshrimp02.jpg,lip.jpg,bull.jpg,cow.jpg,floorlamp.jpg,tricycle.jpg,motorcycle.jpg,ladder.jpg,fishingrod.jpg,hotdogweiner.jpg,marble.jpg,panda.jpg,redfox.jpg,ladybug03.jpg,lightswitch01.jpg,porcupine.jpg,tarantula.jpg,,,,,1,0,7,,,,,.\resources\floorlamp.jpg,,,0,,,,,,,,,1,,,,,,,,,None,462.8280176100003,None,462.8280176100003,None,,,,,,,458.0451287000001,460.79492249999976,460.5282830000001,None,0.06270499322802078,461.0282407999998,None,461.0282407999998,None,461.71153639999966,None,461.71153639999966,None,right,0.503796500000135,461.71153639999966,None,462.31148239999993,None,right,0.4958698000000368,462.31148239999993,None,462.31148239999993,None,-8.247899014589828,150.26967571610527,,7,001,2021_Apr_08_1332,AB_pic_singleT2,2021.1.2,60.01064588853873,
AB,lag4,4,3,7,0.06000000005000003,0.02,0.3,main,,,,,0,49,49,49,,,,,,,bowlingball.jpg,granolabar01.jpg,jellyfish.jpg,ostrich.jpg,rubikcube.jpg,ladybug03.jpg,car.jpg,curtain.jpg,eiffeltower.jpg,pigeon.jpg,boxingglove01.jpg,licenseplate.jpg,basketball01.jpg,crosscountryski.jpg,lion.jpg,lily.jpg,bullet.jpg,,,,,1,1,9,,,,,.\resources\car.jpg,,,1,,,,,,,,,1,,,,,,,,,None,467.8947318099996,None,467.8947318099996,None,,,,,,,462.84477539999943,465.59457919999977,465.3279330999999,None,0.06411269159794405,465.84456329999966,None,465.84456329999966,None,466.6945039999996,None,466.6945039999996,None,left,0.6488868999995248,466.6945039999996,None,467.42778249999947,None,left,0.4435610999998971,467.42778249999947,None,467.42778249999947,None,-8.225250548667535,150.26995917339352,,7,001,2021_Apr_08_1332,AB_pic_singleT2,2021.1.2,60.01064588853873,
AB,lag3,3,4,7,0.06000000005000003,0.02,0.3,main,,,,,0,50,50,50,,,,,,,foldingchair.jpg,swordfish.jpg,turnstile.jpg,acorn.jpg,icecube02.jpg,tie02.jpg,recyclingbin.jpg,footballhelmet.jpg,rooster.jpg,windmill.jpg,pokerchips.jpg,bowtie.jpg,tire.jpg,ipad02.jpg,funnel.jpg,pingpongtable.jpg,nunchuk.jpg,,,,,0,0,9,,,,,.\resources\recyclingbin.jpg,,,1,,,,,,,,,1,,,,,,,,,None,472.6106296100003,None,472.6106296100003,None,,,,,,,467.91151990000026,470.66087560000005,470.3942307000002,None,0.06396185214036597,470.89423059999945,None,470.89423059999945,None,471.7607935000001,None,471.7607935000001,None,right,0.39860959999987244,471.7607935000001,None,472.24409199999945,None,right,0.33930140000029496,472.24409199999945,None,472.24409199999945,None,-8.172693134628322,150.27194590523115,,7,001,2021_Apr_08_1332,AB_pic_singleT2,2021.1.2,60.01064588853873,
AB,lag7,7,5,12,0.06000000005000003,0.02,0.3,main,,,,,0,51,51,51,,,,,,,foosballtable.jpg,tiger02.jpg,chainsaw.jpg,mattress.jpg,bow.jpg,africanelephant.jpg,grizzly.jpg,telescope.jpg,bull.jpg,dandelion.jpg,schoolbus.jpg,toucan.jpg,chefshat.jpg,totempole.jpg,greywolf.jpg,acorn.jpg,englishcucumber.jpg,,,,,0,0,14,,,,,.\resources\toucan.jpg,,,1,,,,,,,,,1,,,,,,,,,None,477.9435801099995,None,477.9435801099995,None,,,,,,,472.6274072000001,475.37722600000006,475.1105646000001,None,0.06361125783102974,475.6105364,None,475.6105364,None,476.8937556999995,None,476.8937556999995,None,right,0.48961959999996907,476.8937556999995,None,477.4770582999995,None,right,0.42634759999964444,477.4770582999995,None,477.4770582999995,None,-8.116857925167661,150.27384873540174,,7,001,2021_Apr_08_1332,AB_pic_singleT2,2021.1.2,60.01064588853873,
AB,lag1,1,5,6,0.06000000005000003,0.02,0.3,main,,,,,0,52,52,52,,,,,,,bowlingball.jpg,mattress.jpg,beerbottle.jpg,coffeemaker.jpg,bluecheese.jpg,ironingboard01.jpg,harmonica.jpg,duck01.jpg,englishcucumber.jpg,ladybug03.jpg,mailbox02.jpg,firehydrant.jpg,tennisracket.jpg,locker.jpg,honeybee.jpg,apron.jpg,athleticsock.jpg,,,,,0,1,8,,,,,.\resources\ironingboard01.jpg,,,0,,,,,,,,,0,,,,,,,,,None,483.35984581000014,None,483.35984581000014,None,,,,,,,477.9603560999999,480.71014349999996,480.4435010000002,None,0.0632388959639974,480.9434594999998,None,480.9434594999998,None,481.72675879999997,None,481.72675879999997,None,left,1.1606548999998267,481.72675879999997,None,482.9766519,None,right,0.35869280000042636,482.9766519,None,482.9766519,None,-8.29501184942475,150.2616896442345,,7,001,2021_Apr_08_1332,AB_pic_singleT2,2021.1.2,60.01064588853873,
AB,lag4,4,4,8,0.06000000005000003,0.02,0.3,main,,,,,0,53,53,53,,,,,,,cocktailshrimp02.jpg,squirrel.jpg,bridge.jpg,cupcake.jpg,parrot01.jpg,skunk.jpg,surfboard.jpg,candycane01a.jpg,statue.jpg,xylophone.jpg,slug.jpg,cheetah.jpg,rubikcube.jpg,porcupine.jpg,snowshovel.jpg,whiteout.jpg,shovel01.jpg,,,,,0,0,10,,,,,.\resources\candycane01a.jpg,,,1,,,,,,,,,1,,,,,,,,,None,488.1095065099995,None,488.1095065099995,None,,,,,,,483.3766301999999,486.12645479999946,485.85977559999947,None,0.06442963761066764,486.35974080000005,None,486.35974080000005,None,487.30966130000024,None,487.30966130000024,None,right,0.32969800000046234,487.30966130000024,None,487.72630269999945,None,right,0.36102800000026036,487.72630269999945,None,487.72630269999945,None,-8.269943947956842,150.26282852350795,,7,001,2021_Apr_08_1332,AB_pic_singleT2,2021.1.2,60.01064588853873,
AB,lag6,6,5,11,0.06000000005000003,0.02,0.3,main,,,,,0,54,54,54,,,,,,,bluecheese.jpg,exitsign.jpg,hulahoop.jpg,lightswitch01.jpg,toilet.jpg,skateboard.jpg,dormer.jpg,moon.jpg,golfball.jpg,sink.jpg,tulip02.jpg,christmastree.jpg,turnstile.jpg,bowlingball.jpg,zebra.jpg,spicerack.jpg,funnel.jpg,,,,,1,1,13,,,,,.\resources\tulip02.jpg,,,1,,,,,,,,,1,,,,,,,,,None,494.4094820099996,None,494.4094820099996,None,,,,,,,488.1262853000003,490.8760969,490.6094634999995,None,0.06426232225201363,491.1094189999999,None,491.1094189999999,None,492.3093023999995,None,492.3093023999995,None,left,0.9300695000001724,492.3093023999995,None,493.3258971,None,left,1.0574817999995503,493.3258971,None,493.3258971,None,-8.225446713697858,150.26504925902256,,7,001,2021_Apr_08_1332,AB_pic_singleT2,2021.1.2,60.01064588853873,
AB,lag2,2,4,6,0.06000000005000003,0.02,0.3,main,,,,,0,55,55,55,,,,,,,bluejay.jpg,cork02.jpg,church.jpg,toilet.jpg,curtain.jpg,harmonica.jpg,waterfountain02.jpg,car.jpg,tiger02.jpg,bed.jpg,popcorn.jpg,grizzly.jpg,sausage.jpg,exitsign.jpg,masquerademask01.jpg,birthdaycandle.jpg,electrictoothbrush01c.jpg,,,,,0,0,8,,,,,.\resources\harmonica.jpg,,,1,,,,,,,,,1,,,,,,,,,None,499.15871410999955,None,499.15871410999955,None,,,,,,,494.4262592,497.1756295,496.9089706999998,None,0.06396524755566617,497.4256121000003,None,497.4256121000003,None,498.1922161999996,None,498.1922161999996,None,right,0.4631067999998777,498.1922161999996,None,498.7255137999996,None,right,0.4178266999997504,498.7255137999996,None,498.7255137999996,None,-8.179428683455384,150.26715229998416,,7,001,2021_Apr_08_1332,AB_pic_singleT2,2021.1.2,60.01064588853873,
AB,lag5,5,4,9,0.06000000005000003,0.02,0.3,main,,,,,0,56,56,56,,,,,,,sword01.jpg,key07.jpg,funnel.jpg,birdnest.jpg,tricycle.jpg,lion.jpg,christmastree.jpg,flamingo.jpg,kneepad01c.jpg,beerbottle.jpg,chimney.jpg,xylophone.jpg,handcuffs.jpg,vulture.jpg,fridge.jpg,hulahoop.jpg,cruiseship.jpg,,,,,0,0,11,,,,,.\resources\kneepad01c.jpg,,,1,,,,,,,,,1,,,,,,,,,None,503.95835860999944,None,503.95835860999944,None,,,,,,,499.1754871999997,501.92528449999963,501.6586255999996,None,0.06365811089225176,502.1585891,None,502.1585891,None,503.19185249999964,None,503.19185249999964,None,right,0.32752070000060485,503.19185249999964,None,503.60847989999957,None,right,0.3188656999991508,503.60847989999957,None,503.60847989999957,None,-8.133512601367563,150.2690201870191,,7,001,2021_Apr_08_1332,AB_pic_singleT2,2021.1.2,60.01064588853873,
AB,lag2,2,3,5,0.06000000005000003,0.02,0.3,main,,,,,0,57,57,57,,,,,,,flamingo.jpg,spicerack.jpg,bluejay.jpg,hockeypuck.jpg,cocktailshrimp02.jpg,cat.jpg,bat.jpg,raccoon.jpg,rose.jpg,dalmatian.jpg,pirateflag.jpg,tortoise01.jpg,windshieldwiper02.jpg,toucan.jpg,car.jpg,bluecheese.jpg,penguin.jpg,,,,,0,0,7,,,,,.\resources\cocktailshrimp02.jpg,,,1,,,,,,,,,1,,,,,,,,,None,508.42470510999976,None,508.42470510999976,None,,,,,,,503.9751355000003,506.7249121,506.45828179999944,None,0.06335176040037704,506.9749151000001,None,506.9749151000001,None,507.6582019000002,None,507.6582019000002,None,right,0.3491087000002153,507.6582019000002,None,508.09150269999964,None,right,0.3078276000005644,508.09150269999964,None,508.09150269999964,None,-8.087832319812273,150.27063533624994,,7,001,2021_Apr_08_1332,AB_pic_singleT2,2021.1.2,60.01064588853873,
AB,lag6,6,5,11,0.06000000005000003,0.02,0.3,main,,,,,0,58,58,58,,,,,,,birdnest.jpg,greatwhiteshark.jpg,curtain.jpg,bluecheese.jpg,fridge.jpg,xylophone.jpg,pokerchips.jpg,cactus.jpg,mattress.jpg,foosballtable.jpg,donut.jpg,chair.jpg,penguin.jpg,raccoon.jpg,rose.jpg,shovel01.jpg,beerbottle.jpg,,,,,0,1,13,,,,,.\resources\donut.jpg,,,1,,,,,,,,,1,,,,,,,,,space,513.6744347999997,None,513.6744347999997,None,,,,,,,508.4414735999994,511.19126730000016,510.9246151000002,None,0.0630470927319405,511.4245973000002,None,511.4245973000002,None,512.6078415999996,None,512.6078415999996,None,right,0.6954758000001675,512.6078415999996,None,513.3911198999999,None,left,0.24022450000029494,513.3911198999999,None,513.3911198999999,None,-8.04238459818724,150.27199037993742,4.97285120000015,7,001,2021_Apr_08_1332,AB_pic_singleT2,2021.1.2,60.01064588853873,
AB,lag7,7,4,11,0.06000000005000003,0.02,0.3,main,,,,,0,59,59,59,,,,,,,candycane01a.jpg,harmonica.jpg,flamingo.jpg,scooter.jpg,knee.jpg,sledgehammer.jpg,tie02.jpg,pirateflag.jpg,lighthouse.jpg,cannon.jpg,cloud.jpg,parrot01.jpg,tiger02.jpg,greathornowl.jpg,rooster.jpg,totempole.jpg,donut.jpg,,,,,1,0,13,,,,,.\resources\cloud.jpg,,,1,,,,,,,,,0,,,,,,,,,None,525.9905229100001,None,525.9905229100001,None,,,,,,,518.6911519,521.4405166000001,521.1572396999995,None,0.06274408780683816,521.6738420999995,None,521.6738420999995,None,522.8404198000003,None,522.8404198000003,None,left,0.8788668999995934,522.8404198000003,None,523.790348,None,left,2.1770262000000002,523.790348,None,523.790348,None,-7.997154541459539,150.27307978209842,,7,001,2021_Apr_08_1332,AB_pic_singleT2,2021.1.2,60.01064588853873,
AB,lag5,5,3,8,0.06000000005000003,0.02,0.3,main,,,,,0,60,60,60,,,,,,,cork02.jpg,badmintonracket.jpg,moon.jpg,eye.jpg,masquerademask01.jpg,birdhouse.jpg,drumset.jpg,panda.jpg,cobra.jpg,baseballbat.jpg,nosmokingsign.jpg,corn02.jpg,rubikcube.jpg,cymbal.jpg,dragonfly01.jpg,bacon.jpg,fireplace.jpg,,,,,1,0,10,,,,,.\resources\panda.jpg,,,1,,,,,,,,,0,,,,,,,,,None,532.2233624099996,None,532.2233624099996,None,,,,,,,526.0072882,528.7567137000001,528.4900065999996,None,0.06244264718727919,528.9899760000003,None,528.9899760000003,None,529.9232404999998,None,529.9232404999998,None,left,1.4361031000007642,529.9232404999998,None,531.4564378999999,None,left,0.7269017999997232,531.4564378999999,None,531.4564378999999,None,-7.952127433913753,150.27389897556108,,7,001,2021_Apr_08_1332,AB_pic_singleT2,2021.1.2,60.01064588853873,
AB,lag3,3,5,8,0.06000000005000003,0.02,0.3,main,,,,,0,61,61,61,,,,,,,helicopter.jpg,granolabar01.jpg,pingpongtable.jpg,christmaslights.jpg,daddylonglegs.jpg,basketball01.jpg,saltshaker03a.jpg,bat.jpg,elbow.jpg,tortoise01.jpg,table01.jpg,tree.jpg,tie02.jpg,kiwi03.jpg,parachute.jpg,hockeypuck.jpg,foosballtable.jpg,,,,,0,0,10,,,,,.\resources\bat.jpg,,,1,,,,,,,,,1,,,,,,,,,None,536.9226099100002,None,536.9226099100002,None,,,,,,,532.2401349999996,534.9899154999998,534.7232632,None,0.06214267320336409,535.2228344,None,535.2228344,None,536.1560999999997,None,536.1560999999997,None,right,0.3472135000001799,536.1560999999997,None,536.5727418000001,None,right,0.32261970000035944,536.5727418000001,None,536.5727418000001,None,-7.907289789385363,150.27444421811595,,7,001,2021_Apr_08_1332,AB_pic_singleT2,2021.1.2,60.01064588853873,
AB,lag4,4,5,9,0.06000000005000003,0.02,0.3,main,,,,,0,62,62,62,,,,,,,moose.jpg,tiger02.jpg,saxophone.jpg,dormer.jpg,snowman.jpg,wallclock.jpg,bowlingpin.jpg,sausage.jpg,parrot01.jpg,hockeypuck.jpg,bluecheese.jpg,urinal.jpg,kite.jpg,wheelbarrow01.jpg,sword01.jpg,waterfountain02.jpg,acorn.jpg,,,,,0,0,11,,,,,.\resources\parrot01.jpg,,,1,,,,,,,,,1,,,,,,,,,None,541.60565371,None,541.60565371,None,,,,,,,536.9393721000001,539.6896621999999,539.4230144999997,None,0.061844076009464885,539.9392066999994,None,539.9392066999994,None,540.9391297999996,None,540.9391297999996,None,right,0.28418580000015936,540.9391297999996,None,541.289104,None,right,0.2862169999998514,541.289104,None,541.289104,None,-7.862629360688789,150.27471252384632,,7,001,2021_Apr_08_1332,AB_pic_singleT2,2021.1.2,60.01064588853873,
AB,lag1,1,3,4,0.06000000005000003,0.02,0.3,main,,,,,0,63,63,63,,,,,,,bowlingball.jpg,saxophone.jpg,parkfountain.jpg,pooltable.jpg,bench01.jpg,tent.jpg,uprightpiano01.jpg,banjo.jpg,rose.jpg,flamingo.jpg,christmaslights.jpg,safe.jpg,swordfish.jpg,bluejay.jpg,punchingbag.jpg,birthdaycandle.jpg,popcorn.jpg,,,,,0,0,6,,,,,.\resources\pooltable.jpg,,,1,,,,,,,,,1,,,,,,,,,None,546.0886607099998,None,546.0886607099998,None,,,,,,,541.6224453,544.3722442000003,544.1055828000003,None,0.061546773681839625,544.6055372999995,None,544.6055372999995,None,545.2054995000003,None,545.2054995000003,None,right,0.5777834000000439,545.2054995000003,None,545.8554539000002,None,right,0.19987099999980273,545.8554539000002,None,545.8554539000002,None,-7.818135054652742,150.27470160661468,,7,001,2021_Apr_08_1332,AB_pic_singleT2,2021.1.2,60.01064588853873,
AB,lag5,5,4,9,0.06000000005000003,0.02,0.3,main,,,,,0,64,64,64,,,,,,,bumpercar.jpg,spear02.jpg,telescope.jpg,scorpion.jpg,stubbywrench01a.jpg,jellyfish.jpg,floorlamp.jpg,candycane01a.jpg,dolphin01.jpg,bowtie.jpg,curtain.jpg,drumstick.jpg,acorn.jpg,daddylonglegs.jpg,horse.jpg,badmintonracket.jpg,makiroll.jpg,,,,,0,0,11,,,,,.\resources\dolphin01.jpg,,,1,,,,,,,,,1,,,,,,,,,None,550.78832011,None,550.78832011,None,,,,,,,546.1054263000001,548.8552190999994,548.5885814999997,None,0.06125069168240809,549.1052248999999,None,549.1052248999999,None,550.0884664999999,None,550.0884664999999,None,right,0.30289339999944787,550.0884664999999,None,550.4884252999996,None,right,0.2550368000001981,550.4884252999996,None,550.4884252999996,None,-7.773796846069955,150.27440982897747,,7,001,2021_Apr_08_1332,AB_pic_singleT2,2021.1.2,60.01064588853873,
AB,lag4,4,3,7,0.06000000005000003,0.02,0.3,main,,,,,0,65,65,65,,,,,,,seal.jpg,alligator.jpg,zipper.jpg,drumset.jpg,corn02.jpg,mailbox02.jpg,penguin.jpg,anchor.jpg,windmill.jpg,eiffeltower.jpg,electricguitar01.jpg,mummy.jpg,birdfeeder.jpg,bluecheese.jpg,snowman.jpg,football.jpg,tire.jpg,,,,,0,0,9,,,,,.\resources\penguin.jpg,,,1,,,,,,,,,1,,,,,,,,,None,555.2879956100002,None,555.2879956100002,None,,,,,,,550.8055541999997,553.5548833999997,553.2882311999997,None,0.060955762312523164,553.7881987999995,None,553.7881987999995,None,554.6214838999999,None,554.6214838999999,None,right,0.32983509999939997,554.6214838999999,None,555.0547786000002,None,right,0.19257419999939884,555.0547786000002,None,555.0547786000002,None,-7.7296056990960365,150.27383615543428,,7,001,2021_Apr_08_1332,AB_pic_singleT2,2021.1.2,60.01064588853873,
AB,lag7,7,3,10,0.06000000005000003,0.02,0.3,main,,,,,0,66,66,66,,,,,,,boxingglove01.jpg,toad.jpg,statue.jpg,wheelchair.jpg,swordfish.jpg,hockeystick.jpg,jeans01.jpg,smokingpipe.jpg,banjo.jpg,rooster.jpg,snowshovel.jpg,wheelbarrow01.jpg,foosballtable.jpg,redfox.jpg,cymbal.jpg,witchhat.jpg,dormer.jpg,,,,,0,0,12,,,,,.\resources\rooster.jpg,,,1,,,,,,,,,1,,,,,,,,,None,559.9880641099995,None,559.9880641099995,None,,,,,,,555.3047552000003,558.0545621999995,557.7879103,None,0.0606619242140527,558.3045378000002,None,558.3045378000002,None,559.3711391000002,None,559.3711391000002,None,right,0.25218560000030266,559.3711391000002,None,559.7210758999995,None,right,0.23022639999999228,559.7210758999995,None,559.7210758999995,None,-7.685553496114992,150.27298010955005,,7,001,2021_Apr_08_1332,AB_pic_singleT2,2021.1.2,60.01064588853873,
AB,lag2,2,3,5,0.06000000005000003,0.02,0.3,main,,,,,0,67,67,67,,,,,,,bumpercar.jpg,honeybee.jpg,squid.jpg,pig.jpg,telescope.jpg,rose.jpg,cow.jpg,daddylonglegs.jpg,car.jpg,mummy.jpg,fortunecookie.jpg,bed.jpg,lawnmower.jpg,frenchfries.jpg,stool01.jpg,stubbywrench01a.jpg,lollipop04.jpg,,,,,0,0,7,,,,,.\resources\telescope.jpg,,,0,,,,,,,,,1,,,,,,,,,None,564.6706163099994,None,564.6706163099994,None,,,,,,,560.0048360999995,562.7541909999995,562.4875410999998,None,0.060369121918134865,563.0041790999999,None,563.0041790999999,None,563.6541262999995,None,563.6541262999995,None,left,0.6731700999998793,563.6541262999995,None,564.4374065999996,None,right,0.21790169999985665,564.4374065999996,None,564.4374065999996,None,-7.825802865294448,150.2617183207001,,7,001,2021_Apr_08_1332,AB_pic_singleT2,2021.1.2,60.01064588853873,
AB,lag6,6,4,10,0.06000000005000003,0.02,0.3,main,,,,,0,68,68,68,,,,,,,dormer.jpg,stool01.jpg,magneticcompass.jpg,baseballbat.jpg,stubbywrench01a.jpg,swordfish.jpg,frisbee.jpg,motorcycle.jpg,cannon.jpg,pigeon.jpg,cobra.jpg,waterfall.jpg,greatwhiteshark.jpg,dartboard.jpg,corn02.jpg,christmastree.jpg,lollipop04.jpg,,,,,0,0,12,,,,,.\resources\pigeon.jpg,,,1,,,,,,,,,1,,,,,,,,,None,569.3869336100003,None,569.3869336100003,None,,,,,,,564.6873878000001,567.4372046000003,567.1705362999996,None,0.061307013718245734,567.6704957999996,None,567.6704957999996,None,568.7537511999994,None,568.7537511999994,None,right,0.3015286999998352,568.7537511999994,None,569.1537189999995,None,right,0.20562669999981154,569.1537189999995,None,569.1537189999995,None,-7.80631254316218,150.260513730442,,7,001,2021_Apr_08_1332,AB_pic_singleT2,2021.1.2,60.01064588853873,
AB,lag1,1,4,5,0.06000000005000003,0.02,0.3,main,,,,,0,69,69,69,,,,,,,mummy.jpg,marble.jpg,smokingpipe.jpg,dromedary.jpg,lollipop04.jpg,lighthouse.jpg,drumstick.jpg,popcorn.jpg,ducttape.jpg,dormer.jpg,tortoise01.jpg,crab01.jpg,pingpongtable.jpg,corn02.jpg,spiderweb.jpg,dragonfly01.jpg,squirrel.jpg,,,,,0,0,7,,,,,.\resources\lollipop04.jpg,,,1,,,,,,,,,1,,,,,,,,,None,573.75328151,None,573.75328151,None,,,,,,,569.4037082999998,572.1535079999999,571.8701942000002,None,0.06117779499125788,572.3701612,None,572.3701612,None,573.0534333,None,573.0534333,None,right,0.39382500000010623,573.0534333,None,573.5367362000002,None,right,0.19853340000008757,573.5367362000002,None,573.5367362000002,None,-7.770440720146276,150.260152277009,,7,001,2021_Apr_08_1332,AB_pic_singleT2,2021.1.2,60.01064588853873,
AB,lag3,3,5,8,0.06000000005000003,0.02,0.3,main,,,,,0,70,70,70,,,,,,,treadmill.jpg,beerbottle.jpg,brownsugar.jpg,cloud.jpg,firehydrant.jpg,airhockeytable.jpg,corn02.jpg,coffeemaker.jpg,triangle.jpg,exitsign.jpg,spear02.jpg,fishskeleton.jpg,recyclingbin.jpg,punchingbag.jpg,tennisracket.jpg,frenchfries.jpg,fortunecookie.jpg,,,,,1,1,10,,,,,.\resources\coffeemaker.jpg,,,1,,,,,,,,,1,,,,,,,,,None,578.7529304099995,None,578.7529304099995,None,,,,,,,573.7700645999998,576.5198594999997,576.2532104999996,None,0.06093921071226825,576.7698378,None,576.7698378,None,577.6697721999994,None,577.6697721999994,None,left,0.6095329999998285,577.6697721999994,None,578.3530593999999,None,left,0.3821492999995826,578.3530593999999,None,578.3530593999999,None,-7.733069189562623,150.2596754090869,,7,001,2021_Apr_08_1332,AB_pic_singleT2,2021.1.2,60.01064588853873,
AB,lag4,4,3,7,0.06000000005000003,0.02,0.3,main,,,,,0,71,71,71,,,,,,,licenseplate.jpg,christmaslights.jpg,soccerball.jpg,tennisracket.jpg,toad.jpg,telescope.jpg,funnel.jpg,church.jpg,holdfast.jpg,birdnest.jpg,englishcucumber.jpg,dreamcatcher.jpg,car.jpg,discoball.jpg,snowman.jpg,bed.jpg,accordion01.jpg,,,,,1,0,9,,,,,.\resources\funnel.jpg,,,1,,,,,,,,,1,,,,,,,,,None,583.5025588100003,None,583.5025588100003,None,,,,,,,578.7696988000002,581.5194919,581.2528462999994,None,0.06069069113755734,581.7528158,None,581.7528158,None,582.5860854999996,None,582.5860854999996,None,left,0.5971760000002178,582.5860854999996,None,583.2526696999998,None,right,0.23456489999989572,583.2526696999998,None,583.2526696999998,None,-7.695659044909894,150.2589865657119,,7,001,2021_Apr_08_1332,AB_pic_singleT2,2021.1.2,60.01064588853873,
AB,lag1,1,3,4,0.06000000005000003,0.02,0.3,main,,,,,0,72,72,72,,,,,,,xylophone.jpg,ceilingfan01.jpg,greathornowl.jpg,bluecheese.jpg,stool01.jpg,locker.jpg,golfball.jpg,pokerchips.jpg,sandcastle.jpg,pingpongtable.jpg,tortoise01.jpg,flamingo.jpg,jellybean.jpg,worldmap.jpg,smokingpipe.jpg,well.jpg,masquerademask01.jpg,,,,,0,0,6,,,,,.\resources\bluecheese.jpg,,,1,,,,,,,,,1,,,,,,,,,None,587.8689548099998,None,587.8689548099998,None,,,,,,,583.5193300999995,586.2691680000003,586.0025291999996,None,0.060441998269820794,586.5191589000001,None,586.5191589000001,None,587.0857872000001,None,587.0857872000001,None,right,0.4094327000002522,587.0857872000001,None,587.5690809000002,None,right,0.27013699999952223,587.5690809000002,None,587.5690809000002,None,-7.65835086810114,150.25807429321938,,7,001,2021_Apr_08_1332,AB_pic_singleT2,2021.1.2,60.01064588853873,
AB,lag2,2,3,5,0.06000000005000003,0.02,0.3,main,,,,,0,73,73,73,,,,,,,cobra.jpg,hand01b.jpg,popcorn.jpg,parkingmeter.jpg,greatwhiteshark.jpg,bowlingpin.jpg,basketball01.jpg,musicsheet.jpg,snowman.jpg,jeans01.jpg,alligator.jpg,footballhelmet.jpg,armadillo.jpg,slug.jpg,trampoline.jpg,raccoon.jpg,bridge.jpg,,,,,1,0,7,,,,,.\resources\greatwhiteshark.jpg,,,1,,,,,,,,,1,,,,,,,,,None,592.35197381,None,592.35197381,None,,,,,,,587.8857281999994,590.6355184999998,590.3688797999998,None,0.060194071245522306,590.8688397000001,None,590.8688397000001,None,591.5354628999999,None,591.5354628999999,None,left,0.4637423000003764,591.5354628999999,None,592.0687672999998,None,right,0.24269460000050458,592.0687672999998,None,592.0687672999998,None,-7.621153753961167,150.25693602425548,,7,001,2021_Apr_08_1332,AB_pic_singleT2,2021.1.2,60.01064588853873,
AB,lag5,5,5,10,0.06000000005000003,0.02,0.3,main,,,,,0,74,74,74,,,,,,,kiwi03.jpg,banjo.jpg,hockeystick.jpg,hammerheadshark.jpg,daddylonglegs.jpg,kite.jpg,sheep.jpg,alligator.jpg,lion.jpg,drumset.jpg,skunk.jpg,acousticguitar02.jpg,handcuffs.jpg,platypus.jpg,vulture.jpg,tank.jpg,surfboard.jpg,,,,,1,0,12,,,,,.\resources\drumset.jpg,,,1,,,,,,,,,1,,,,,,,,,None,597.2682788099997,None,597.2682788099997,None,,,,,,,592.3687386999995,595.1185352999996,594.8519099999999,None,0.05994697052538736,595.3518486999997,None,595.3518486999997,None,596.4184375999998,None,596.4184375999998,None,left,0.4768509000004997,596.4184375999998,None,596.9684035999994,None,right,0.26286609999988286,596.9684035999994,None,596.9684035999994,None,-7.5840638183053874,150.2555704697492,,7,001,2021_Apr_08_1332,AB_pic_singleT2,2021.1.2,60.01064588853873,
AB,lag6,6,4,10,0.06000000005000003,0.02,0.3,main,,,,,0,75,75,75,,,,,,,schoolbus.jpg,lion.jpg,chainsaw.jpg,cannon.jpg,cat.jpg,ant.jpg,spiderweb.jpg,nose.jpg,ceilingfan01.jpg,lawnmower.jpg,knee.jpg,doghouse.jpg,popcorn.jpg,microphone01.jpg,ironingboard01.jpg,worldmap.jpg,guitarcase.jpg,,,,,0,0,12,,,,,.\resources\lawnmower.jpg,,,0,,,,,,,,,1,,,,,,,,,None,602.51825471,None,602.51825471,None,,,,,,,597.2850432999999,600.0348534999998,599.7682072000002,None,0.059700669674880844,600.2848410000001,None,600.2848410000001,None,601.3347195000001,None,601.3347195000001,None,left,0.576560999999856,601.3347195000001,None,602.0013363000003,None,right,0.4779490999999325,602.0013363000003,None,602.0013363000003,None,-7.705414158496727,150.24537450503743,,7,001,2021_Apr_08_1332,AB_pic_singleT2,2021.1.2,60.01064588853873,
AB,lag7,7,3,10,0.06000000005000003,0.02,0.3,main,,,,,0,76,76,76,,,,,,,rubikcube.jpg,worldmap.jpg,zipper.jpg,birdnest.jpg,wheelchair.jpg,jellyfish.jpg,spear02.jpg,fishingrod.jpg,toad.jpg,skunk.jpg,spicerack.jpg,hotdogweiner.jpg,masquerademask01.jpg,tortoise01.jpg,hand01b.jpg,elbow.jpg,granolabar01.jpg,,,,,0,0,12,,,,,.\resources\skunk.jpg,,,0,,,,,,,,,0,,,,,,,,,None,608.1840869100002,None,608.1840869100002,None,,,,,,,602.5350278999999,605.2844105999998,605.0177684999994,None,0.06051240212597553,605.5177272999995,None,605.5177272999995,None,606.5843185999997,None,606.5843185999997,None,left,0.9348721999995178,606.5843185999997,None,607.6175870000002,None,left,0.549645099999907,607.6175870000002,None,607.6175870000002,None,-7.831391589596825,150.23581648884777,,7,001,2021_Apr_08_1332,AB_pic_singleT2,2021.1.2,60.01064588853873,
AB,lag3,3,4,7,0.06000000005000003,0.02,0.3,main,,,,,0,77,77,77,,,,,,,wheelchair.jpg,waterfountain02.jpg,tree.jpg,raccoon.jpg,scorpion.jpg,duck01.jpg,bowtie.jpg,leafblower01.jpg,bridge.jpg,kite.jpg,stubbywrench01a.jpg,alligator.jpg,cow.jpg,wheelbarrow01.jpg,drumset.jpg,makiroll.jpg,parachute.jpg,,,,,0,0,9,,,,,.\resources\bowtie.jpg,,,1,,,,,,,,,1,,,,,,,,,None,613.03374821,None,613.03374821,None,,,,,,,608.2008678999996,610.9511115999999,610.6677487000002,None,0.061354783207777604,611.1673169999999,None,611.1673169999999,None,612.0005955000001,None,612.0005955000001,None,right,0.5586484999994354,612.0005955000001,None,612.6338739999997,None,right,0.3653803999995944,612.6338739999997,None,612.6338739999997,None,-7.813536239964594,150.23525089885757,,7,001,2021_Apr_08_1332,AB_pic_singleT2,2021.1.2,60.01064588853873,
AB,lag4,4,4,8,0.06000000005000003,0.02,0.3,main,,,,,0,78,78,78,,,,,,,witchhat.jpg,vulture.jpg,hammerheadshark.jpg,rooster.jpg,cupcake.jpg,barrel01.jpg,key07.jpg,stubbywrench01a.jpg,leafrake.jpg,acorn.jpg,recyclingbin.jpg,ipad02.jpg,kiwi03.jpg,ducttape.jpg,accordion01.jpg,snowboard.jpg,lightswitch01.jpg,,,,,0,1,10,,,,,.\resources\stubbywrench01a.jpg,,,1,,,,,,,,,1,,,,,,,,,None,618.2333728099999,None,618.2333728099999,None,,,,,,,613.0505114000002,615.8003059999996,615.5340640999998,None,0.0612361649216272,616.0336285999997,None,616.0336285999997,None,616.9502305999999,None,616.9502305999999,None,right,0.9689932999999655,616.9502305999999,None,618.0001639999996,None,left,0.19909329999973124,618.0001639999996,None,618.0001639999996,None,-7.785248850384611,150.2352193479387,,7,001,2021_Apr_08_1332,AB_pic_singleT2,2021.1.2,60.01064588853873,
AB,lag5,5,3,8,0.06000000005000003,0.02,0.3,main,,,,,0,79,79,79,,,,,,,parrot01.jpg,ostrich.jpg,lion.jpg,cactus.jpg,mrpotatohead.jpg,masquerademask01.jpg,bat.jpg,hand01b.jpg,cobra.jpg,tire.jpg,dandelion.jpg,mailbox02.jpg,barrel01.jpg,anchor.jpg,drumstick.jpg,icecube02.jpg,lizard.jpg,,,,,0,0,10,,,,,.\resources\hand01b.jpg,,,1,,,,,,,,,1,,,,,,,,,None,622.8330367100003,None,622.8330367100003,None,,,,,,,618.2501354999999,621.0003382999998,620.7336900999994,None,0.06104789044347569,621.2332564000003,None,621.2332564000003,None,622.1498494000002,None,622.1498494000002,None,right,0.3056422999998176,622.1498494000002,None,622.5331589000002,None,right,0.2581339999996999,622.5331589000002,None,622.5331589000002,None,-7.756319472071983,150.23509678449375,,7,001,2021_Apr_08_1332,AB_pic_singleT2,2021.1.2,60.01064588853873,
AB,lag6,6,3,9,0.06000000005000003,0.02,0.3,main,,,,,0,80,80,80,,,,,,,fishingrod.jpg,candycane01a.jpg,helicopter.jpg,firehydrant.jpg,doghouse.jpg,eyepatch.jpg,dolphin01.jpg,cross01.jpg,skunk.jpg,dromedary.jpg,bed.jpg,sandcastle.jpg,jellyfish.jpg,dandelion.jpg,moose.jpg,punchingbag.jpg,birdfeeder.jpg,,,,,1,1,11,,,,,.\resources\skunk.jpg,,,1,,,,,,,,,1,,,,,,,,,None,628.1159777099998,None,628.1159777099998,None,,,,,,,622.8498033999999,625.5999952999996,625.3333608999997,None,0.060855379527638524,625.832919,None,625.832919,None,626.8328415000001,None,626.8328415000001,None,left,0.5664367000008497,626.8328415000001,None,627.4661332000001,None,left,0.6290514000002077,627.4661332000001,None,627.4661332000001,None,-7.727436235146032,150.2348350857971,,7,001,2021_Apr_08_1332,AB_pic_singleT2,2021.1.2,60.01064588853873,
AB,lag3,3,5,8,0.06000000005000003,0.02,0.3,main,,,,,0,81,81,81,,,,,,,crab01.jpg,bridge.jpg,fortunecookie.jpg,well.jpg,foot.jpg,ostrich.jpg,birdfeeder.jpg,elbow.jpg,arrow02.jpg,basketball01.jpg,snowboard.jpg,skippingrope.jpg,escalator.jpg,cigar.jpg,key07.jpg,doghouse.jpg,tulip02.jpg,,,,,0,0,10,,,,,.\resources\elbow.jpg,,,1,,,,,,,,,1,,,,,,,,,None,632.6656496100001,None,632.6656496100001,None,,,,,,,628.1327488000002,630.8825513999996,630.5996460000001,None,0.06066323160711158,631.0992179999998,None,631.0992179999998,None,632.0157961,None,632.0157961,None,right,0.29546320000008564,632.0157961,None,632.382435,None,right,0.26466720000007626,632.382435,None,632.382435,None,-7.698644357427694,150.23442721123018,,7,001,2021_Apr_08_1332,AB_pic_singleT2,2021.1.2,60.01064588853873,
AB,lag7,7,5,12,0.06000000005000003,0.02,0.3,main,,,,,0,82,82,82,,,,,,,armadillo.jpg,horse.jpg,lizard.jpg,key07.jpg,nose.jpg,spear02.jpg,birdhouse.jpg,harmonica.jpg,ear.jpg,whiteout.jpg,surfboard.jpg,ladybug03.jpg,englishcucumber.jpg,stool01.jpg,fishingrod.jpg,penguin.jpg,popcorn.jpg,,,,,1,1,14,,,,,.\resources\ladybug03.jpg,,,1,,,,,,,,,1,,,,,,,,,None,638.1153093099998,None,638.1153093099998,None,,,,,,,632.6824311999994,635.4327473999997,635.1656679000002,None,0.060471749965632884,635.6826975999998,None,635.6826975999998,None,636.8988330999996,None,636.8988330999996,None,left,0.84435669999948,636.8988330999996,None,637.8321152000003,None,left,0.2550112999997509,637.8321152000003,None,637.8321152000003,None,-7.669943065025558,150.2338694129333,,7,001,2021_Apr_08_1332,AB_pic_singleT2,2021.1.2,60.01064588853873,
AB,lag1,1,3,4,0.06000000005000003,0.02,0.3,main,,,,,0,83,83,83,,,,,,,microwave.jpg,tank.jpg,pirateflag.jpg,triangle.jpg,callbell.jpg,mailbox02.jpg,arrow02.jpg,hockeystick.jpg,foot.jpg,englishcucumber.jpg,skunk.jpg,electrictoothbrush01c.jpg,stubbywrench01a.jpg,skateboard.jpg,badmintonracket.jpg,witchhat.jpg,eiffeltower.jpg,,,,,0,0,6,,,,,.\resources\triangle.jpg,,,1,,,,,,,,,0,,,,,,,,,None,644.7485129100002,None,644.7485129100002,None,,,,,,,638.1320844999996,640.8818987999998,640.6152301999996,None,0.06028093040227464,641.1152019999995,None,641.1152019999995,None,641.6984324999999,None,641.6984324999999,None,right,1.6208619999997609,641.6984324999999,None,643.3983045999998,None,left,1.3208699999995588,643.3983045999998,None,643.3983045999998,None,-7.641328459865726,150.23315850523446,,7,001,2021_Apr_08_1332,AB_pic_singleT2,2021.1.2,60.01064588853873,
AB,lag2,2,3,5,0.06000000005000003,0.02,0.3,main,,,,,0,84,84,84,,,,,,,corn02.jpg,noparkingsign.jpg,bluejay.jpg,lighthouse.jpg,icecube02.jpg,platypus.jpg,windmill.jpg,sword01.jpg,snowman.jpg,waterfall.jpg,surfboard.jpg,fortunecookie.jpg,drumset.jpg,lightswitch01.jpg,rose.jpg,bowlingball.jpg,penguin.jpg,,,,,1,0,7,,,,,.\resources\icecube02.jpg,,,1,,,,,,,,,0,,,,,,,,,None,650.0981380099998,None,650.0981380099998,None,,,,,,,644.7652862,647.5146792,647.2480325000001,None,0.060090747680520036,647.7479950000002,None,647.7479950000002,None,648.4146061999995,None,648.4146061999995,None,left,0.9046645999997054,648.4146061999995,None,649.3978704999995,None,left,0.68127320000076,649.3978704999995,None,649.3978704999995,None,-7.612796654192585,150.23229164640952,,7,001,2021_Apr_08_1332,AB_pic_singleT2,2021.1.2,60.01064588853873,
AB,lag1,1,4,5,0.06000000005000003,0.02,0.3,main,,,,,0,85,85,85,,,,,,,mouse.jpg,bridge.jpg,baseballbat.jpg,jellybean.jpg,chainsaw.jpg,candycane01a.jpg,moose.jpg,greathornowl.jpg,africanelephant.jpg,bull.jpg,popcorn.jpg,fishingrod.jpg,polarbear.jpg,well.jpg,worldmap.jpg,bluejay.jpg,foldingchair.jpg,,,,,0,1,7,,,,,.\resources\chainsaw.jpg,,,1,,,,,,,,,1,,,,,,,,,None,655.0140241099995,None,655.0140241099995,None,,,,,,,650.1148975000001,652.8642852999997,652.5980396999998,None,0.059901176482702934,653.0975987999996,None,653.0975987999996,None,653.7642196000002,None,653.7642196000002,None,right,0.7709502999996403,653.7642196000002,None,654.6308232999995,None,left,0.3603384999996706,654.6308232999995,None,654.6308232999995,None,-7.58434399263103,150.2312663056044,,7,001,2021_Apr_08_1332,AB_pic_singleT2,2021.1.2,60.01064588853873,
AB,lag5,5,4,9,0.06000000005000003,0.02,0.3,main,,,,,0,86,86,86,,,,,,,boat.jpg,footballhelmet.jpg,nosmokingsign.jpg,lizard.jpg,porcupine.jpg,seal.jpg,swing.jpg,curtain.jpg,dartboard.jpg,tulip02.jpg,redfox.jpg,drumstick.jpg,bow.jpg,toad.jpg,bowlingball.jpg,cheetah.jpg,corn02.jpg,,,,,0,1,11,,,,,.\resources\dartboard.jpg,,,0,,,,,,,,,1,,,,,,,,,None,660.4803185099996,None,660.4803185099996,None,,,,,,,655.0308067000001,657.7807222999995,657.5143500999998,None,0.05971219290332421,658.0139151999997,None,658.0139151999997,None,658.9971782999996,None,658.9971782999996,None,left,0.6260724999992817,658.9971782999996,None,659.7137866999997,None,left,0.7413967000002231,659.7137866999997,None,659.7137866999997,None,-7.68209742993467,150.22318361311468,,7,001,2021_Apr_08_1332,AB_pic_singleT2,2021.1.2,60.01064588853873,
AB,lag7,7,4,11,0.06000000005000003,0.02,0.3,main,,,,,0,87,87,87,,,,,,,foosballtable.jpg,urinal.jpg,bench01.jpg,trumpet.jpg,funnel.jpg,pig.jpg,ipad02.jpg,well.jpg,saxophone.jpg,fridge.jpg,xylophone.jpg,cannon.jpg,jeep.jpg,dreamcatcher.jpg,table01.jpg,arrow02.jpg,wheelchair.jpg,,,,,0,0,13,,,,,.\resources\xylophone.jpg,,,0,,,,,,,,,0,,,,,,,,,None,666.21362371,None,666.21362371,None,,,,,,,660.4970670999996,663.2472665999999,662.9639847000003,None,0.06036612707136688,663.4635255999997,None,663.4635255999997,None,664.6134391,None,664.6134391,None,left,0.9857389999997395,664.6134391,None,665.6966888000002,None,left,0.4945430999996461,665.6966888000002,None,665.6966888000002,None,-7.7820861374579,150.2156195044108,,7,001,2021_Apr_08_1332,AB_pic_singleT2,2021.1.2,60.01064588853873,
AB,lag4,4,3,7,0.06000000005000003,0.02,0.3,main,,,,,0,88,88,88,,,,,,,vacuumcleaner01.jpg,zebra.jpg,ironingboard01.jpg,duck01.jpg,drumset.jpg,pingpongtable.jpg,ipad02.jpg,sledgehammer.jpg,jellyfish.jpg,musicsheet.jpg,hammerheadshark.jpg,tree.jpg,shovel01.jpg,knee.jpg,redfox.jpg,showerhead01.jpg,swordfish.jpg,,,,,0,1,9,,,,,.\resources\ipad02.jpg,,,1,,,,,,,,,1,,,,,,,,,None,671.0628727099999,None,671.0628727099999,None,,,,,,,666.2303863000002,668.9801972,668.7135438999999,None,0.06103480136636908,669.2131021999999,None,669.2131021999999,None,670.0463734,None,670.0463734,None,right,0.41683410000041476,670.0463734,None,670.5463521999995,None,left,0.47687709999991057,670.5463521999995,None,670.5463521999995,None,-7.765654168705924,150.21526645613278,,7,001,2021_Apr_08_1332,AB_pic_singleT2,2021.1.2,60.01064588853873,
AB,lag6,6,4,10,0.06000000005000003,0.02,0.3,main,,,,,0,89,89,89,,,,,,,fireplace.jpg,peacock.jpg,showerhead01.jpg,key07.jpg,sausage.jpg,dolphin01.jpg,pumpkin.jpg,tennisracket.jpg,bull.jpg,lion.jpg,birthdaycandle.jpg,nose.jpg,turnstile.jpg,vacuumcleaner01.jpg,paperairplane.jpg,mummy.jpg,tricycle.jpg,,,,,0,1,12,,,,,.\resources\lion.jpg,,,1,,,,,,,,,1,,,,,,,,,None,676.1791622099996,None,676.1791622099996,None,,,,,,,671.0796588999997,673.8294276000001,673.5631897999997,None,0.06092555534292814,674.0627472000001,None,674.0627472000001,None,675.1460093000001,None,675.1460093000001,None,right,0.5251305000001594,675.1460093000001,None,675.7459715,None,left,0.4050955000002432,675.7459715,None,675.7459715,None,-7.742528134602171,150.215243051496,,7,001,2021_Apr_08_1332,AB_pic_singleT2,2021.1.2,60.01064588853873,
AB,lag3,3,3,6,0.06000000005000003,0.02,0.3,main,,,,,0,90,90,90,,,,,,,cupcake.jpg,triangle.jpg,motorcycle.jpg,bacon.jpg,nosmokingsign.jpg,toolbox02.jpg,toucan.jpg,swing.jpg,cruiseship.jpg,jellybean.jpg,lion.jpg,tricycle.jpg,jackrabbit.jpg,sheep.jpg,drumstick.jpg,wallclock.jpg,exitsign.jpg,,,,,1,0,8,,,,,.\resources\toolbox02.jpg,,,1,,,,,,,,,0,,,,,,,,,None,681.4787771099997,None,681.4787771099997,None,,,,,,,676.1959413999998,678.9457411999997,678.6794748999996,None,0.060771612189799984,679.1790565999995,None,679.1790565999995,None,679.9289873000002,None,679.9289873000002,None,left,0.7903812999993534,679.9289873000002,None,680.8122522999997,None,left,0.650914499999999,680.8122522999997,None,680.8122522999997,None,-7.719091730283982,150.21514494615658,,7,001,2021_Apr_08_1332,AB_pic_singleT2,2021.1.2,60.01064588853873,
AB,lag2,2,3,5,0.06000000005000003,0.02,0.3,main,,,,,0,91,91,91,,,,,,,uprightpiano01.jpg,helicopter.jpg,chefshat.jpg,telescope.jpg,fridge.jpg,cow.jpg,musicsheet.jpg,tie02.jpg,granolabar01.jpg,parkfountain.jpg,zipper.jpg,christmaslights.jpg,totempole.jpg,chimney.jpg,ladder.jpg,crosscountryski.jpg,corn02.jpg,,,,,0,0,7,,,,,.\resources\fridge.jpg,,,0,,,,,,,,,1,,,,,,,,,None,686.5784304099994,None,686.5784304099994,None,,,,,,,681.4955447999996,684.2453758999995,683.9787276000002,None,0.060615632962093303,684.4786862999995,None,684.4786862999995,None,685.1453012999996,None,685.1453012999996,None,left,0.9578834000003553,685.1453012999996,None,686.1952363999994,None,right,0.35593099999914557,686.1952363999994,None,686.1952363999994,None,-7.80308121664299,150.20885710582036,,7,001,2021_Apr_08_1332,AB_pic_singleT2,2021.1.2,60.01064588853873,
AB,lag4,4,4,8,0.06000000005000003,0.02,0.3,main,,,,,0,92,92,92,,,,,,,witchhat.jpg,cupcake.jpg,bowlingpin.jpg,elbow.jpg,humanskeleton.jpg,lightswitch01.jpg,zipper.jpg,porcupine.jpg,honeybee.jpg,volleyball.jpg,masquerademask01.jpg,banjo.jpg,windmill.jpg,nosmokingsign.jpg,cheetah.jpg,floorlamp.jpg,armadillo.jpg,,,,,0,0,10,,,,,.\resources\porcupine.jpg,,,1,,,,,,,,,1,,,,,,,,,None,691.3281119099998,None,691.3281119099998,None,,,,,,,686.5951958999999,689.3450224000003,689.0783780999996,None,0.061177321729364305,689.5783439000002,None,689.5783439000002,None,690.4949420999997,None,690.4949420999997,None,right,0.33612780000021303,690.4949420999997,None,690.9282462999995,None,right,0.3589097000003676,690.9282462999995,None,690.9282462999995,None,-7.786825181806405,150.20877160302942,,7,001,2021_Apr_08_1332,AB_pic_singleT2,2021.1.2,60.01064588853873,
AB,lag7,7,4,11,0.06000000005000003,0.02,0.3,main,,,,,0,93,93,93,,,,,,,pumpkin.jpg,daddylonglegs.jpg,armadillo.jpg,fridge.jpg,motorcycle.jpg,callbell.jpg,foldingchair.jpg,tortoise01.jpg,candycane01a.jpg,tree.jpg,helicopter.jpg,pirateflag.jpg,sledgehammer.jpg,lighthouse.jpg,eye.jpg,lollipop04.jpg,boat.jpg,,,,,0,0,13,,,,,.\resources\helicopter.jpg,,,0,,,,,,,,,1,,,,,,,,,None,696.59436341,None,696.59436341,None,,,,,,,691.3448764,694.0946825999995,693.8280364999996,None,0.06106913361337476,694.3446676999997,None,694.3446676999997,None,695.4945513999996,None,695.4945513999996,None,left,0.7205682000003435,695.4945513999996,None,696.3111539999995,None,right,0.2640044999998281,696.3111539999995,None,696.3111539999995,None,-7.86573625658551,150.20313039670216,,7,001,2021_Apr_08_1332,AB_pic_singleT2,2021.1.2,60.01064588853873,
AB,lag1,1,5,6,0.06000000005000003,0.02,0.3,main,,,,,0,94,94,94,,,,,,,toyanimal05.jpg,jellyfish.jpg,stool01.jpg,pooltable.jpg,chefshat.jpg,discoball.jpg,foosballtable.jpg,pokerchips.jpg,swing.jpg,car.jpg,curtain.jpg,squid.jpg,ear.jpg,dormer.jpg,toilet.jpg,flag.jpg,windshieldwiper02.jpg,,,,,1,1,8,,,,,.\resources\discoball.jpg,,,1,,,,,,,,,1,,,,,,,,,None,701.4939886099997,None,701.4939886099997,None,,,,,,,696.6111461999994,699.3609343000003,699.0942948999996,None,0.06159678958267928,699.5942617999995,None,699.5942617999995,None,700.3608701999997,None,700.3608701999997,None,left,0.6302935000003345,700.3608701999997,None,701.0774602999995,None,left,0.3936432999998942,701.0774602999995,None,701.0774602999995,None,-7.849931070721357,150.20336918601603,,7,001,2021_Apr_08_1332,AB_pic_singleT2,2021.1.2,60.01064588853873,
AB,lag5,5,4,9,0.06000000005000003,0.02,0.3,main,,,,,0,95,95,95,,,,,,,dandelion.jpg,greatwhiteshark.jpg,whiteout.jpg,tulip02.jpg,lion.jpg,kneepad01c.jpg,fishingrod.jpg,wallclock.jpg,microphone01.jpg,urinal.jpg,athleticsock.jpg,parachute.jpg,bow.jpg,snowboard.jpg,parkfountain.jpg,honeybee.jpg,birdfeeder.jpg,,,,,0,0,11,,,,,.\resources\microphone01.jpg,,,1,,,,,,,,,1,,,,,,,,,None,706.3436355099999,None,706.3436355099999,None,,,,,,,701.5107625999995,704.2605508000001,703.9939113999994,None,0.06149146641579557,704.4938746000003,None,704.4938746000003,None,705.4937972000002,None,705.4937972000002,None,right,0.35334530000000086,705.4937972000002,None,705.9437690999998,None,right,0.38334349999968254,705.9437690999998,None,705.9437690999998,None,-7.830091936213052,150.20381081078168,,7,001,2021_Apr_08_1332,AB_pic_singleT2,2021.1.2,60.01064588853873,
AB,lag2,2,5,7,0.06000000005000003,0.02,0.3,main,,,,,0,96,96,96,,,,,,,greatwhiteshark.jpg,sandcastle.jpg,rose.jpg,polarbear.jpg,badmintonracket.jpg,christmaslights.jpg,exitsign.jpg,shower.jpg,horseshoe.jpg,helicopter.jpg,lightswitch01.jpg,elbow.jpg,recyclingbin.jpg,rooster.jpg,dalmatian.jpg,cloud.jpg,rubikcube.jpg,,,,,0,0,9,,,,,.\resources\exitsign.jpg,,,1,,,,,,,,,1,,,,,,,,,None,710.9433111100003,None,710.9433111100003,None,,,,,,,706.3604031,709.1106053999997,708.8439582999995,None,0.06135920418785665,709.3435187,None,709.3435187,None,710.1767933999995,None,710.1767933999995,None,right,0.32635670000036043,710.1767933999995,None,710.5934247,None,right,0.32566029999998136,710.5934247,None,710.5934247,None,-7.810143116929914,150.20420497002877,,7,001,2021_Apr_08_1332,AB_pic_singleT2,2021.1.2,60.01064588853873,
AB,lag6,6,3,9,0.06000000005000003,0.02,0.3,main,,,,,0,97,97,97,,,,,,,flamingo.jpg,lip.jpg,bowlingpin.jpg,toad.jpg,lizard.jpg,telescope.jpg,tennisracket.jpg,treadmill.jpg,waterfountain02.jpg,corn02.jpg,escalator.jpg,popcorn.jpg,chair.jpg,car.jpg,lion.jpg,englishcucumber.jpg,chimney.jpg,,,,,1,0,11,,,,,.\resources\waterfountain02.jpg,,,1,,,,,,,,,1,,,,,,,,,None,716.65955051,None,716.65955051,None,,,,,,,710.9600671000003,713.7102736000002,713.4436258999999,None,0.06122623184806863,713.9431848999998,None,713.9431848999998,None,714.9431110999999,None,714.9431110999999,None,left,1.3280504999993354,714.9431110999999,None,716.3596782,None,right,0.27136479999990115,716.3596782,None,716.3596782,None,-7.790250052924258,150.20453670208158,,7,001,2021_Apr_08_1332,AB_pic_singleT2,2021.1.2,60.01064588853873,
AB,lag3,3,3,6,0.06000000005000003,0.02,0.3,main,,,,,0,98,98,98,,,,,,,cloud.jpg,birdhouse.jpg,ladder.jpg,peacock.jpg,whiteout.jpg,zebra.jpg,football.jpg,bowtie.jpg,birdfeeder.jpg,xylophone.jpg,bed.jpg,barrel01.jpg,brownsugar.jpg,soccerball.jpg,fridge.jpg,discoball.jpg,electricguitar01.jpg,,,,,0,1,8,,,,,.\resources\zebra.jpg,,,0,,,,,,,,,1,,,,,,,,,None,721.9929038099996,None,721.9929038099996,None,,,,,,,716.6763252999995,719.4265664,719.1598982999999,None,0.061093656793103884,719.6594344999999,None,719.6594344999999,None,720.4093804999998,None,720.4093804999998,None,left,0.5257239000002301,720.4093804999998,None,721.0260112999999,None,left,0.9411159999999654,721.0260112999999,None,721.0260112999999,None,-7.863173132025099,150.19941635137806,,7,001,2021_Apr_08_1332,AB_pic_singleT2,2021.1.2,60.01064588853873,
AB,lag1,1,3,4,0.06000000005000003,0.02,0.3,main,,,,,0,99,99,99,,,,,,,trophy01.jpg,squirrel.jpg,accordion01.jpg,frenchfries.jpg,waterfall.jpg,pigeon.jpg,foot.jpg,christmastree.jpg,firehydrant.jpg,beaver.jpg,skunk.jpg,cactus.jpg,foosballtable.jpg,parachute.jpg,noparkingsign.jpg,sink.jpg,anchor.jpg,,,,,1,0,6,,,,,.\resources\frenchfries.jpg,,,1,,,,,,,,,1,,,,,,,,,None,727.2754554099998,None,727.2754554099998,None,,,,,,,722.0097025,724.7590694999994,724.4924264999995,None,0.06158124790249976,725.0094492000003,None,725.0094492000003,None,725.5927475000003,None,725.5927475000003,None,left,1.2864767999999458,725.5927475000003,None,726.9755829000001,None,right,0.2714790999998513,726.9755829000001,None,726.9755829000001,None,-7.848225019603849,150.19974473435016,,7,001,2021_Apr_08_1332,AB_pic_singleT2,2021.1.2,60.01064588853873,
AB,lag2,2,4,6,0.06000000005000003,0.02,0.3,main,,,,,0,100,100,100,,,,,,,saltshaker03a.jpg,leafblower01.jpg,cymbal.jpg,cocktailshrimp02.jpg,kangaroo.jpg,banjo.jpg,birdnest.jpg,masquerademask01.jpg,chefshat.jpg,bowlingball.jpg,bed.jpg,mattress.jpg,wheelbarrow01.jpg,greathornowl.jpg,dartboard.jpg,ostrich.jpg,surfboard.jpg,,,,,1,0,8,,,,,.\resources\banjo.jpg,,,1,,,,,,,,,0,,,,,,,,,None,732.3584147099997,None,732.3584147099997,None,,,,,,,727.2922438999999,730.0424201000001,729.7758398000001,None,0.06148159171013449,730.2753312999998,None,730.2753312999998,None,731.0419470000002,None,731.0419470000002,None,left,0.853187099999559,731.0419470000002,None,731.9918528000003,None,left,0.3432981000005384,731.9918528000003,None,731.9918528000003,None,-7.8298439343117066,150.20024445177907,,7,001,2021_Apr_08_1332,AB_pic_singleT2,2021.1.2,60.01064588853873,
AB,lag3,3,5,8,0.06000000005000003,0.02,0.3,main,,,,,0,101,101,101,,,,,,,key07.jpg,saxophone.jpg,baseballbat.jpg,wheelchair.jpg,curtain.jpg,eiffeltower.jpg,crown.jpg,spiderweb.jpg,foosballtable.jpg,hockeypuck.jpg,peacock.jpg,bridge.jpg,swordfish.jpg,calendar.jpg,skateboard.jpg,tulip02.jpg,tank.jpg,,,,,1,1,10,,,,,.\resources\spiderweb.jpg,,,1,,,,,,,,,1,,,,,,,,,None,737.4081028099996,None,737.4081028099996,None,,,,,,,732.3751552999997,735.1254257999994,734.8587869999997,None,0.06135900996080193,735.3754103999995,None,735.3754103999995,None,736.2749268000002,None,736.2749268000002,None,left,0.6601942999996027,736.2749268000002,None,737.0248783000002,None,left,0.36620590000075026,737.0248783000002,None,737.0248783000002,None,-7.811382690788489,150.2007016925504,,7,001,2021_Apr_08_1332,AB_pic_singleT2,2021.1.2,60.01064588853873,
AB,lag5,5,3,8,0.06000000005000003,0.02,0.3,main,,,,,0,102,102,102,,,,,,,pokerchips.jpg,makiroll.jpg,kite.jpg,redfox.jpg,microphone01.jpg,porcupine.jpg,raccoon.jpg,rose.jpg,toad.jpg,armadillo.jpg,ostrich.jpg,airhockeytable.jpg,cactus.jpg,knee.jpg,dormer.jpg,uprightpiano01.jpg,ironingboard01.jpg,,,,,1,1,10,,,,,.\resources\rose.jpg,,,1,,,,,,,,,1,,,,,,,,,None,742.3577250100003,None,742.3577250100003,None,,,,,,,737.4248438999998,740.1746466999998,739.9079956999999,None,0.061235912670603465,740.4246245999998,None,740.4246245999998,None,741.3245694000002,None,741.3245694000002,None,left,0.530505799999446,741.3245694000002,None,741.9411856000002,None,left,0.3858604999995805,741.9411856000002,None,741.9411856000002,None,-7.792971203677538,150.20110410094858,,7,001,2021_Apr_08_1332,AB_pic_singleT2,2021.1.2,60.01064588853873,
AB,lag6,6,5,11,0.06000000005000003,0.02,0.3,main,,,,,0,103,103,103,,,,,,,airhockeytable.jpg,cork02.jpg,bluejay.jpg,toilet.jpg,rubikcube.jpg,kangaroo.jpg,tank.jpg,shower.jpg,paperairplane.jpg,pingpongtable.jpg,accordion01.jpg,hulahoop.jpg,toad.jpg,dreamcatcher.jpg,snowshoe.jpg,ipad02.jpg,tarantula.jpg,,,,,0,1,13,,,,,.\resources\accordion01.jpg,,,1,,,,,,,,,1,,,,,,,,,None,747.7078122099998,None,747.7078122099998,None,,,,,,,742.3745054999995,745.1243049,744.8576582000001,None,0.06111316970498525,745.3742975999999,None,745.3742975999999,None,746.5242014999999,None,746.5242014999999,None,right,0.7468856000004962,746.5242014999999,None,747.3574862999999,None,left,0.3056735000000117,747.3574862999999,None,747.3574862999999,None,-7.7746127490812755,150.2014474459577,,7,001,2021_Apr_08_1332,AB_pic_singleT2,2021.1.2,60.01064588853873,
