trialType,cndTyp,lag,T1_loc,T2_loc,stimLen,isi,skipProb,phase,trials.thisRepN,trials.thisTrialN,trials.thisN,trials.thisIndex,trials2.thisRepN,trials2.thisTrialN,trials2.thisN,trials2.thisIndex,key_resp_4.keys,key_resp_4.rt,key_resp_4.started,key_resp_4.stopped,textbox.started,textbox.stopped,img0,img1,img2,img3,img4,img5,img6,img7,img8,img9,img10,img11,img12,img13,img14,img15,img16,option1.started,option1.stopped,text_2.started,text_2.stopped,skip1,skip2,lastPresent,displayPicture.started,displayPicture.stopped,polygon_2.started,polygon_2.stopped,opt1_t1,polygon_4.started,polygon_4.stopped,cor1,option1_t1.started,option1_t1.stopped,key_resp.keys,key_resp.rt,key_resp.started,key_resp.stopped,polygon_5.started,polygon_5.stopped,cor2,key_resp_2.keys,key_resp_2.rt,key_resp_2.started,key_resp_2.stopped,textbox_2.started,textbox_2.stopped,textbox_3.started,textbox_3.stopped,key_resp_3.keys,key_resp_3.started,key_resp_3.stopped,textbox_6.started,textbox_6.stopped,key_resp_7.keys,key_resp_7.rt,key_resp_7.started,key_resp_7.stopped,textbox_4.started,textbox_4.stopped,option1_3.started,option1_3.stopped,text_7.started,text_7.stopped,curStimTim,displayPicture_4.started,displayPicture_4.stopped,polygon_16.started,polygon_16.stopped,polygon_7.started,polygon_7.stopped,option1_t1_2.started,option1_t1_2.stopped,key_resp_6.keys,key_resp_6.rt,key_resp_6.started,key_resp_6.stopped,polygon_17.started,polygon_17.stopped,key_resp_8.keys,key_resp_8.rt,key_resp_8.started,key_resp_8.stopped,textbox_5.started,textbox_5.stopped,B0,B1,key_resp_3.rt,participant,session,date,expName,psychopyVersion,frameRate,
,,,,,,,,,,,,,,,,,space,38.86654970000018,9.475277200000164,None,,,,,,,,,,,,,,,,,,,,,,,,,,,,,,,,,,,,,,,,,,,,,,,,,,,,,,,,,,,,,,,,,,,,,,,,,,,,,,,,,,,,,,,,,,,8,001,2021_Apr_08_1353,AB_pic_singleT2,2021.1.2,60.008989346721975,
AB,lag6,6,5,11,0.2,0.05,0.5,,0,0,0,0,,,,,,,,,9.475277200000164,None,candycane01a.jpg,bluejay.jpg,chimney.jpg,vacuumcleaner01.jpg,safe.jpg,anchor.jpg,well.jpg,sword01.jpg,greywolf.jpg,zebra.jpg,bathtub.jpg,waterfountain02.jpg,rooster.jpg,ipad02.jpg,cymbal.jpg,lip.jpg,worldmap.jpg,48.41978579999977,51.16916760000004,50.88585049999983,None,1,0,13,51.40249279999989,None,51.40249279999989,None,.\resources\bathtub.jpg,54.90229289999934,None,1,54.90229289999934,None,left,3.8633268000003227,54.90229289999934,None,58.8191853999997,None,1,right,1.1143818999998985,58.8191853999997,None,58.8191853999997,None,59.96911649999947,None,None,60.96906000000017,None,60.96906000000017,None,,,,,,,,,,,,,,,,,,,,,,,,,,,,,,,,,,,8,001,2021_Apr_08_1353,AB_pic_singleT2,2021.1.2,60.008989346721975,
AB,lag7,7,4,11,0.2,0.05,0.5,,0,1,1,2,,,,,,,,,,,mrpotatohead.jpg,boat.jpg,rooster.jpg,bench01.jpg,escalator.jpg,leafblower01.jpg,frisbee.jpg,cocktailshrimp02.jpg,daddylonglegs.jpg,raccoon.jpg,windmill.jpg,zebra.jpg,rose.jpg,ironingboard01.jpg,spicerack.jpg,cupcake.jpg,swing.jpg,60.985723299999336,63.73513559999992,63.46846910000022,None,0,0,13,63.96843900000022,None,63.96843900000022,None,.\resources\windmill.jpg,67.48494719999962,None,1,67.48494719999962,None,right,1.6728441999994175,67.48494719999962,None,69.21814240000003,None,1,right,0.7634190999997372,69.21814240000003,None,69.21814240000003,None,70.01854709999952,None,None,71.01848539999973,None,71.01848539999973,None,,,,,,,,,,,,,,,,,,,,,,,,,,,,,,,,,,,8,001,2021_Apr_08_1353,AB_pic_singleT2,2021.1.2,60.008989346721975,
AB,lag3,3,3,6,0.2,0.05,0.5,,0,2,2,5,,,,,,,,,,,vacuumcleaner01.jpg,sheep.jpg,chair.jpg,holdfast.jpg,leafrake.jpg,uprightpiano01.jpg,chimney.jpg,steeringwheel.jpg,knee.jpg,pumpkin.jpg,triangle.jpg,greatwhiteshark.jpg,parachute.jpg,marble.jpg,snowshovel.jpg,bow.jpg,lip.jpg,71.03515530000004,73.78456779999942,73.50122740000006,None,0,1,8,74.00119649999942,None,74.00119649999942,None,.\resources\uprightpiano01.jpg,76.26773799999955,None,1,76.26773799999955,None,right,2.33801719999974,76.26773799999955,None,78.65138639999986,None,1,left,0.6902821000003314,78.65138639999986,None,78.65138639999986,None,79.3846824000002,None,None,80.38418369999981,None,80.38418369999981,None,,,,,,,,,,,,,,,,,,,,,,,,,,,,,,,,,,,8,001,2021_Apr_08_1353,AB_pic_singleT2,2021.1.2,60.008989346721975,
AB,lag7,7,5,12,0.2,0.05,0.5,,0,3,3,7,,,,,,,,,,,rooster.jpg,hulahoop.jpg,acousticguitar02.jpg,urinal.jpg,bench01.jpg,tent.jpg,tricycle.jpg,cigar.jpg,callbell.jpg,fridge.jpg,tie02.jpg,zebra.jpg,parachute.jpg,parrot01.jpg,sandcastle.jpg,seal.jpg,bowlingball.jpg,80.40083009999944,83.1506803000002,82.86736759999985,None,1,0,14,83.36733039999945,None,83.36733039999945,None,.\resources\zebra.jpg,87.13378479999938,None,1,87.13378479999938,None,left,2.88802510000005,87.13378479999938,None,90.08406719999948,None,1,right,1.617505500000334,90.08406719999948,None,90.08406719999948,None,91.75063369999953,None,None,92.7505782999995,None,92.7505782999995,None,,,,,,,,,,,,,,,,,,,,,,,,,,,,,,,,,,,8,001,2021_Apr_08_1353,AB_pic_singleT2,2021.1.2,60.008989346721975,
AB,lag2,2,5,7,0.2,0.05,0.5,,0,4,4,9,,,,,,,,,,,dolphin01.jpg,birdfeeder.jpg,boxingglove01.jpg,greywolf.jpg,cross01.jpg,footballhelmet.jpg,hulahoop.jpg,funnel.jpg,chimney.jpg,crosscountryski.jpg,electrictoothbrush01c.jpg,tank.jpg,skunk.jpg,zipper.jpg,skateboard.jpg,witchhat.jpg,duck01.jpg,92.76724980000017,95.51664199999959,95.23332500000015,None,1,0,9,95.73329229999945,None,95.73329229999945,None,.\resources\hulahoop.jpg,98.2497886000001,None,1,98.2497886000001,None,left,3.0598378999993656,98.2497886000001,None,101.34958310000002,None,1,right,1.1120406000000003,101.34958310000002,None,101.34958310000002,None,102.48285599999963,None,None,103.4827988999994,None,103.4827988999994,None,,,,,,,,,,,,,,,,,,,,,,,,,,,,,,,,,,,8,001,2021_Apr_08_1353,AB_pic_singleT2,2021.1.2,60.008989346721975,
AB,lag5,5,4,9,0.2,0.05,0.5,,0,5,5,11,,,,,,,,,,,seagull.jpg,licenseplate.jpg,nose.jpg,dartboard.jpg,christmaslights.jpg,boxingglove01.jpg,ladder.jpg,pumpkin.jpg,tire.jpg,hotdogweiner.jpg,toilet.jpg,makiroll.jpg,rollerblade.jpg,cow.jpg,magneticcompass.jpg,bench01.jpg,knee.jpg,103.49945250000019,106.24936669999988,105.98270820000016,None,1,0,11,106.4826779999994,None,106.4826779999994,None,.\resources\tire.jpg,109.49917819999973,None,1,109.49917819999973,None,left,1.9944193999999698,109.49917819999973,None,111.54952150000008,None,1,right,0.9361613999999463,111.54952150000008,None,111.54952150000008,None,112.53279539999949,None,None,113.53230030000013,None,113.53230030000013,None,,,,,,,,,,,,,,,,,,,,,,,,,,,,,,,,,,,8,001,2021_Apr_08_1353,AB_pic_singleT2,2021.1.2,60.008989346721975,
AB,lag2,2,3,5,0.2,0.05,0.5,,0,6,6,4,,,,,,,,,,,kiwi03.jpg,golfball.jpg,bench01.jpg,frenchfries.jpg,tricycle.jpg,cheetah.jpg,bow.jpg,squirrel.jpg,barrel01.jpg,schoolbus.jpg,tortoise01.jpg,cigar.jpg,discoball.jpg,squid.jpg,foldingchair.jpg,swordfish.jpg,escalator.jpg,113.54940069999975,116.2987879000002,116.01548759999969,None,0,0,7,116.53211099999953,None,116.53211099999953,None,.\resources\tricycle.jpg,118.53199609999956,None,1,118.53199609999956,None,right,1.6896066999997856,118.53199609999956,None,120.26520749999963,None,1,right,0.5645283999992898,120.26520749999963,None,120.26520749999963,None,120.86559949999992,None,None,121.86554199999937,None,121.86554199999937,None,,,,,,,,,,,,,,,,,,,,,,,,,,,,,,,,,,,8,001,2021_Apr_08_1353,AB_pic_singleT2,2021.1.2,60.008989346721975,
AB,lag1,1,3,4,0.2,0.05,0.5,,0,7,7,3,,,,,,,,,,,recyclingbin.jpg,bench01.jpg,noparkingsign.jpg,scooter.jpg,raccoon.jpg,soccerball.jpg,anchor.jpg,wheelbarrow01.jpg,knee.jpg,foosballtable.jpg,trumpet.jpg,cashregister01.jpg,saltshaker03a.jpg,cocktailshrimp02.jpg,floorlamp.jpg,panda.jpg,butterfly.jpg,121.88221749999957,124.63163359999999,124.36496759999955,None,1,0,6,124.86494700000003,None,124.86494700000003,None,.\resources\scooter.jpg,126.63150499999938,None,1,126.63150499999938,None,left,1.2620926999998119,126.63150499999938,None,127.93143559999953,None,1,right,3.426354199999878,127.93143559999953,None,127.93143559999953,None,131.41499759999988,None,None,132.41451260000014,None,132.41451260000014,None,,,,,,,,,,,,,,,,,,,,,,,,,,,,,,,,,,,8,001,2021_Apr_08_1353,AB_pic_singleT2,2021.1.2,60.008989346721975,
AB,lag6,6,5,11,0.2,0.05,0.5,,0,8,8,8,,,,,,,,,,,soccerball.jpg,panda.jpg,humanskeleton.jpg,dandelion.jpg,pirateflag.jpg,redfox.jpg,witchhat.jpg,motorcycle.jpg,parkfountain.jpg,coffeemaker.jpg,swing.jpg,horse.jpg,toyanimal05.jpg,fishskeleton.jpg,chefshat.jpg,cocktailshrimp02.jpg,honeybee.jpg,132.41451309999957,135.16435550000006,134.89770439999938,None,1,0,13,135.41434089999984,None,135.41434089999984,None,.\resources\swing.jpg,138.91414110000005,None,1,138.91414110000005,None,left,1.1716546999996353,138.91414110000005,None,140.13073879999956,None,1,right,0.7310600999999224,140.13073879999956,None,140.13073879999956,None,140.8977887000001,None,None,141.89776439999952,None,141.89776439999952,None,,,,,,,,,,,,,,,,,,,,,,,,,,,,,,,,,,,8,001,2021_Apr_08_1353,AB_pic_singleT2,2021.1.2,60.008989346721975,
AB,lag1,1,4,5,0.2,0.05,0.5,,0,9,9,12,,,,,,,,,,,surfboard.jpg,trampoline.jpg,bluejay.jpg,rooster.jpg,popcorn.jpg,urinal.jpg,stubbywrench01a.jpg,eiffeltower.jpg,trophy01.jpg,callbell.jpg,snowshoe.jpg,helicopter.jpg,spiderweb.jpg,ducttape.jpg,sheep.jpg,showerhead01.jpg,swordfish.jpg,141.91440909999983,144.66382470000008,144.3804970000001,None,0,0,7,144.88046899999972,None,144.88046899999972,None,.\resources\popcorn.jpg,146.89701739999964,None,1,146.89701739999964,None,right,1.3166051000007428,146.89701739999964,None,148.24694009999985,None,1,right,0.59070519999932,148.24694009999985,None,148.24694009999985,None,148.88066699999945,None,None,149.88060969999952,None,149.88060969999952,None,,,,,,,,,,,,,,,,,,,,,,,,,,,,,,,,,,,8,001,2021_Apr_08_1353,AB_pic_singleT2,2021.1.2,60.008989346721975,
AB,lag3,3,5,8,0.2,0.05,0.5,,0,10,10,10,,,,,,,,,,,bullet.jpg,chainsaw.jpg,lion.jpg,lollipop04.jpg,uprightpiano01.jpg,soccerball.jpg,helicopter.jpg,butterfly.jpg,skunk.jpg,football.jpg,car.jpg,steeringwheel.jpg,floorlamp.jpg,rooster.jpg,greywolf.jpg,toyanimal05.jpg,ipad02.jpg,149.8972807,152.6467318999994,152.38009319999946,None,1,1,10,152.8800357,None,152.8800357,None,.\resources\butterfly.jpg,155.64654710000013,None,1,155.64654710000013,None,left,2.383056200000283,155.64654710000013,None,158.06352479999987,None,1,left,0.7342144000003827,158.06352479999987,None,158.06352479999987,None,158.83014449999973,None,None,159.83009629999998,None,159.83009629999998,None,,,,,,,,,,,,,,,,,,,,,,,,,,,,,,,,,,,8,001,2021_Apr_08_1353,AB_pic_singleT2,2021.1.2,60.008989346721975,
AB,lag4,4,4,8,0.2,0.05,0.5,,0,11,11,13,,,,,,,,,,,chimney.jpg,sledgehammer.jpg,cross01.jpg,toolbox02.jpg,swordfish.jpg,christmaslights.jpg,cigar.jpg,dandelion.jpg,worldmap.jpg,cashregister01.jpg,wallclock.jpg,car.jpg,dormer.jpg,punchingbag.jpg,ceilingfan01.jpg,calendar.jpg,tulip02.jpg,159.84675470000002,162.59615039999971,162.31283650000023,None,1,0,10,162.82947549999972,None,162.82947549999972,None,.\resources\dandelion.jpg,165.57932989999972,None,1,165.57932989999972,None,left,1.546294400000079,165.57932989999972,None,167.16255850000016,None,1,right,0.4990680999999313,167.16255850000016,None,167.16255850000016,None,167.6963040999999,None,None,168.69624000000005,None,168.69624000000005,None,,,,,,,,,,,,,,,,,,,,,,,,,,,,,,,,,,,8,001,2021_Apr_08_1353,AB_pic_singleT2,2021.1.2,60.008989346721975,
AB,lag4,4,3,7,0.2,0.05,0.5,,0,12,12,1,,,,,,,,,,,baseballbat.jpg,alligator.jpg,candycane01a.jpg,locker.jpg,safe.jpg,pingpongtable.jpg,crown.jpg,mummy.jpg,church.jpg,sledgehammer.jpg,lily.jpg,ostrich.jpg,greatwhiteshark.jpg,pig.jpg,holdfast.jpg,cork02.jpg,curtain.jpg,168.7129318999996,171.46231239999997,171.17899969999962,None,1,1,9,171.67896990000008,None,171.67896990000008,None,.\resources\crown.jpg,174.19548419999956,None,1,174.19548419999956,None,left,3.0743366000006063,174.19548419999956,None,177.3291147,None,1,left,0.7085000999995827,177.3291147,None,177.3291147,None,178.07905260000007,None,None,179.0789912999997,None,179.0789912999997,None,,,,,,,,,,,,,,,,,,,,,,,,,,,,,,,,,,,8,001,2021_Apr_08_1353,AB_pic_singleT2,2021.1.2,60.008989346721975,
AB,lag5,5,4,9,0.2,0.05,0.5,,0,13,13,6,,,,,,,,,,,fishingrod.jpg,bumpercar.jpg,foosballtable.jpg,dolphin01.jpg,pumpkin.jpg,porcupine.jpg,scorpion.jpg,eiffeltower.jpg,crown.jpg,smokingpipe.jpg,bowtie.jpg,foldingchair.jpg,motorcycle.jpg,discoball.jpg,sink.jpg,basketball01.jpg,makiroll.jpg,179.09565010000006,181.84505360000003,181.5617373999994,None,0,0,11,182.06170759999986,None,182.06170759999986,None,.\resources\crown.jpg,185.0781793999995,None,1,185.0781793999995,None,right,1.0875063000003138,185.0781793999995,None,186.19478319999962,None,1,right,0.5788953000001129,186.19478319999962,None,186.19478319999962,None,186.82852229999935,None,None,187.82847139999996,None,187.82847139999996,None,,,,,,,,,,,,,,,,,,,,,,,,,,,,,,,,,,,8,001,2021_Apr_08_1353,AB_pic_singleT2,2021.1.2,60.008989346721975,
,,,,,,,,,,,,,,,,,,,,,,,,,,,,,,,,,,,,,,,,,,,,,,,,,,,,,,,,,,,,,,,,,,,,,,,,,,,,,space,30.398656899999878,187.84511849999944,None,,,,,,,,,,,,,,,,,,,,,,,,,,,,,,,8,001,2021_Apr_08_1353,AB_pic_singleT2,2021.1.2,60.008989346721975,
AB,lag6,6,5,11,0.2,0.05,0.5,ramp,,,,,0,0,0,0,,,,,,,trumpet.jpg,beerbottle.jpg,redfox.jpg,funnel.jpg,marble.jpg,saxophone.jpg,turnstile.jpg,zipper.jpg,soccerball.jpg,polarbear.jpg,cork02.jpg,smokingpipe.jpg,lion.jpg,ironingboard01.jpg,mailbox02.jpg,mattress.jpg,giraffe.jpg,,,,,0,1,13,,,,,.\resources\cork02.jpg,,,1,,,,,,,,,1,,,,,,,,,None,226.74290129999991,None,226.74290129999991,None,,,,,187.84511849999944,None,218.3934245999999,221.14281500000016,220.87617899999987,None,0.2,221.30947689999994,None,221.30947689999994,None,224.82591599999978,None,224.82591599999978,None,right,1.075841699999728,224.82591599999978,None,225.94251470000017,None,left,0.7831226000007518,225.94251470000017,None,225.94251470000017,None,,,,8,001,2021_Apr_08_1353,AB_pic_singleT2,2021.1.2,60.008989346721975,
AB,lag4,4,4,8,0.19066666667,0.048,0.48,ramp,,,,,0,1,1,1,,,,,,,acousticguitar02.jpg,acorn.jpg,bench01.jpg,triangle.jpg,englishcucumber.jpg,birthdaycandle.jpg,vulture.jpg,guitarcase.jpg,lily.jpg,uprightpiano01.jpg,fishingrod.jpg,bluejay.jpg,snowman.jpg,lawnmower.jpg,leafrake.jpg,punchingbag.jpg,corn02.jpg,,,,,0,0,10,,,,,.\resources\guitarcase.jpg,,,1,,,,,,,,,1,,,,,,,,,None,233.85874870000026,None,233.85874870000026,None,,,,,,,226.75956940000015,229.50898150000012,229.2423288,None,0.19066666667,229.75896529999955,None,229.75896529999955,None,232.39214889999948,None,232.39214889999948,None,right,0.8135887999997067,232.39214889999948,None,233.2754273999999,None,right,0.5622215000003052,233.2754273999999,None,233.2754273999999,None,-10.001360791690049,150.0000000424746,,8,001,2021_Apr_08_1353,AB_pic_singleT2,2021.1.2,60.008989346721975,
AB,lag7,7,4,11,0.18133333334,0.046,0.45999999999999996,ramp,,,,,0,2,2,2,,,,,,,musicsheet.jpg,foosballtable.jpg,spicerack.jpg,accordion01.jpg,snowshoe.jpg,noparkingsign.jpg,chimney.jpg,mrpotatohead.jpg,church.jpg,lollipop04.jpg,dalmatian.jpg,electricguitar01.jpg,jellybean.jpg,tiger02.jpg,pokerchips.jpg,brownsugar.jpg,crab01.jpg,,,,,1,0,13,,,,,.\resources\dalmatian.jpg,,,1,,,,,,,,,1,,,,,,,,,None,246.3084390000002,None,246.3084390000002,None,,,,,,,233.87539099999958,236.62527020000016,236.3585849000001,None,0.18133333334,236.85858759999974,None,236.85858759999974,None,240.0750398,None,240.0750398,None,left,2.466611499999999,240.0750398,None,242.60867919999964,None,right,3.661021800000526,242.60867919999964,None,242.60867919999964,None,-10.002719446389834,150.00000013655824,,8,001,2021_Apr_08_1353,AB_pic_singleT2,2021.1.2,60.008989346721975,
AB,lag5,5,5,10,0.17200000001000001,0.044,0.43999999999999995,ramp,,,,,0,3,3,3,,,,,,,golfball.jpg,bed.jpg,dolphin01.jpg,saxophone.jpg,greathornowl.jpg,pumpkin.jpg,accordion01.jpg,kangaroo.jpg,bullet.jpg,anchor.jpg,handcuffs.jpg,tricycle.jpg,cupcake.jpg,donut.jpg,funnel.jpg,bat.jpg,stool01.jpg,,,,,0,0,12,,,,,.\resources\anchor.jpg,,,1,,,,,,,,,1,,,,,,,,,None,260.5910683,None,260.5910683,None,,,,,,,246.32511650000015,249.0745264999996,248.80787509999936,None,0.17200000001000001,249.30785109999943,None,249.30785109999943,None,252.14101089999986,None,252.14101089999986,None,right,0.7846689000007245,252.14101089999986,None,253.00763039999947,None,right,7.566187599999466,253.00763039999947,None,253.00763039999947,None,-10.004075333761547,150.00000038823157,,8,001,2021_Apr_08_1353,AB_pic_singleT2,2021.1.2,60.008989346721975,
AB,lag2,2,3,5,0.16266666668000002,0.041999999999999996,0.41999999999999993,ramp,,,,,0,4,4,4,,,,,,,dolphin01.jpg,frisbee.jpg,snowshoe.jpg,parkfountain.jpg,bed.jpg,bull.jpg,bowlingpin.jpg,trumpet.jpg,squirrel.jpg,acorn.jpg,witchhat.jpg,cashregister01.jpg,vulture.jpg,ducttape.jpg,escalator.jpg,alligator.jpg,christmastree.jpg,,,,,1,0,7,,,,,.\resources\bed.jpg,,,1,,,,,,,,,1,,,,,,,,,None,268.8738904,None,268.8738904,None,,,,,,,260.60768889999963,263.3570768999998,263.0904179999998,None,0.16266666668000002,263.60705880000023,None,263.60705880000023,None,265.25696359999984,None,265.25696359999984,None,left,1.2446919999993042,265.25696359999984,None,266.59069219999947,None,right,2.2629476000001887,266.59069219999947,None,266.59069219999947,None,-10.005426297173447,150.0000011389316,,8,001,2021_Apr_08_1353,AB_pic_singleT2,2021.1.2,60.008989346721975,
AB,lag3,3,5,8,0.15333333335000002,0.039999999999999994,0.3999999999999999,ramp,,,,,0,5,5,5,,,,,,,jeans01.jpg,greatwhiteshark.jpg,church.jpg,windmill.jpg,worldmap.jpg,dreamcatcher.jpg,stubbywrench01a.jpg,schoolbus.jpg,hammerheadshark.jpg,kiwi03.jpg,pirateflag.jpg,seal.jpg,frenchfries.jpg,fishskeleton.jpg,lollipop04.jpg,bullet.jpg,fortunecookie.jpg,,,,,0,1,10,,,,,.\resources\schoolbus.jpg,,,1,,,,,,,,,1,,,,,,,,,None,277.07338280000005,None,277.07338280000005,None,,,,,,,268.8905353,271.63993200000004,271.37328009999965,None,0.15333333335000002,271.8732559,None,271.8732559,None,274.02309739999964,None,274.02309739999964,None,right,2.4226555000004737,274.02309739999964,None,276.5233956000002,None,left,0.5223126000000775,276.5233956000002,None,276.5233956000002,None,-10.006764806001751,150.00000351094027,,8,001,2021_Apr_08_1353,AB_pic_singleT2,2021.1.2,60.008989346721975,
AB,lag1,1,4,5,0.14400000002000002,0.03799999999999999,0.3799999999999999,ramp,,,,,0,6,6,6,,,,,,,toucan.jpg,tent.jpg,tulip02.jpg,eye.jpg,apron.jpg,lawnmower.jpg,treadmill.jpg,africanelephant.jpg,dromedary.jpg,granolabar01.jpg,slug.jpg,bluejay.jpg,kiwi03.jpg,soccerball.jpg,mattress.jpg,mailbox02.jpg,doghouse.jpg,,,,,1,1,7,,,,,.\resources\apron.jpg,,,1,,,,,,,,,1,,,,,,,,,None,286.439502,None,286.439502,None,,,,,,,277.09001699999953,279.8394379000001,279.5727804999997,None,0.14400000002000002,280.0727535999995,None,280.0727535999995,None,281.55601990000014,None,281.55601990000014,None,left,4.161787999999433,281.55601990000014,None,285.78952630000003,None,left,0.6242729999994481,285.78952630000003,None,285.78952630000003,None,-10.008064094004647,150.00001124737665,,8,001,2021_Apr_08_1353,AB_pic_singleT2,2021.1.2,60.008989346721975,
AB,lag6,6,5,11,0.13466666669000002,0.03599999999999999,0.3599999999999999,ramp,,,,,0,7,7,7,,,,,,,brownsugar.jpg,showerhead01.jpg,shower.jpg,greathornowl.jpg,frenchfries.jpg,bed.jpg,dormer.jpg,holdfast.jpg,leafblower01.jpg,discoball.jpg,surfboard.jpg,calendar.jpg,scooter.jpg,funnel.jpg,fortunecookie.jpg,whiteout.jpg,tent.jpg,,,,,0,0,13,,,,,.\resources\surfboard.jpg,,,1,,,,,,,,,1,,,,,,,,,None,293.35536570000005,None,293.35536570000005,None,,,,,,,286.45616079999945,289.2055997999996,288.93892229999983,None,0.13466666669000002,289.43889750000017,None,289.43889750000017,None,291.85542499999974,None,291.85542499999974,None,right,0.806223399999908,291.85542499999974,None,292.73870519999946,None,right,0.5949883000002956,292.73870519999946,None,292.73870519999946,None,-10.009227634136485,150.00003695987715,,8,001,2021_Apr_08_1353,AB_pic_singleT2,2021.1.2,60.008989346721975,
AB,lag3,3,4,7,0.12533333336000002,0.03399999999999999,0.33999999999999986,ramp,,,,,0,8,8,8,,,,,,,mattress.jpg,tricycle.jpg,ducttape.jpg,urinal.jpg,windmill.jpg,leafblower01.jpg,basketball01.jpg,fortunecookie.jpg,birdfeeder.jpg,dolphin01.jpg,fridge.jpg,microwave.jpg,christmaslights.jpg,helicopter.jpg,eiffeltower.jpg,marble.jpg,wallclock.jpg,,,,,1,0,9,,,,,.\resources\basketball01.jpg,,,1,,,,,,,,,1,,,,,,,,,None,302.1885548999997,None,302.1885548999997,None,,,,,,,293.3724328999997,296.1218437999996,295.8551957999998,None,0.12533333336000002,296.35516839999946,None,296.35516839999946,None,297.9717372999994,None,297.9717372999994,None,left,3.5063320999997813,297.9717372999994,None,301.5719213000002,None,right,0.5700039000003017,301.5719213000002,None,301.5719213000002,None,-10.009903325668345,150.00012340554508,,8,001,2021_Apr_08_1353,AB_pic_singleT2,2021.1.2,60.008989346721975,
AB,lag4,4,4,8,0.11600000003000002,0.03199999999999999,0.31999999999999984,ramp,,,,,0,9,9,9,,,,,,,moon.jpg,cupcake.jpg,kangaroo.jpg,duck01.jpg,lighthouse.jpg,bumpercar.jpg,bowlingpin.jpg,ear.jpg,hammerheadshark.jpg,telescope.jpg,jeep.jpg,saltshaker03a.jpg,dromedary.jpg,foosballtable.jpg,eiffeltower.jpg,tank.jpg,accordion01.jpg,,,,,1,0,10,,,,,.\resources\ear.jpg,,,1,,,,,,,,,1,,,,,,,,,None,308.9877681999995,None,308.9877681999995,None,,,,,,,302.2052232999995,304.9546685999994,304.6880234999999,None,0.11600000003000002,305.18800849999934,None,305.18800849999934,None,306.83790150000004,None,306.83790150000004,None,left,1.559874900000068,306.83790150000004,None,308.47111439999935,None,right,0.48663070000020525,308.47111439999935,None,308.47111439999935,None,-10.0087969897031,150.00041576432758,,8,001,2021_Apr_08_1353,AB_pic_singleT2,2021.1.2,60.008989346721975,
AB,lag5,5,4,9,0.10666666670000002,0.029999999999999985,0.2999999999999998,ramp,,,,,0,10,10,10,,,,,,,redfox.jpg,toilet.jpg,kneepad01c.jpg,tennisracket.jpg,microphone01.jpg,cymbal.jpg,fortunecookie.jpg,ceilingfan01.jpg,xylophone.jpg,ironingboard01.jpg,firehydrant.jpg,coffeemaker.jpg,doghouse.jpg,jeans01.jpg,toad.jpg,bowlingpin.jpg,grizzly.jpg,,,,,0,0,11,,,,,.\resources\xylophone.jpg,,,1,,,,,,,,,1,,,,,,,,,None,315.4544654999998,None,315.4544654999998,None,,,,,,,309.0044133000001,311.7546606999995,311.48800309999933,None,0.10666666670000002,311.9875756000001,None,311.9875756000001,None,313.6541424999996,None,313.6541424999996,None,right,1.2234889999999723,313.6541424999996,None,314.95407309999973,None,right,0.4837611000002653,314.95407309999973,None,314.95407309999973,None,-10.001153334151129,150.00140318068046,,8,001,2021_Apr_08_1353,AB_pic_singleT2,2021.1.2,60.008989346721975,
AB,lag2,2,3,5,0.09733333337000002,0.027999999999999983,0.3,ramp,,,,,0,11,11,11,,,,,,,pirateflag.jpg,treadmill.jpg,ladder.jpg,parkfountain.jpg,tank.jpg,porcupine.jpg,key07.jpg,rooster.jpg,drumstick.jpg,escalator.jpg,witchhat.jpg,toucan.jpg,jackrabbit.jpg,bumpercar.jpg,mummy.jpg,paperairplane.jpg,beerbottle.jpg,,,,,0,0,7,,,,,.\resources\tank.jpg,,,1,,,,,,,,,1,,,,,,,,,None,322.10366679999953,None,322.10366679999953,None,,,,,,,315.4711121999999,318.22059869999975,317.95390940000016,None,0.09733333337000002,318.45386809999945,None,318.45386809999945,None,319.4871472999994,None,319.4871472999994,None,right,1.918655100000251,319.4871472999994,None,321.48704110000017,None,right,0.5748124000001553,321.48704110000017,None,321.48704110000017,None,-9.969929362530102,150.00467706564078,,8,001,2021_Apr_08_1353,AB_pic_singleT2,2021.1.2,60.008989346721975,
AB,lag1,1,4,5,0.08800000004000003,0.02599999999999998,0.3,ramp,,,,,0,12,12,12,,,,,,,volleyball.jpg,scorpion.jpg,alligator.jpg,frenchfries.jpg,ladybug03.jpg,parrot01.jpg,chair.jpg,redfox.jpg,birdnest.jpg,worldmap.jpg,fingerprint.jpg,turnstile.jpg,electrictoothbrush01c.jpg,firehydrant.jpg,cruiseship.jpg,trampoline.jpg,cat.jpg,,,,,0,0,7,,,,,.\resources\ladybug03.jpg,,,1,,,,,,,,,1,,,,,,,,,None,327.4533596999998,None,327.4533596999998,None,,,,,,,322.1203287999997,324.87057579999964,324.6039141000001,None,0.08800000004000003,325.1034942999995,None,325.1034942999995,None,326.0367720999993,None,326.0367720999993,None,right,0.7930200999999215,326.0367720999993,None,326.9033916999997,None,right,0.5342473999999129,326.9033916999997,None,326.9033916999997,None,-9.860203419559875,150.01481140263897,,8,001,2021_Apr_08_1353,AB_pic_singleT2,2021.1.2,60.008989346721975,
AB,lag7,7,5,12,0.07866666671000003,0.02399999999999998,0.3,ramp,,,,,0,13,13,13,,,,,,,horse.jpg,horseshoe.jpg,key07.jpg,witchhat.jpg,rose.jpg,acorn.jpg,lightswitch01.jpg,wheelbarrow01.jpg,lizard.jpg,skippingrope.jpg,mattress.jpg,noparkingsign.jpg,tennisracket.jpg,frisbee.jpg,cashregister01.jpg,wallclock.jpg,swing.jpg,,,,,0,0,14,,,,,.\resources\noparkingsign.jpg,,,1,,,,,,,,,1,,,,,,,,,None,333.48676789999973,None,333.48676789999973,None,,,,,,,327.47002579999935,330.22026409999944,329.9536142999996,None,0.07866666671000003,330.4532215999998,None,330.4532215999998,None,332.01976920000016,None,332.01976920000016,None,right,0.8659253000005265,332.01976920000016,None,332.9530487000002,None,right,0.5086145999994187,332.9530487000002,None,332.9530487000002,None,-9.545471510334263,150.0407565987997,,8,001,2021_Apr_08_1353,AB_pic_singleT2,2021.1.2,60.008989346721975,
AB,lag1,1,3,4,0.06933333338000003,0.021999999999999978,0.3,ramp,,,,,0,14,14,14,,,,,,,knee.jpg,toucan.jpg,hulahoop.jpg,bridge.jpg,dandelion.jpg,athleticsock.jpg,hockeystick.jpg,telescope.jpg,cobra.jpg,arrow02.jpg,windshieldwiper02.jpg,tortoise01.jpg,polarbear.jpg,christmastree.jpg,ear.jpg,noparkingsign.jpg,bull.jpg,,,,,1,0,6,,,,,.\resources\bridge.jpg,,,1,,,,,,,,,1,,,,,,,,,None,340.4193229999999,None,340.4193229999999,None,,,,,,,333.50344099999984,336.2532860000001,335.98622929999965,None,0.06933333338000003,336.50284889999966,None,336.50284889999966,None,337.1528140999999,None,337.1528140999999,None,left,2.6610107999995307,337.1528140999999,None,339.88598869999987,None,right,0.5118692999994892,339.88598869999987,None,339.88598869999987,None,-8.899309494850606,150.0881144916348,,8,001,2021_Apr_08_1353,AB_pic_singleT2,2021.1.2,60.008989346721975,
AB,lag6,6,5,11,0.06000000005000003,0.02,0.3,main,,,,,0,15,15,15,,,,,,,table01.jpg,skunk.jpg,cashregister01.jpg,rooster.jpg,jellybean.jpg,redfox.jpg,ceilingfan01.jpg,snowshovel.jpg,leafrake.jpg,hand01b.jpg,football.jpg,toucan.jpg,trampoline.jpg,wallclock.jpg,swordfish.jpg,fireplace.jpg,birdfeeder.jpg,,,,,1,0,13,,,,,.\resources\football.jpg,,,1,,,,,,,,,1,,,,,,,,,None,347.10265489999966,None,347.10265489999966,None,,,,,,,340.4359773999995,343.1861853999999,342.9195633999998,None,0.0685304355432073,343.4191622999997,None,343.4191622999997,None,344.6857190999999,None,344.6857190999999,None,left,1.4959822000000713,344.6857190999999,None,346.25228869999955,None,right,0.8014077999996516,346.25228869999955,None,346.25228869999955,None,-8.269196012479734,150.1331603653032,,8,001,2021_Apr_08_1353,AB_pic_singleT2,2021.1.2,60.008989346721975,
AB,lag1,1,5,6,0.06000000005000003,0.02,0.3,main,,,,,0,16,16,16,,,,,,,recyclingbin.jpg,seagull.jpg,englishcucumber.jpg,fireplace.jpg,pigeon.jpg,showerhead01.jpg,cigar.jpg,cymbal.jpg,beaver.jpg,bowtie.jpg,harmonica.jpg,cobra.jpg,spicerack.jpg,statue.jpg,elbow.jpg,birthdaycandle.jpg,lightswitch01.jpg,,,,,1,1,8,,,,,.\resources\showerhead01.jpg,,,1,,,,,,,,,1,,,,,,,,,None,354.3023099,None,354.3023099,None,,,,,,,347.11930440000015,349.8687734999994,349.60212319999937,None,0.06431284301286895,350.1020988999999,None,350.1020988999999,None,350.8853849999996,None,350.8853849999996,None,left,2.768415200000163,350.8853849999996,None,353.73565549999967,None,left,0.5502055999995719,353.73565549999967,None,353.73565549999967,None,-7.665963707521319,150.17485493964236,,8,001,2021_Apr_08_1353,AB_pic_singleT2,2021.1.2,60.008989346721975,
AB,lag5,5,3,8,0.06000000005000003,0.02,0.3,main,,,,,0,17,17,17,,,,,,,key07.jpg,jellybean.jpg,athleticsock.jpg,chair.jpg,daddylonglegs.jpg,tulip02.jpg,hockeypuck.jpg,englishcucumber.jpg,guitarcase.jpg,parkingmeter.jpg,skunk.jpg,fridge.jpg,horse.jpg,chefshat.jpg,acorn.jpg,trampoline.jpg,chimney.jpg,,,,,0,1,10,,,,,.\resources\englishcucumber.jpg,,,0,,,,,,,,,1,,,,,,,,,None,364.0516906000001,None,364.0516906000001,None,,,,,,,354.31894589999956,357.06836359999943,356.8017369999998,None,0.06027812094294651,357.31836049999947,None,357.31836049999947,None,358.21831049999946,None,358.21831049999946,None,left,3.915367999999944,358.21831049999946,None,362.2018030999998,None,left,1.8119354999998905,362.2018030999998,None,362.2018030999998,None,-8.281175900725001,150.1431230386097,,8,001,2021_Apr_08_1353,AB_pic_singleT2,2021.1.2,60.008989346721975,
AB,lag3,3,4,7,0.06000000005000003,0.02,0.3,main,,,,,0,18,18,18,,,,,,,birthdaycandle.jpg,boat.jpg,worldmap.jpg,lollipop04.jpg,bathtub.jpg,badmintonracket.jpg,ironingboard01.jpg,snowboard.jpg,locker.jpg,slug.jpg,steeringwheel.jpg,pig.jpg,basketball01.jpg,africanelephant.jpg,humanskeleton.jpg,fishskeleton.jpg,surfboard.jpg,,,,,0,1,9,,,,,.\resources\ironingboard01.jpg,,,1,,,,,,,,,1,,,,,,,,,None,369.7176298000002,None,369.7176298000002,None,,,,,,,364.0683522999998,366.8177976999996,366.55112929999996,None,0.06438836535562723,367.0677737999995,None,367.0677737999995,None,367.9177301999998,None,367.9177301999998,None,right,1.0880982999997286,367.9177301999998,None,369.0842968999996,None,left,0.6175461000002542,369.0842968999996,None,369.0842968999996,None,-8.302792311275837,150.14928475734922,,8,001,2021_Apr_08_1353,AB_pic_singleT2,2021.1.2,60.008989346721975,
AB,lag2,2,5,7,0.06000000005000003,0.02,0.3,main,,,,,0,19,19,19,,,,,,,pig.jpg,curtain.jpg,motorcycle.jpg,shower.jpg,flamingo.jpg,ducttape.jpg,windshieldwiper02.jpg,leafrake.jpg,swing.jpg,rollerblade.jpg,nunchuk.jpg,handcuffs.jpg,humanskeleton.jpg,jellybean.jpg,fishingrod.jpg,ipad02.jpg,baseballbat.jpg,,,,,0,0,9,,,,,.\resources\windshieldwiper02.jpg,,,1,,,,,,,,,0,,,,,,,,,None,375.3673311999999,None,375.3673311999999,None,,,,,,,369.7346345999995,372.48448929999995,372.2178378999997,None,0.06452968915605498,372.71744820000004,None,372.71744820000004,None,373.5840436999997,None,373.5840436999997,None,right,1.2137447999994038,373.5840436999997,None,374.86730139999963,None,left,0.4745600000005652,374.86730139999963,None,374.86730139999963,None,-8.145991311735015,150.16658413374037,,8,001,2021_Apr_08_1353,AB_pic_singleT2,2021.1.2,60.008989346721975,
AB,lag4,4,3,7,0.06000000005000003,0.02,0.3,main,,,,,0,20,20,20,,,,,,,banjo.jpg,turnstile.jpg,dormer.jpg,peacock.jpg,licenseplate.jpg,church.jpg,hockeystick.jpg,coffeemaker.jpg,panda.jpg,hockeypuck.jpg,kneepad01c.jpg,rooster.jpg,leafblower01.jpg,platypus.jpg,tie02.jpg,cat.jpg,funnel.jpg,,,,,1,0,9,,,,,.\resources\hockeystick.jpg,,,0,,,,,,,,,1,,,,,,,,,None,381.93395820000006,None,381.93395820000006,None,,,,,,,375.3839444999994,378.13416830000006,377.8675052999997,None,0.06347807488492463,378.36711019999984,None,378.36711019999984,None,379.2341091999997,None,379.2341091999997,None,right,0.7315873000006832,379.2341091999997,None,380.0503477000002,None,right,1.8675299000005907,380.0503477000002,None,380.0503477000002,None,-8.667507217440255,150.14103678268364,,8,001,2021_Apr_08_1353,AB_pic_singleT2,2021.1.2,60.008989346721975,
AB,lag7,7,5,12,0.06000000005000003,0.02,0.3,main,,,,,0,21,21,21,,,,,,,wheelbarrow01.jpg,nose.jpg,surfboard.jpg,worldmap.jpg,cross01.jpg,safe.jpg,popcorn.jpg,frisbee.jpg,drumset.jpg,chefshat.jpg,leafrake.jpg,waterfountain02.jpg,eiffeltower.jpg,bridge.jpg,waterfall.jpg,acorn.jpg,windmill.jpg,,,,,0,1,14,,,,,.\resources\waterfountain02.jpg,,,1,,,,,,,,,1,,,,,,,,,None,387.81660170000015,None,387.81660170000015,None,,,,,,,381.9506186999997,384.7004763999994,384.43381709999994,None,0.0669623827968643,384.9333987,None,384.9333987,None,386.2666583,None,386.2666583,None,right,0.9712771999993492,386.2666583,None,387.31659709999985,None,left,0.4810902999997779,387.31659709999985,None,387.31659709999985,None,-8.625893507072945,150.15218667556476,,8,001,2021_Apr_08_1353,AB_pic_singleT2,2021.1.2,60.008989346721975,
AB,lag6,6,5,11,0.06000000005000003,0.02,0.3,main,,,,,0,22,22,22,,,,,,,spicerack.jpg,redfox.jpg,acorn.jpg,lion.jpg,dragonfly01.jpg,lily.jpg,jellyfish.jpg,nosmokingsign.jpg,knee.jpg,cheetah.jpg,stool01.jpg,parkingmeter.jpg,rubikcube.jpg,horse.jpg,cashregister01.jpg,chair.jpg,bowlingball.jpg,,,,,1,1,13,,,,,.\resources\stool01.jpg,,,1,,,,,,,,,1,,,,,,,,,None,394.76621199999937,None,394.76621199999937,None,,,,,,,387.83362489999945,390.5834737999994,390.3168238999997,None,0.06668026680041805,390.8334503999995,None,390.8334503999995,None,392.06631879999986,None,392.06631879999986,None,left,1.7313999999996668,392.06631879999986,None,393.86621729999933,None,left,0.8755316000006133,393.86621729999933,None,393.86621729999933,None,-8.512683631772601,150.1680404203498,,8,001,2021_Apr_08_1353,AB_pic_singleT2,2021.1.2,60.008989346721975,
AB,lag7,7,5,12,0.06000000005000003,0.02,0.3,main,,,,,0,23,23,23,,,,,,,bluecheese.jpg,foosballtable.jpg,cross01.jpg,ostrich.jpg,mummy.jpg,tent.jpg,lighthouse.jpg,anchor.jpg,parkfountain.jpg,greywolf.jpg,tricycle.jpg,jellybean.jpg,boat.jpg,windshieldwiper02.jpg,saltshaker03a.jpg,redfox.jpg,trumpet.jpg,,,,,1,0,14,,,,,.\resources\jellybean.jpg,,,1,,,,,,,,,1,,,,,,,,,None,400.9329771000001,None,400.9329771000001,None,,,,,,,394.78283029999966,397.53311179999946,397.2664679999998,None,0.06591933919616526,397.78308039999956,None,397.78308039999956,None,399.0826366000001,None,399.0826366000001,None,left,1.3310554999998203,399.0826366000001,None,400.48297529999945,None,right,0.4188137999999526,400.48297529999945,None,400.48297529999945,None,-8.394881344573433,150.1840426584504,,8,001,2021_Apr_08_1353,AB_pic_singleT2,2021.1.2,60.008989346721975,
AB,lag5,5,3,8,0.06000000005000003,0.02,0.3,main,,,,,0,24,24,24,,,,,,,saltshaker03a.jpg,squirrel.jpg,lightswitch01.jpg,dromedary.jpg,butterfly.jpg,motorcycle.jpg,tulip02.jpg,panda.jpg,sandcastle.jpg,fridge.jpg,jackrabbit.jpg,kangaroo.jpg,swordfish.jpg,nunchuk.jpg,airhockeytable.jpg,key07.jpg,bridge.jpg,,,,,1,1,10,,,,,.\resources\panda.jpg,,,1,,,,,,,,,1,,,,,,,,,None,407.0826590999994,None,407.0826590999994,None,,,,,,,400.94963389999975,403.6990684000002,403.4324227999996,None,0.06512792925635742,403.94906119999996,None,403.94906119999996,None,404.89900020000005,None,404.89900020000005,None,left,1.578786900000523,404.89900020000005,None,406.56602829999974,None,left,0.47167829999943933,406.56602829999974,None,406.56602829999974,None,-8.279395168195615,150.1995857048898,,8,001,2021_Apr_08_1353,AB_pic_singleT2,2021.1.2,60.008989346721975,
AB,lag3,3,3,6,0.06000000005000003,0.02,0.3,main,,,,,0,25,25,25,,,,,,,banjo.jpg,accordion01.jpg,kangaroo.jpg,hockeypuck.jpg,paperairplane.jpg,greywolf.jpg,lightswitch01.jpg,volleyball.jpg,punchingbag.jpg,cat.jpg,beerbottle.jpg,kite.jpg,leafrake.jpg,skippingrope.jpg,eiffeltower.jpg,donut.jpg,jellyfish.jpg,,,,,1,0,8,,,,,.\resources\greywolf.jpg,,,1,,,,,,,,,1,,,,,,,,,None,412.7323378999998,None,412.7323378999998,None,,,,,,,407.0993453000001,409.8487256999997,409.5820718999994,None,0.06435230486125658,410.09870839999985,None,410.09870839999985,None,410.8653383000001,None,410.8653383000001,None,left,1.3243682000002082,410.8653383000001,None,412.2657294999999,None,right,0.42014560000006895,412.2657294999999,None,412.2657294999999,None,-8.166469694476888,150.21453192588032,,8,001,2021_Apr_08_1353,AB_pic_singleT2,2021.1.2,60.008989346721975,
AB,lag2,2,3,5,0.06000000005000003,0.02,0.3,main,,,,,0,26,26,26,,,,,,,kangaroo.jpg,chair.jpg,chainsaw.jpg,ladder.jpg,pokerchips.jpg,funnel.jpg,squirrel.jpg,barrel01.jpg,bowtie.jpg,musicsheet.jpg,schoolbus.jpg,recyclingbin.jpg,crosscountryski.jpg,foosballtable.jpg,bench01.jpg,dormer.jpg,giraffe.jpg,,,,,1,1,7,,,,,.\resources\pokerchips.jpg,,,1,,,,,,,,,1,,,,,,,,,None,419.8486139999994,None,419.8486139999994,None,,,,,,,412.74901919999957,415.4984005999995,415.23176629999944,None,0.06359414054766922,415.7483870999995,None,415.7483870999995,None,416.43169080000007,None,416.43169080000007,None,left,2.5021065000000817,416.43169080000007,None,419.0319970999999,None,left,0.7817236999999295,419.0319970999999,None,419.0319970999999,None,-8.055727852949543,150.22881324477802,,8,001,2021_Apr_08_1353,AB_pic_singleT2,2021.1.2,60.008989346721975,
AB,lag1,1,5,6,0.06000000005000003,0.02,0.3,main,,,,,0,27,27,27,,,,,,,parkingmeter.jpg,trumpet.jpg,pigeon.jpg,fingerprint.jpg,witchhat.jpg,makiroll.jpg,stool01.jpg,kangaroo.jpg,fortunecookie.jpg,tiger02.jpg,drumstick.jpg,tank.jpg,pig.jpg,honeybee.jpg,turnstile.jpg,cruiseship.jpg,zebra.jpg,,,,,0,0,8,,,,,.\resources\makiroll.jpg,,,1,,,,,,,,,0,,,,,,,,,None,425.1478306999996,None,425.1478306999996,None,,,,,,,419.8652739999998,422.6146627999997,422.34800879999966,None,0.06285094057612574,422.8479834999998,None,422.8479834999998,None,423.6146055999998,None,423.6146055999998,None,right,0.9752131000004738,423.6146055999998,None,424.6645244000001,None,left,0.453189900000325,424.6645244000001,None,424.6645244000001,None,-7.946812290647142,150.24238358996593,,8,001,2021_Apr_08_1353,AB_pic_singleT2,2021.1.2,60.008989346721975,
AB,lag4,4,5,9,0.06000000005000003,0.02,0.3,main,,,,,0,28,28,28,,,,,,,tulip02.jpg,spear02.jpg,ostrich.jpg,handcuffs.jpg,airhockeytable.jpg,tree.jpg,spicerack.jpg,mummy.jpg,nose.jpg,sandcastle.jpg,footballhelmet.jpg,accordion01.jpg,motorcycle.jpg,horseshoe.jpg,flag.jpg,trophy01.jpg,dragonfly01.jpg,,,,,0,0,11,,,,,.\resources\nose.jpg,,,0,,,,,,,,,1,,,,,,,,,None,431.06417049999965,None,431.06417049999965,None,,,,,,,425.1644884999996,427.91433640000014,427.64768639999966,None,0.06212033135229327,428.1643217999999,None,428.1643217999999,None,429.16426729999966,None,429.16426729999966,None,left,1.4095505000004778,429.16426729999966,None,430.6479021999994,None,right,0.3899416000003839,430.6479021999994,None,430.6479021999994,None,-8.271113891440635,150.22968742509903,,8,001,2021_Apr_08_1353,AB_pic_singleT2,2021.1.2,60.008989346721975,
AB,lag3,3,4,7,0.06000000005000003,0.02,0.3,main,,,,,0,29,29,29,,,,,,,wheelbarrow01.jpg,ostrich.jpg,beerbottle.jpg,lightswitch01.jpg,giraffe.jpg,jellybean.jpg,well.jpg,barrel01.jpg,discoball.jpg,saltshaker03a.jpg,exitsign.jpg,makiroll.jpg,trophy01.jpg,noparkingsign.jpg,hotdogweiner.jpg,drumset.jpg,mummy.jpg,,,,,0,1,9,,,,,.\resources\well.jpg,,,1,,,,,,,,,0,,,,,,,,,None,436.9638148000002,None,436.9638148000002,None,,,,,,,431.0811993999996,433.8306343999993,433.5639821999994,None,0.06428428640228305,434.0639621999999,None,434.0639621999999,None,434.93057989999943,None,434.93057989999943,None,right,1.4673751999998785,434.93057989999943,None,436.46382189999986,None,right,0.47003820000009,436.46382189999986,None,436.46382189999986,None,-8.226809959087856,150.2404419612477,,8,001,2021_Apr_08_1353,AB_pic_singleT2,2021.1.2,60.008989346721975,
AB,lag1,1,4,5,0.06000000005000003,0.02,0.3,main,,,,,0,30,30,30,,,,,,,drumstick.jpg,bull.jpg,jackrabbit.jpg,vacuumcleaner01.jpg,slug.jpg,seal.jpg,granolabar01.jpg,showerhead01.jpg,sledgehammer.jpg,football.jpg,whiteout.jpg,bluecheese.jpg,ceilingfan01.jpg,electricguitar01.jpg,tortoise01.jpg,kangaroo.jpg,ant.jpg,,,,,0,0,7,,,,,.\resources\slug.jpg,,,0,,,,,,,,,1,,,,,,,,,None,442.5468388999996,None,442.5468388999996,None,,,,,,,436.98046410000006,439.7307128000002,439.4640701999997,None,0.06398479793268515,439.96362919999956,None,439.96362919999956,None,440.66359120000016,None,440.66359120000016,None,left,1.4222042999999758,440.66359120000016,None,442.16349699999955,None,right,0.3542596000006597,442.16349699999955,None,442.16349699999955,None,-8.491273745788597,150.23140406990933,,8,001,2021_Apr_08_1353,AB_pic_singleT2,2021.1.2,60.008989346721975,
AB,lag4,4,5,9,0.06000000005000003,0.02,0.3,main,,,,,0,31,31,31,,,,,,,pingpongtable.jpg,floorlamp.jpg,squid.jpg,greywolf.jpg,jackrabbit.jpg,wallclock.jpg,lightswitch01.jpg,greathornowl.jpg,nose.jpg,pigeon.jpg,tulip02.jpg,cross01.jpg,key07.jpg,ironingboard01.jpg,turnstile.jpg,panda.jpg,pirateflag.jpg,,,,,1,0,11,,,,,.\resources\nose.jpg,,,0,,,,,,,,,1,,,,,,,,,None,448.1631598000002,None,448.1631598000002,None,,,,,,,442.5638755,445.31373619999977,445.0470661999998,None,0.06574902343528666,445.56330479999997,None,445.56330479999997,None,446.5965820000001,None,446.5965820000001,None,right,0.9931463000002623,446.5965820000001,None,447.6631858999999,None,right,0.454734500000086,447.6631858999999,None,447.6631858999999,None,-8.732664550249547,150.22273623059672,,8,001,2021_Apr_08_1353,AB_pic_singleT2,2021.1.2,60.008989346721975,
AB,lag6,6,3,9,0.06000000005000003,0.02,0.3,main,,,,,0,32,32,32,,,,,,,hockeypuck.jpg,firehydrant.jpg,cannon.jpg,lily.jpg,worldmap.jpg,redfox.jpg,boat.jpg,daddylonglegs.jpg,car.jpg,bluejay.jpg,tire.jpg,ant.jpg,tulip02.jpg,curtain.jpg,acousticguitar02.jpg,dalmatian.jpg,wheelchair.jpg,,,,,1,1,11,,,,,.\resources\car.jpg,,,1,,,,,,,,,1,,,,,,,,,None,455.99655030000014,None,455.99655030000014,None,,,,,,,448.17982589999974,450.92971729999954,450.6630590999994,None,0.06735970310004546,451.1630363999993,None,451.1630363999993,None,452.2463071000002,None,452.2463071000002,None,left,1.1195514000000912,452.2463071000002,None,453.4633703999998,None,left,2.4863923000002615,453.4633703999998,None,453.4633703999998,None,-8.689540857769453,150.23273961596837,,8,001,2021_Apr_08_1353,AB_pic_singleT2,2021.1.2,60.008989346721975,
AB,lag2,2,3,5,0.06000000005000003,0.02,0.3,main,,,,,0,33,33,33,,,,,,,birdhouse.jpg,dandelion.jpg,telescope.jpg,marble.jpg,pokerchips.jpg,acorn.jpg,cactus.jpg,tortoise01.jpg,handcuffs.jpg,pooltable.jpg,anchor.jpg,wheelbarrow01.jpg,rubikcube.jpg,christmastree.jpg,totempole.jpg,smokingpipe.jpg,car.jpg,,,,,0,0,7,,,,,.\resources\pokerchips.jpg,,,0,,,,,,,,,1,,,,,,,,,None,461.2624683000002,None,461.2624683000002,None,,,,,,,456.0132163999997,458.7626068999998,458.49598609999975,None,0.0670681719886467,458.9959238000001,None,458.9959238000001,None,459.7125552999996,None,459.7125552999996,None,left,1.085132700000031,459.7125552999996,None,460.8958203000002,None,right,0.3499082999996972,460.8958203000002,None,460.8958203000002,None,-8.883118854967673,150.22565891715,,8,001,2021_Apr_08_1353,AB_pic_singleT2,2021.1.2,60.008989346721975,
AB,lag5,5,4,9,0.06000000005000003,0.02,0.3,main,,,,,0,34,34,34,,,,,,,exitsign.jpg,callbell.jpg,rose.jpg,cocktailshrimp02.jpg,nosmokingsign.jpg,badmintonracket.jpg,drumset.jpg,bumpercar.jpg,grizzly.jpg,mummy.jpg,footballhelmet.jpg,dormer.jpg,turnstile.jpg,mrpotatohead.jpg,moon.jpg,barrel01.jpg,tarantula.jpg,,,,,0,0,11,,,,,.\resources\grizzly.jpg,,,1,,,,,,,,,1,,,,,,,,,None,466.36215239999984,None,466.36215239999984,None,,,,,,,461.2791470000002,464.02897609999945,463.7623272000001,None,0.06835991461186522,464.27896079999937,None,464.27896079999937,None,465.3455350999993,None,465.3455350999993,None,right,0.5961891999995714,465.3455350999993,None,466.0121664999997,None,right,0.31360229999972944,466.0121664999997,None,466.0121664999997,None,-8.843012158830179,150.23417492436968,,8,001,2021_Apr_08_1353,AB_pic_singleT2,2021.1.2,60.008989346721975,
AB,lag7,7,5,12,0.06000000005000003,0.02,0.3,main,,,,,0,35,35,35,,,,,,,ducttape.jpg,musicsheet.jpg,bow.jpg,surfboard.jpg,eyepatch.jpg,snowshoe.jpg,bluejay.jpg,windmill.jpg,cruiseship.jpg,ear.jpg,guitarcase.jpg,beerbottle.jpg,granolabar01.jpg,basketball01.jpg,snowboard.jpg,banjo.jpg,knee.jpg,,,,,0,0,14,,,,,.\resources\beerbottle.jpg,,,1,,,,,,,,,1,,,,,,,,,None,471.7789314999998,None,471.7789314999998,None,,,,,,,466.3788235000002,469.1286543999995,468.86200499999995,None,0.06808907843438199,469.37863879999986,None,469.37863879999986,None,470.71189700000014,None,470.71189700000014,None,right,0.5898092000006727,470.71189700000014,None,471.3956266999994,None,right,0.3540712000003623,471.3956266999994,None,471.3956266999994,None,-8.797895675241932,150.24335079237028,,8,001,2021_Apr_08_1353,AB_pic_singleT2,2021.1.2,60.008989346721975,
AB,lag5,5,5,10,0.06000000005000003,0.02,0.3,main,,,,,0,36,36,36,,,,,,,recyclingbin.jpg,swordfish.jpg,scooter.jpg,vulture.jpg,frisbee.jpg,leafblower01.jpg,foosballtable.jpg,bumpercar.jpg,calendar.jpg,spicerack.jpg,xylophone.jpg,bowlingball.jpg,mrpotatohead.jpg,tarantula.jpg,sink.jpg,honeybee.jpg,floorlamp.jpg,,,,,0,0,12,,,,,.\resources\spicerack.jpg,,,1,,,,,,,,,1,,,,,,,,,None,476.8448940999995,None,476.8448940999995,None,,,,,,,471.7955972999998,474.54501769999933,474.2783644000001,None,0.06778463061860172,474.7783352999995,None,474.7783352999995,None,475.9449565999994,None,475.9449565999994,None,right,0.46874209999987215,475.9449565999994,None,476.49490499999956,None,right,0.31092329999955837,476.49490499999956,None,476.49490499999956,None,-8.75338958525114,150.25274200846346,,8,001,2021_Apr_08_1353,AB_pic_singleT2,2021.1.2,60.008989346721975,
AB,lag7,7,3,10,0.06000000005000003,0.02,0.3,main,,,,,0,37,37,37,,,,,,,zebra.jpg,bullet.jpg,dromedary.jpg,redfox.jpg,crosscountryski.jpg,eiffeltower.jpg,bowlingpin.jpg,uprightpiano01.jpg,trampoline.jpg,jellyfish.jpg,frenchfries.jpg,parkfountain.jpg,lip.jpg,beerbottle.jpg,sausage.jpg,cross01.jpg,birdfeeder.jpg,,,,,0,1,12,,,,,.\resources\jellyfish.jpg,,,1,,,,,,,,,1,,,,,,,,,None,482.6449402999995,None,482.6449402999995,None,,,,,,,476.8615528,479.61141059999954,479.3447424999995,None,0.06748418571822058,479.8447126000001,None,479.8447126000001,None,481.0113129000001,None,481.0113129000001,None,right,1.0824247000000469,481.0113129000001,None,482.1612218,None,left,0.468519600000036,482.1612218,None,482.1612218,None,-8.709564214466193,150.2622743908404,,8,001,2021_Apr_08_1353,AB_pic_singleT2,2021.1.2,60.008989346721975,
AB,lag4,4,3,7,0.06000000005000003,0.02,0.3,main,,,,,0,38,38,38,,,,,,,triangle.jpg,elbow.jpg,humanskeleton.jpg,birdnest.jpg,telescope.jpg,microwave.jpg,panda.jpg,christmaslights.jpg,baseballbat.jpg,fridge.jpg,musicsheet.jpg,ducttape.jpg,lawnmower.jpg,dartboard.jpg,waterfountain02.jpg,peacock.jpg,church.jpg,,,,,0,0,9,,,,,.\resources\panda.jpg,,,1,,,,,,,,,1,,,,,,,,,None,487.4775821000001,None,487.4775821000001,None,,,,,,,482.66160089999994,485.41107079999983,485.14480079999976,None,0.06718824546290444,485.6443595999999,None,485.6443595999999,None,486.5443078999997,None,486.5443078999997,None,right,0.47741039999982604,486.5443078999997,None,487.09427400000004,None,right,0.35151109999969776,487.09427400000004,None,487.09427400000004,None,-8.666361443511024,150.2718901876262,,8,001,2021_Apr_08_1353,AB_pic_singleT2,2021.1.2,60.008989346721975,
AB,lag3,3,5,8,0.06000000005000003,0.02,0.3,main,,,,,0,39,39,39,,,,,,,dragonfly01.jpg,cigar.jpg,horseshoe.jpg,footballhelmet.jpg,bow.jpg,fireplace.jpg,tennisracket.jpg,sheep.jpg,giraffe.jpg,cow.jpg,stubbywrench01a.jpg,squirrel.jpg,fridge.jpg,hulahoop.jpg,firehydrant.jpg,rose.jpg,snowshovel.jpg,,,,,0,0,10,,,,,.\resources\sheep.jpg,,,1,,,,,,,,,1,,,,,,,,,None,492.6439903999997,None,492.6439903999997,None,,,,,,,487.4942519999995,490.24450549999983,489.97784779999984,None,0.06689644877747519,490.47745010000017,None,490.47745010000017,None,491.46069179999995,None,491.46069179999995,None,right,0.7851381999998921,491.46069179999995,None,492.32730319999973,None,right,0.29444359999979497,492.32730319999973,None,492.32730319999973,None,-8.623726544218567,150.28153846938886,,8,001,2021_Apr_08_1353,AB_pic_singleT2,2021.1.2,60.008989346721975,
AB,lag2,2,4,6,0.06000000005000003,0.02,0.3,main,,,,,0,40,40,40,,,,,,,cashregister01.jpg,africanelephant.jpg,electrictoothbrush01c.jpg,shovel01.jpg,ostrich.jpg,bumpercar.jpg,totempole.jpg,alligator.jpg,spicerack.jpg,chimney.jpg,showerhead01.jpg,sink.jpg,greathornowl.jpg,greywolf.jpg,footballhelmet.jpg,toilet.jpg,spiderweb.jpg,,,,,0,0,8,,,,,.\resources\bumpercar.jpg,,,1,,,,,,,,,0,,,,,,,,,None,497.8270013999998,None,497.8270013999998,None,,,,,,,492.66062799999963,495.41049639999983,495.1442271999995,None,0.06660845375479982,495.64379259999987,None,495.64379259999987,None,496.4437459999999,None,496.4437459999999,None,right,0.9382185000004029,496.4437459999999,None,497.4603522999996,None,left,0.32984029999988707,497.4603522999996,None,497.4603522999996,None,-8.581610603307597,150.29117410371256,,8,001,2021_Apr_08_1353,AB_pic_singleT2,2021.1.2,60.008989346721975,
AB,lag1,1,4,5,0.06000000005000003,0.02,0.3,main,,,,,0,41,41,41,,,,,,,sink.jpg,dreamcatcher.jpg,squirrel.jpg,parkingmeter.jpg,jackrabbit.jpg,rooster.jpg,ceilingfan01.jpg,chefshat.jpg,magneticcompass.jpg,paperairplane.jpg,triangle.jpg,tarantula.jpg,cannon.jpg,barrel01.jpg,drumset.jpg,bowlingpin.jpg,platypus.jpg,,,,,0,0,7,,,,,.\resources\jackrabbit.jpg,,,0,,,,,,,,,1,,,,,,,,,None,503.0600831,None,503.0600831,None,,,,,,,497.8436781999999,500.59356059999936,500.32735330000014,None,0.06632395430984431,500.8435462999996,None,500.8435462999996,None,501.5435134999998,None,501.5435134999998,None,left,1.0383381999999983,501.5435134999998,None,502.67677379999986,None,right,0.3530044999997699,502.67677379999986,None,502.67677379999986,None,-8.736664939407481,150.28724528465722,,8,001,2021_Apr_08_1353,AB_pic_singleT2,2021.1.2,60.008989346721975,
AB,lag6,6,5,11,0.06000000005000003,0.02,0.3,main,,,,,0,42,42,42,,,,,,,shower.jpg,calendar.jpg,stubbywrench01a.jpg,leafblower01.jpg,lollipop04.jpg,acorn.jpg,table01.jpg,windshieldwiper02.jpg,statue.jpg,christmaslights.jpg,hockeystick.jpg,chimney.jpg,escalator.jpg,giraffe.jpg,lip.jpg,bullet.jpg,boat.jpg,,,,,0,1,13,,,,,.\resources\hockeystick.jpg,,,1,,,,,,,,,1,,,,,,,,,None,509.32684619999947,None,509.32684619999947,None,,,,,,,503.0767688999995,505.82661109999935,505.5599451999997,None,0.06735740801791662,506.0599152999994,None,506.0599152999994,None,507.3098491999999,None,507.3098491999999,None,right,0.8799291999994239,507.3098491999999,None,508.25981859999956,None,left,1.0498969000000216,508.25981859999956,None,508.25981859999956,None,-8.704208595998878,150.2957115782216,,8,001,2021_Apr_08_1353,AB_pic_singleT2,2021.1.2,60.008989346721975,
AB,lag5,5,5,10,0.06000000005000003,0.02,0.3,main,,,,,0,43,43,43,,,,,,,cymbal.jpg,hulahoop.jpg,well.jpg,duck01.jpg,dalmatian.jpg,foot.jpg,honeybee.jpg,fortunecookie.jpg,urinal.jpg,chefshat.jpg,christmaslights.jpg,saltshaker03a.jpg,rose.jpg,englishcucumber.jpg,paperairplane.jpg,ironingboard01.jpg,jellybean.jpg,,,,,0,0,12,,,,,.\resources\chefshat.jpg,,,1,,,,,,,,,1,,,,,,,,,None,514.3428069999998,None,514.3428069999998,None,,,,,,,509.3435101999994,512.0929041999998,511.82626569999957,None,0.0671376638172883,512.342893,None,512.342893,None,513.4928265999997,None,513.4928265999997,None,right,0.44090239999968617,513.4928265999997,None,514.0261326,None,right,0.2836231000001135,514.0261326,None,514.0261326,None,-8.667627584166414,150.30452856705028,,8,001,2021_Apr_08_1353,AB_pic_singleT2,2021.1.2,60.008989346721975,
AB,lag7,7,5,12,0.06000000005000003,0.02,0.3,main,,,,,0,44,44,44,,,,,,,pigeon.jpg,dragonfly01.jpg,moon.jpg,greywolf.jpg,callbell.jpg,bed.jpg,flamingo.jpg,bull.jpg,arrow02.jpg,knee.jpg,lightswitch01.jpg,wheelchair.jpg,stool01.jpg,baseballbat.jpg,harmonica.jpg,raccoon.jpg,platypus.jpg,,,,,1,0,14,,,,,.\resources\wheelchair.jpg,,,1,,,,,,,,,1,,,,,,,,,None,520.0924478999993,None,520.0924478999993,None,,,,,,,514.3594463999998,517.1092891999997,516.8426328999994,None,0.06689034616013774,517.3426036000001,None,517.3426036000001,None,518.6758651999999,None,518.6758651999999,None,left,1.0098807000003944,518.6758651999999,None,519.7758113,None,right,0.29398310000033234,519.7758113,None,519.7758113,None,-8.63132893114879,150.3133682337954,,8,001,2021_Apr_08_1353,AB_pic_singleT2,2021.1.2,60.008989346721975,
AB,lag3,3,4,7,0.06000000005000003,0.02,0.3,main,,,,,0,45,45,45,,,,,,,spear02.jpg,peacock.jpg,waterfall.jpg,holdfast.jpg,snowshovel.jpg,floorlamp.jpg,spicerack.jpg,football.jpg,slug.jpg,cloud.jpg,locker.jpg,pirateflag.jpg,badmintonracket.jpg,ipad02.jpg,eyepatch.jpg,seal.jpg,cow.jpg,,,,,0,0,9,,,,,.\resources\spicerack.jpg,,,1,,,,,,,,,1,,,,,,,,,None,524.9426289999999,None,524.9426289999999,None,,,,,,,520.1091305,522.8589616999998,522.5923095999997,None,0.06664492593025662,523.1089524999998,None,523.1089524999998,None,523.9922299,None,523.9922299,None,right,0.5255667999999787,523.9922299,None,524.6093236999995,None,right,0.292492300000049,524.6093236999995,None,524.6093236999995,None,-8.595390097290428,150.32219009172186,,8,001,2021_Apr_08_1353,AB_pic_singleT2,2021.1.2,60.008989346721975,
AB,lag2,2,5,7,0.06000000005000003,0.02,0.3,main,,,,,0,46,46,46,,,,,,,duck01.jpg,tennisracket.jpg,escalator.jpg,spicerack.jpg,motorcycle.jpg,whiteout.jpg,eyepatch.jpg,ducttape.jpg,leafrake.jpg,lollipop04.jpg,toilet.jpg,ladder.jpg,mouse.jpg,dormer.jpg,bacon.jpg,englishcucumber.jpg,zipper.jpg,,,,,0,0,9,,,,,.\resources\eyepatch.jpg,,,1,,,,,,,,,1,,,,,,,,,None,530.0922836999996,None,530.0922836999996,None,,,,,,,524.9593047999997,527.7086835999999,527.4420316999995,None,0.06640193608355366,527.9586675999999,None,527.9586675999999,None,528.8252616,None,528.8252616,None,right,0.7166475000003629,528.8252616,None,529.6256629999998,None,right,0.4281287000003431,529.6256629999998,None,529.6256629999998,None,-8.559787096528476,150.3309638295718,,8,001,2021_Apr_08_1353,AB_pic_singleT2,2021.1.2,60.008989346721975,
AB,lag6,6,5,11,0.06000000005000003,0.02,0.3,main,,,,,0,47,47,47,,,,,,,cow.jpg,cupcake.jpg,greywolf.jpg,foot.jpg,doghouse.jpg,cigar.jpg,pumpkin.jpg,ladder.jpg,musicsheet.jpg,guitarcase.jpg,bull.jpg,snowshovel.jpg,airhockeytable.jpg,electricguitar01.jpg,spear02.jpg,tiger02.jpg,arrow02.jpg,,,,,0,0,13,,,,,.\resources\bull.jpg,,,1,,,,,,,,,1,,,,,,,,,None,535.1582123999995,None,535.1582123999995,None,,,,,,,530.1089666999997,532.8583628999995,532.5917282999999,None,0.06616122989089664,533.1083572999996,None,533.1083572999996,None,534.3249500000002,None,534.3249500000002,None,right,0.4248298000002251,534.3249500000002,None,534.8415601999995,None,right,0.2762156999997387,534.8415601999995,None,534.8415601999995,None,-8.52449565647186,150.33966231791035,,8,001,2021_Apr_08_1353,AB_pic_singleT2,2021.1.2,60.008989346721975,
AB,lag1,1,4,5,0.06000000005000003,0.02,0.3,main,,,,,0,48,48,48,,,,,,,holdfast.jpg,greywolf.jpg,uprightpiano01.jpg,ipad02.jpg,ducttape.jpg,licenseplate.jpg,coffeemaker.jpg,cat.jpg,masquerademask01.jpg,electrictoothbrush01c.jpg,snowshoe.jpg,ladybug03.jpg,pirateflag.jpg,corn02.jpg,platypus.jpg,dormer.jpg,sausage.jpg,,,,,0,0,7,,,,,.\resources\ducttape.jpg,,,0,,,,,,,,,1,,,,,,,,,None,540.9745747999993,None,540.9745747999993,None,,,,,,,535.1748748999998,537.92472,537.6580679999997,None,0.06592265716703724,538.1580782000001,None,538.1580782000001,None,538.8747213999995,None,538.8747213999995,None,left,1.5553530999995928,538.8747213999995,None,540.5079215999995,None,right,0.44182270000055723,540.5079215999995,None,540.5079215999995,None,-8.655914295007594,150.3371482352565,,8,001,2021_Apr_08_1353,AB_pic_singleT2,2021.1.2,60.008989346721975,
AB,lag4,4,3,7,0.06000000005000003,0.02,0.3,main,,,,,0,49,49,49,,,,,,,motorcycle.jpg,lawnmower.jpg,baseballbat.jpg,tarantula.jpg,duck01.jpg,nosmokingsign.jpg,surfboard.jpg,airhockeytable.jpg,daddylonglegs.jpg,xylophone.jpg,eiffeltower.jpg,kangaroo.jpg,snowshovel.jpg,harmonica.jpg,fingerprint.jpg,honeybee.jpg,granolabar01.jpg,,,,,1,0,9,,,,,.\resources\surfboard.jpg,,,1,,,,,,,,,1,,,,,,,,,None,546.5413274,None,546.5413274,None,,,,,,,540.9912119,543.7414911999995,543.4748138999994,None,0.0667979190373682,543.9743772000002,None,543.9743772000002,None,544.8743260000001,None,544.8743260000001,None,left,1.0835698000000775,544.8743260000001,None,546.0242699999999,None,right,0.4935024999995221,546.0242699999999,None,546.0242699999999,None,-8.628151583250084,150.3451026706731,,8,001,2021_Apr_08_1353,AB_pic_singleT2,2021.1.2,60.008989346721975,
AB,lag3,3,4,7,0.06000000005000003,0.02,0.3,main,,,,,0,50,50,50,,,,,,,lip.jpg,toucan.jpg,scooter.jpg,bowtie.jpg,cloud.jpg,mouse.jpg,foldingchair.jpg,tricycle.jpg,windshieldwiper02.jpg,bluecheese.jpg,panda.jpg,horse.jpg,apron.jpg,rollerblade.jpg,jellybean.jpg,lighthouse.jpg,volleyball.jpg,,,,,1,1,9,,,,,.\resources\foldingchair.jpg,,,1,,,,,,,,,1,,,,,,,,,None,553.0238836999995,None,553.0238836999995,None,,,,,,,546.5579744999995,549.3074005999997,549.0407846999997,None,0.06660972500252535,549.5407275999996,None,549.5407275999996,None,550.4406842999997,None,550.4406842999997,None,left,1.2610562999998365,550.4406842999997,None,551.7906002999998,None,left,1.2072953999995661,551.7906002999998,None,551.7906002999998,None,-8.596926038425881,150.35328121589134,,8,001,2021_Apr_08_1353,AB_pic_singleT2,2021.1.2,60.008989346721975,
AB,lag7,7,5,12,0.06000000005000003,0.02,0.3,main,,,,,0,51,51,51,,,,,,,daddylonglegs.jpg,treadmill.jpg,baseballbat.jpg,lightswitch01.jpg,sausage.jpg,floorlamp.jpg,spear02.jpg,lizard.jpg,birdfeeder.jpg,hulahoop.jpg,stool01.jpg,chair.jpg,calendar.jpg,hotdogweiner.jpg,mattress.jpg,bathtub.jpg,sword01.jpg,,,,,1,0,14,,,,,.\resources\chair.jpg,,,1,,,,,,,,,1,,,,,,,,,None,558.8735554000002,None,558.8735554000002,None,,,,,,,553.0405217999996,555.7903673999999,555.5237154999995,None,0.06639842056530132,556.0236878999995,None,556.0236878999995,None,557.3402779999997,None,557.3402779999997,None,left,0.9456307999998899,557.3402779999997,None,558.3735559999996,None,right,0.4802186000006259,558.3735559999996,None,558.3735559999996,None,-8.565862234017326,150.3614212764728,,8,001,2021_Apr_08_1353,AB_pic_singleT2,2021.1.2,60.008989346721975,
AB,lag1,1,5,6,0.06000000005000003,0.02,0.3,main,,,,,0,52,52,52,,,,,,,bluejay.jpg,apron.jpg,bullet.jpg,crosscountryski.jpg,tree.jpg,panda.jpg,callbell.jpg,beaver.jpg,armadillo.jpg,christmastree.jpg,platypus.jpg,corn02.jpg,rollerblade.jpg,foot.jpg,noparkingsign.jpg,hulahoop.jpg,airhockeytable.jpg,,,,,1,1,8,,,,,.\resources\panda.jpg,,,1,,,,,,,,,1,,,,,,,,,None,565.3237731999996,None,565.3237731999996,None,,,,,,,558.8901896999996,561.6400899,561.3734539999996,None,0.06618823173291219,561.8734085999995,None,561.8734085999995,None,562.6733630999997,None,562.6733630999997,None,left,1.2526711999998952,562.6733630999997,None,564.0232913,None,left,1.270658899999944,564.0232913,None,564.0232913,None,-8.535028975185904,150.3694958816401,,8,001,2021_Apr_08_1353,AB_pic_singleT2,2021.1.2,60.008989346721975,
AB,lag4,4,4,8,0.06000000005000003,0.02,0.3,main,,,,,0,53,53,53,,,,,,,ant.jpg,trophy01.jpg,drumstick.jpg,donut.jpg,fireplace.jpg,eye.jpg,ear.jpg,locker.jpg,greatwhiteshark.jpg,slug.jpg,nosmokingsign.jpg,shower.jpg,cannon.jpg,cocktailshrimp02.jpg,hand01b.jpg,stubbywrench01a.jpg,hockeypuck.jpg,,,,,0,0,10,,,,,.\resources\locker.jpg,,,0,,,,,,,,,1,,,,,,,,,None,570.6733717999994,None,570.6733717999994,None,,,,,,,565.3403520000002,568.0898066,567.8230832999998,None,0.06597962757097449,568.3397088000002,None,568.3397088000002,None,569.2896569999994,None,569.2896569999994,None,left,0.9883975000002465,569.2896569999994,None,570.3733889999994,None,right,0.2643874000004871,570.3733889999994,None,570.3733889999994,None,-8.651128139955375,150.3676867099812,,8,001,2021_Apr_08_1353,AB_pic_singleT2,2021.1.2,60.008989346721975,
AB,lag6,6,5,11,0.06000000005000003,0.02,0.3,main,,,,,0,54,54,54,,,,,,,pirateflag.jpg,cigar.jpg,donut.jpg,fridge.jpg,horse.jpg,boxingglove01.jpg,wheelbarrow01.jpg,lizard.jpg,sink.jpg,steeringwheel.jpg,makiroll.jpg,parkingmeter.jpg,nunchuk.jpg,table01.jpg,horseshoe.jpg,birdnest.jpg,seal.jpg,,,,,0,0,13,,,,,.\resources\makiroll.jpg,,,1,,,,,,,,,1,,,,,,,,,None,575.8059501999994,None,575.8059501999994,None,,,,,,,570.6900283999994,573.43941,573.1727628999997,None,0.06675252323615746,573.6727301000001,None,573.6727301000001,None,574.9059977999996,None,574.9059977999996,None,right,0.49182740000014746,574.9059977999996,None,575.5059823000001,None,right,0.2838785000003554,575.5059823000001,None,575.5059823000001,None,-8.626232639002673,150.37515401579333,,8,001,2021_Apr_08_1353,AB_pic_singleT2,2021.1.2,60.008989346721975,
AB,lag2,2,4,6,0.06000000005000003,0.02,0.3,main,,,,,0,55,55,55,,,,,,,crosscountryski.jpg,eyepatch.jpg,polarbear.jpg,cat.jpg,rubikcube.jpg,lizard.jpg,magneticcompass.jpg,funnel.jpg,fridge.jpg,waterfall.jpg,trumpet.jpg,licenseplate.jpg,mattress.jpg,steeringwheel.jpg,crab01.jpg,slug.jpg,nose.jpg,,,,,0,0,8,,,,,.\resources\lizard.jpg,,,1,,,,,,,,,1,,,,,,,,,None,581.188981,None,581.188981,None,,,,,,,575.8226177999995,578.5724611999995,578.3058363999999,None,0.06658365250333168,578.8057766000002,None,578.8057766000002,None,579.6057006000001,None,579.6057006000001,None,right,0.7920444999999745,579.6057006000001,None,580.4723247000002,None,right,0.6934436000001369,580.4723247000002,None,580.4723247000002,None,-8.598555712354708,150.38279612135148,,8,001,2021_Apr_08_1353,AB_pic_singleT2,2021.1.2,60.008989346721975,
AB,lag5,5,4,9,0.06000000005000003,0.02,0.3,main,,,,,0,56,56,56,,,,,,,electrictoothbrush01c.jpg,wallclock.jpg,duck01.jpg,redfox.jpg,birdnest.jpg,statue.jpg,alligator.jpg,nose.jpg,tree.jpg,steeringwheel.jpg,treadmill.jpg,bathtub.jpg,lion.jpg,athleticsock.jpg,cruiseship.jpg,paperairplane.jpg,ladybug03.jpg,,,,,1,0,11,,,,,.\resources\tree.jpg,,,1,,,,,,,,,1,,,,,,,,,None,586.6224058999994,None,586.6224058999994,None,,,,,,,581.2056148000001,583.9554957999999,583.6888104999998,None,0.06639622570534809,584.1887791999998,None,584.1887791999998,None,585.2553837999994,None,585.2553837999994,None,left,0.9425267999995413,585.2553837999994,None,586.2886616999995,None,right,0.2931479999997464,586.2886616999995,None,586.2886616999995,None,-8.571007001518756,150.39040213551692,,8,001,2021_Apr_08_1353,AB_pic_singleT2,2021.1.2,60.008989346721975,
AB,lag2,2,3,5,0.06000000005000003,0.02,0.3,main,,,,,0,57,57,57,,,,,,,cactus.jpg,squid.jpg,frisbee.jpg,urinal.jpg,foot.jpg,armadillo.jpg,hammerheadshark.jpg,elbow.jpg,donut.jpg,mrpotatohead.jpg,waterfall.jpg,crosscountryski.jpg,redfox.jpg,nose.jpg,corn02.jpg,dartboard.jpg,acorn.jpg,,,,,0,1,7,,,,,.\resources\foot.jpg,,,1,,,,,,,,,1,,,,,,,,,None,592.3050148999998,None,592.3050148999998,None,,,,,,,586.6390494999996,589.3884836999996,589.1218469999994,None,0.06620968639784681,589.6384748999999,None,589.6384748999999,None,590.3384314999994,None,590.3384314999994,None,right,1.4753872000001138,590.3384314999994,None,591.8883426000002,None,left,0.3975151000004189,591.8883426000002,None,591.8883426000002,None,-8.543637057566716,150.39795066865773,,8,001,2021_Apr_08_1353,AB_pic_singleT2,2021.1.2,60.008989346721975,
AB,lag6,6,5,11,0.06000000005000003,0.02,0.3,main,,,,,0,58,58,58,,,,,,,butterfly.jpg,redfox.jpg,dromedary.jpg,kite.jpg,ear.jpg,pooltable.jpg,lily.jpg,cobra.jpg,bowlingball.jpg,cashregister01.jpg,parkfountain.jpg,sheep.jpg,giraffe.jpg,bench01.jpg,boxingglove01.jpg,bacon.jpg,humanskeleton.jpg,,,,,0,1,13,,,,,.\resources\parkfountain.jpg,,,1,,,,,,,,,1,,,,,,,,,space,598.1879515,None,598.1879515,None,,,,,,,592.3216502999994,595.0715092,594.8048496000001,None,0.06602437981727075,595.3048135999998,None,595.3048135999998,None,596.5380791999996,None,596.5380791999996,None,right,1.1876835000002757,596.5380791999996,None,597.821304,None,left,0.32065349999993487,597.821304,None,597.821304,None,-8.51643674784936,150.40542571525438,34.72197649999998,8,001,2021_Apr_08_1353,AB_pic_singleT2,2021.1.2,60.008989346721975,
AB,lag7,7,4,11,0.06000000005000003,0.02,0.3,main,,,,,0,59,59,59,,,,,,,bench01.jpg,hockeystick.jpg,bowlingpin.jpg,lawnmower.jpg,elbow.jpg,ostrich.jpg,tulip02.jpg,tiger02.jpg,ladder.jpg,barrel01.jpg,ear.jpg,birdhouse.jpg,cheetah.jpg,polarbear.jpg,pirateflag.jpg,daddylonglegs.jpg,discoball.jpg,,,,,0,0,13,,,,,.\resources\ear.jpg,,,0,,,,,,,,,1,,,,,,,,,None,638.8695000999994,None,638.8695000999994,None,,,,,,,632.9698183999999,635.7192003,635.4359215999993,None,0.06584025185179805,635.952526,None,635.952526,None,637.1691279999995,None,637.1691279999995,None,left,1.1487818999994488,637.1691279999995,None,638.4195175999994,None,right,0.4183572000001732,638.4195175999994,None,638.4195175999994,None,-8.619639555072636,150.40420282302924,,8,001,2021_Apr_08_1353,AB_pic_singleT2,2021.1.2,60.008989346721975,
AB,lag5,5,3,8,0.06000000005000003,0.02,0.3,main,,,,,0,60,60,60,,,,,,,wheelbarrow01.jpg,nosmokingsign.jpg,footballhelmet.jpg,jeans01.jpg,nunchuk.jpg,accordion01.jpg,birdfeeder.jpg,cross01.jpg,bow.jpg,stubbywrench01a.jpg,swing.jpg,giraffe.jpg,sink.jpg,saxophone.jpg,tennisracket.jpg,electricguitar01.jpg,bumpercar.jpg,,,,,1,0,10,,,,,.\resources\cross01.jpg,,,1,,,,,,,,,1,,,,,,,,,None,644.4025032999996,None,644.4025032999996,None,,,,,,,638.8861436999996,641.6355689000002,641.3688849999999,None,0.06652695688275316,641.868853,None,641.868853,None,642.8521370999997,None,642.8521370999997,None,left,1.1136509000007209,642.8521370999997,None,644.0354019999995,None,right,0.3384334000002127,644.0354019999995,None,644.0354019999995,None,-8.597341104341025,150.41122144084818,,8,001,2021_Apr_08_1353,AB_pic_singleT2,2021.1.2,60.008989346721975,
AB,lag3,3,5,8,0.06000000005000003,0.02,0.3,main,,,,,0,61,61,61,,,,,,,birdfeeder.jpg,snowshoe.jpg,chair.jpg,key07.jpg,totempole.jpg,jeep.jpg,boat.jpg,treadmill.jpg,tire.jpg,candycane01a.jpg,bathtub.jpg,squid.jpg,telescope.jpg,birdnest.jpg,birdhouse.jpg,spicerack.jpg,dromedary.jpg,,,,,0,0,10,,,,,.\resources\treadmill.jpg,,,1,,,,,,,,,1,,,,,,,,,None,649.4355524999999,None,649.4355524999999,None,,,,,,,644.4191592999996,647.1685579999994,646.9019068999996,None,0.06637560263006809,647.4185455999996,None,647.4185455999996,None,648.3851611,None,648.3851611,None,right,0.6528960999994524,648.3851611,None,649.1517767999994,None,right,0.23805090000041673,649.1517767999994,None,649.1517767999994,None,-8.57265022371731,150.41837079965322,,8,001,2021_Apr_08_1353,AB_pic_singleT2,2021.1.2,60.008989346721975,
AB,lag4,4,5,9,0.06000000005000003,0.02,0.3,main,,,,,0,62,62,62,,,,,,,trampoline.jpg,tricycle.jpg,volleyball.jpg,rubikcube.jpg,bathtub.jpg,skippingrope.jpg,cork02.jpg,bowlingpin.jpg,uprightpiano01.jpg,hotdogweiner.jpg,candycane01a.jpg,schoolbus.jpg,tarantula.jpg,icecube02.jpg,tie02.jpg,seal.jpg,africanelephant.jpg,,,,,1,0,11,,,,,.\resources\uprightpiano01.jpg,,,1,,,,,,,,,1,,,,,,,,,None,654.6685951999996,None,654.6685951999996,None,,,,,,,649.4522115,652.2016155000001,651.9349496999994,None,0.06620829977012463,652.4515911999997,None,652.4515911999997,None,653.501534,None,653.501534,None,left,0.7763076999999612,653.501534,None,654.3681437999994,None,right,0.2696617999999944,654.3681437999994,None,654.3681437999994,None,-8.548051134690397,150.42547264313336,,8,001,2021_Apr_08_1353,AB_pic_singleT2,2021.1.2,60.008989346721975,
AB,lag1,1,3,4,0.06000000005000003,0.02,0.3,main,,,,,0,63,63,63,,,,,,,penguin.jpg,curtain.jpg,butterfly.jpg,bowlingball.jpg,snowshoe.jpg,schoolbus.jpg,waterfountain02.jpg,arrow02.jpg,popcorn.jpg,vulture.jpg,discoball.jpg,spiderweb.jpg,magneticcompass.jpg,crosscountryski.jpg,lawnmower.jpg,cloud.jpg,apron.jpg,,,,,0,1,6,,,,,.\resources\bowlingball.jpg,,,1,,,,,,,,,1,,,,,,,,,None,659.9682983,None,659.9682983,None,,,,,,,654.6852573999995,657.4346375999994,657.1679865999995,None,0.06604164388685915,657.6846267999999,None,657.6846267999999,None,658.3012511999996,None,658.3012511999996,None,right,1.2567055999998047,658.3012511999996,None,659.6516291999997,None,left,0.2902137999999468,659.6516291999997,None,659.6516291999997,None,-8.523586725252645,150.43251038189277,,8,001,2021_Apr_08_1353,AB_pic_singleT2,2021.1.2,60.008989346721975,
AB,lag5,5,4,9,0.06000000005000003,0.02,0.3,main,,,,,0,64,64,64,,,,,,,badmintonracket.jpg,sword01.jpg,funnel.jpg,armadillo.jpg,bacon.jpg,masquerademask01.jpg,elbow.jpg,spiderweb.jpg,daddylonglegs.jpg,lightswitch01.jpg,key07.jpg,microphone01.jpg,tennisracket.jpg,table01.jpg,recyclingbin.jpg,snowboard.jpg,popcorn.jpg,,,,,0,0,11,,,,,.\resources\daddylonglegs.jpg,,,1,,,,,,,,,1,,,,,,,,,None,664.7846638999997,None,664.7846638999997,None,,,,,,,659.9849450000002,662.7343334999996,662.467686,None,0.06587592709325263,662.9843248999996,None,662.9843248999996,None,664.0175878999999,None,664.0175878999999,None,right,0.42824820000078034,664.0175878999999,None,664.5513536999997,None,right,0.20660829999997077,664.5513536999997,None,664.5513536999997,None,-8.499250834971237,150.43947167200133,,8,001,2021_Apr_08_1353,AB_pic_singleT2,2021.1.2,60.008989346721975,
AB,lag4,4,3,7,0.06000000005000003,0.02,0.3,main,,,,,0,65,65,65,,,,,,,boat.jpg,treadmill.jpg,paperairplane.jpg,snowshovel.jpg,zipper.jpg,flamingo.jpg,pumpkin.jpg,nose.jpg,mrpotatohead.jpg,christmaslights.jpg,chimney.jpg,cork02.jpg,cobra.jpg,scooter.jpg,football.jpg,licenseplate.jpg,hockeypuck.jpg,,,,,0,0,9,,,,,.\resources\pumpkin.jpg,,,1,,,,,,,,,1,,,,,,,,,None,669.3339617999998,None,669.3339617999998,None,,,,,,,664.8013335999995,667.5507496999999,667.2840752000002,None,0.06571111348785036,667.7840608999995,None,667.7840608999995,None,668.6673337000002,None,668.6673337000002,None,right,0.37860710000040854,668.6673337000002,None,669.1339687999998,None,right,0.18395460000010644,669.1339687999998,None,669.1339687999998,None,-8.47503668827761,150.44634515444747,,8,001,2021_Apr_08_1353,AB_pic_singleT2,2021.1.2,60.008989346721975,
AB,lag7,7,3,10,0.06000000005000003,0.02,0.3,main,,,,,0,66,66,66,,,,,,,cymbal.jpg,mailbox02.jpg,harmonica.jpg,well.jpg,bridge.jpg,tricycle.jpg,polarbear.jpg,sledgehammer.jpg,saxophone.jpg,lightswitch01.jpg,bat.jpg,eiffeltower.jpg,tennisracket.jpg,triangle.jpg,flag.jpg,ostrich.jpg,greywolf.jpg,,,,,0,0,12,,,,,.\resources\lightswitch01.jpg,,,1,,,,,,,,,1,,,,,,,,,None,674.3170158,None,674.3170158,None,,,,,,,669.3506259999995,672.100496,671.8338183999995,None,0.06554716260653529,672.3337915000002,None,672.3337915000002,None,673.4670568000001,None,673.4670568000001,None,right,0.4907567000000199,673.4670568000001,None,674.0503571999998,None,right,0.2274745000004259,674.0503571999998,None,674.0503571999998,None,-8.450937884890678,150.4531203214101,,8,001,2021_Apr_08_1353,AB_pic_singleT2,2021.1.2,60.008989346721975,
AB,lag2,2,3,5,0.06000000005000003,0.02,0.3,main,,,,,0,67,67,67,,,,,,,leafrake.jpg,car.jpg,drumstick.jpg,trophy01.jpg,totempole.jpg,cupcake.jpg,locker.jpg,licenseplate.jpg,beaver.jpg,bridge.jpg,tricycle.jpg,well.jpg,zipper.jpg,daddylonglegs.jpg,greathornowl.jpg,wheelchair.jpg,windshieldwiper02.jpg,,,,,0,1,7,,,,,.\resources\totempole.jpg,,,0,,,,,,,,,1,,,,,,,,,None,680.1671183999995,None,680.1671183999995,None,,,,,,,674.3336910999997,677.0835215999996,676.8168838000001,None,0.06538403607047484,677.3335069999994,None,677.3335069999994,None,678.0334662999994,None,678.0334662999994,None,left,1.2925121999996918,678.0334662999994,None,679.4171752000002,None,left,0.7166452999999819,679.4171752000002,None,679.4171752000002,None,-8.542716125125503,150.45233388089795,,8,001,2021_Apr_08_1353,AB_pic_singleT2,2021.1.2,60.008989346721975,
AB,lag6,6,4,10,0.06000000005000003,0.02,0.3,main,,,,,0,68,68,68,,,,,,,sledgehammer.jpg,moon.jpg,bat.jpg,bumpercar.jpg,hotdogweiner.jpg,basketball01.jpg,knee.jpg,ant.jpg,baseballbat.jpg,grizzly.jpg,kangaroo.jpg,holdfast.jpg,birthdaycandle.jpg,cruiseship.jpg,masquerademask01.jpg,cross01.jpg,squid.jpg,,,,,0,0,12,,,,,.\resources\grizzly.jpg,,,0,,,,,,,,,1,,,,,,,,,None,686.5000643000001,None,686.5000643000001,None,,,,,,,680.1838149999994,682.9331855,682.6665499000001,None,0.06599439324155291,683.1831738999999,None,683.1831738999999,None,684.3164409000001,None,684.3164409000001,None,left,1.769477900000311,684.3164409000001,None,686.1663129999997,None,right,0.30352510000011534,686.1663129999997,None,686.1663129999997,None,-8.631094587667947,150.45162273934045,,8,001,2021_Apr_08_1353,AB_pic_singleT2,2021.1.2,60.008989346721975,
AB,lag1,1,4,5,0.06000000005000003,0.02,0.3,main,,,,,0,69,69,69,,,,,,,hockeypuck.jpg,whiteout.jpg,dormer.jpg,fishingrod.jpg,hotdogweiner.jpg,punchingbag.jpg,frisbee.jpg,soccerball.jpg,kiwi03.jpg,hockeystick.jpg,parachute.jpg,treadmill.jpg,toolbox02.jpg,seal.jpg,car.jpg,cocktailshrimp02.jpg,helicopter.jpg,,,,,1,0,7,,,,,.\resources\hotdogweiner.jpg,,,1,,,,,,,,,1,,,,,,,,,None,691.6331002999993,None,691.6331002999993,None,,,,,,,686.5167322999996,689.2661567999994,688.9994779999997,None,0.06658212631008377,689.4994499999993,None,689.4994499999993,None,690.2160970999994,None,690.2160970999994,None,left,0.9497832000006383,690.2160970999994,None,691.2493564999995,None,right,0.34844650000013644,691.2493564999995,None,691.2493564999995,None,-8.612199989943651,150.4579678098903,,8,001,2021_Apr_08_1353,AB_pic_singleT2,2021.1.2,60.008989346721975,
AB,lag3,3,5,8,0.06000000005000003,0.02,0.3,main,,,,,0,70,70,70,,,,,,,greatwhiteshark.jpg,spicerack.jpg,slug.jpg,fishingrod.jpg,uprightpiano01.jpg,bacon.jpg,flag.jpg,crosscountryski.jpg,eye.jpg,guitarcase.jpg,acousticguitar02.jpg,parrot01.jpg,foot.jpg,dolphin01.jpg,tricycle.jpg,mattress.jpg,treadmill.jpg,,,,,0,0,10,,,,,.\resources\crosscountryski.jpg,,,1,,,,,,,,,1,,,,,,,,,None,696.5324023999999,None,696.5324023999999,None,,,,,,,691.6497663,694.3991754999997,694.1325243000001,None,0.06645373785519317,694.6325259999994,None,694.6325259999994,None,695.6157789999997,None,695.6157789999997,None,right,0.566177599999719,695.6157789999997,None,696.2657509000001,None,right,0.22035690000029717,696.2657509000001,None,696.2657509000001,None,-8.591580231157705,150.46441422924443,,8,001,2021_Apr_08_1353,AB_pic_singleT2,2021.1.2,60.008989346721975,
AB,lag4,4,3,7,0.06000000005000003,0.02,0.3,main,,,,,0,71,71,71,,,,,,,coffeemaker.jpg,parkingmeter.jpg,sandcastle.jpg,hand01b.jpg,lily.jpg,smokingpipe.jpg,snowman.jpg,shovel01.jpg,ant.jpg,cross01.jpg,firehydrant.jpg,saltshaker03a.jpg,duck01.jpg,calendar.jpg,jeep.jpg,hulahoop.jpg,nosmokingsign.jpg,,,,,0,1,9,,,,,.\resources\snowman.jpg,,,1,,,,,,,,,1,,,,,,,,,None,702.2487213000002,None,702.2487213000002,None,,,,,,,696.5490660999994,699.2988986999999,699.0322409999999,None,0.06631384997834448,699.5488846999997,None,699.5488846999997,None,700.4154975000001,None,700.4154975000001,None,right,1.4064476000003197,700.4154975000001,None,701.8987175000002,None,left,0.33108679999986634,701.8987175000002,None,701.8987175000002,None,-8.571030834574735,150.47083253303586,,8,001,2021_Apr_08_1353,AB_pic_singleT2,2021.1.2,60.008989346721975,
AB,lag1,1,3,4,0.06000000005000003,0.02,0.3,main,,,,,0,72,72,72,,,,,,,toyanimal05.jpg,snowshovel.jpg,saltshaker03a.jpg,peacock.jpg,boxingglove01.jpg,lighthouse.jpg,acorn.jpg,eye.jpg,locker.jpg,stubbywrench01a.jpg,polarbear.jpg,escalator.jpg,wheelchair.jpg,cat.jpg,wallclock.jpg,sausage.jpg,pigeon.jpg,,,,,1,0,6,,,,,.\resources\peacock.jpg,,,1,,,,,,,,,1,,,,,,,,,None,707.3317552999995,None,707.3317552999995,None,,,,,,,702.2653636999994,705.0152086999997,704.7485581999999,None,0.06617445406576385,705.2485288999997,None,705.2485288999997,None,705.8818266999997,None,705.8818266999997,None,left,0.9960446000004595,705.8818266999997,None,706.9484308000001,None,right,0.36153830000057496,706.9484308000001,None,706.9484308000001,None,-8.550577916966057,150.47721039095993,,8,001,2021_Apr_08_1353,AB_pic_singleT2,2021.1.2,60.008989346721975,
AB,lag2,2,3,5,0.06000000005000003,0.02,0.3,main,,,,,0,73,73,73,,,,,,,skippingrope.jpg,noparkingsign.jpg,scooter.jpg,armadillo.jpg,toucan.jpg,bathtub.jpg,skateboard.jpg,bow.jpg,dragonfly01.jpg,dormer.jpg,wheelbarrow01.jpg,birdhouse.jpg,acorn.jpg,volleyball.jpg,mouse.jpg,chair.jpg,leafblower01.jpg,,,,,1,1,7,,,,,.\resources\toucan.jpg,,,1,,,,,,,,,1,,,,,,,,,None,714.1146677999993,None,714.1146677999993,None,,,,,,,707.3484137999994,710.0986607999994,709.8320058999998,None,0.06603572894705201,710.3486567,None,710.3486567,None,711.0482007999999,None,711.0482007999999,None,left,1.8056187000001955,711.0482007999999,None,712.9313920999994,None,left,1.1624293999993824,712.9313920999994,None,712.9313920999994,None,-8.530217507469157,150.48353812546785,,8,001,2021_Apr_08_1353,AB_pic_singleT2,2021.1.2,60.008989346721975,
AB,lag5,5,5,10,0.06000000005000003,0.02,0.3,main,,,,,0,74,74,74,,,,,,,armadillo.jpg,cow.jpg,calendar.jpg,baseballbat.jpg,bowlingpin.jpg,guitarcase.jpg,stool01.jpg,barrel01.jpg,ladybug03.jpg,fishskeleton.jpg,squirrel.jpg,holdfast.jpg,nunchuk.jpg,redfox.jpg,africanelephant.jpg,snowman.jpg,dromedary.jpg,,,,,0,0,12,,,,,.\resources\fishskeleton.jpg,,,1,,,,,,,,,1,,,,,,,,,None,719.0144766999999,None,719.0144766999999,None,,,,,,,714.1313316999995,716.8812663999997,716.6146038999996,None,0.06589765227556658,717.1145683999994,None,717.1145683999994,None,718.2645087999999,None,718.2645087999999,None,right,0.4373060000007172,718.2645087999999,None,718.7978112000001,None,right,0.20019630000024335,718.7978112000001,None,718.7978112000001,None,-8.509945325978594,150.4898067093419,,8,001,2021_Apr_08_1353,AB_pic_singleT2,2021.1.2,60.008989346721975,
AB,lag6,6,4,10,0.06000000005000003,0.02,0.3,main,,,,,0,75,75,75,,,,,,,funnel.jpg,microwave.jpg,arrow02.jpg,ostrich.jpg,tortoise01.jpg,ear.jpg,butterfly.jpg,kneepad01c.jpg,zebra.jpg,lighthouse.jpg,corn02.jpg,foot.jpg,pig.jpg,golfball.jpg,lily.jpg,wheelchair.jpg,foosballtable.jpg,,,,,0,1,12,,,,,.\resources\lighthouse.jpg,,,1,,,,,,,,,1,,,,,,,,,None,724.4478858,None,724.4478858,None,,,,,,,719.0311265999999,721.7809966999994,721.5143217999994,None,0.06576019933504346,722.0142940999995,None,722.0142940999995,None,723.1642019999999,None,723.1642019999999,None,right,0.841705699999693,723.1642019999999,None,724.0975066999999,None,left,0.3163187999998627,724.0975066999999,None,724.0975066999999,None,-8.489757298378894,150.4960076918935,,8,001,2021_Apr_08_1353,AB_pic_singleT2,2021.1.2,60.008989346721975,
AB,lag7,7,3,10,0.06000000005000003,0.02,0.3,main,,,,,0,76,76,76,,,,,,,basketball01.jpg,escalator.jpg,wheelbarrow01.jpg,lighthouse.jpg,hulahoop.jpg,chimney.jpg,polarbear.jpg,birdfeeder.jpg,musicsheet.jpg,mattress.jpg,discoball.jpg,dartboard.jpg,rooster.jpg,platypus.jpg,mouse.jpg,ostrich.jpg,urinal.jpg,,,,,1,1,12,,,,,.\resources\mattress.jpg,,,1,,,,,,,,,1,,,,,,,,,None,732.4474344999996,None,732.4474344999996,None,,,,,,,724.4645578999998,727.2139710000001,726.9473485999997,None,0.0656233464991162,727.4639616999993,None,727.4639616999993,None,728.5805627999998,None,728.5805627999998,None,left,3.26525539999966,728.5805627999998,None,731.9474804000001,None,left,0.4584361999995963,731.9474804000001,None,731.9474804000001,None,-8.469649553423348,150.5021331622336,,8,001,2021_Apr_08_1353,AB_pic_singleT2,2021.1.2,60.008989346721975,
AB,lag3,3,4,7,0.06000000005000003,0.02,0.3,main,,,,,0,77,77,77,,,,,,,shower.jpg,pig.jpg,knee.jpg,table01.jpg,toyanimal05.jpg,stubbywrench01a.jpg,wheelbarrow01.jpg,parachute.jpg,swing.jpg,kangaroo.jpg,fridge.jpg,brownsugar.jpg,bowlingball.jpg,mattress.jpg,schoolbus.jpg,bat.jpg,cobra.jpg,,,,,0,0,9,,,,,.\resources\wheelbarrow01.jpg,,,1,,,,,,,,,1,,,,,,,,,None,737.0300841999995,None,737.0300841999995,None,,,,,,,732.4641029999993,735.2135130999995,734.9468644999997,None,0.06548707122920999,735.4635019999996,None,735.4635019999996,None,736.3301216,None,736.3301216,None,right,0.41179990000000544,736.3301216,None,736.8300873999997,None,right,0.1837948000002143,736.8300873999997,None,736.8300873999997,None,-8.449618411017434,150.50817571581763,,8,001,2021_Apr_08_1353,AB_pic_singleT2,2021.1.2,60.008989346721975,
AB,lag4,4,4,8,0.06000000005000003,0.02,0.3,main,,,,,0,78,78,78,,,,,,,greathornowl.jpg,squid.jpg,smokingpipe.jpg,cat.jpg,englishcucumber.jpg,tortoise01.jpg,ceilingfan01.jpg,bumpercar.jpg,jackrabbit.jpg,calendar.jpg,sledgehammer.jpg,wallclock.jpg,xylophone.jpg,icecube02.jpg,whiteout.jpg,safe.jpg,bat.jpg,,,,,0,0,10,,,,,.\resources\bumpercar.jpg,,,1,,,,,,,,,1,,,,,,,,,None,741.6798431999994,None,741.6798431999994,None,,,,,,,737.0467479999998,739.7966046000001,739.5299279999999,None,0.06535135201365425,740.0299117999994,None,740.0299117999994,None,740.9965192999998,None,740.9965192999998,None,right,0.39330149999932473,740.9965192999998,None,741.4631528999998,None,right,0.19875709999996616,741.4631528999998,None,741.4631528999998,None,-8.429660371199207,150.51412842341674,,8,001,2021_Apr_08_1353,AB_pic_singleT2,2021.1.2,60.008989346721975,
AB,lag5,5,3,8,0.06000000005000003,0.02,0.3,main,,,,,0,79,79,79,,,,,,,trophy01.jpg,mattress.jpg,pig.jpg,harmonica.jpg,waterfountain02.jpg,curtain.jpg,chair.jpg,guitarcase.jpg,bluejay.jpg,dolphin01.jpg,redfox.jpg,candycane01a.jpg,jellyfish.jpg,greatwhiteshark.jpg,makiroll.jpg,ant.jpg,tank.jpg,,,,,1,0,10,,,,,.\resources\guitarcase.jpg,,,1,,,,,,,,,1,,,,,,,,,None,747.1628509999998,None,747.1628509999998,None,,,,,,,741.6964799999996,744.4463368999996,744.1796809999996,None,0.06521616831016341,744.6796482999998,None,744.6796482999998,None,745.6462556999995,None,745.6462556999995,None,left,1.055543200000102,745.6462556999995,None,746.7962053000001,None,right,0.32965969999986555,746.7962053000001,None,746.7962053000001,None,-8.409772103916689,150.51998480230944,,8,001,2021_Apr_08_1353,AB_pic_singleT2,2021.1.2,60.008989346721975,
AB,lag6,6,3,9,0.06000000005000003,0.02,0.3,main,,,,,0,80,80,80,,,,,,,tulip02.jpg,electrictoothbrush01c.jpg,christmastree.jpg,escalator.jpg,cow.jpg,scooter.jpg,horseshoe.jpg,shower.jpg,greywolf.jpg,foosballtable.jpg,pig.jpg,foot.jpg,safe.jpg,fireplace.jpg,greatwhiteshark.jpg,jeans01.jpg,pooltable.jpg,,,,,0,1,11,,,,,.\resources\greywolf.jpg,,,1,,,,,,,,,1,,,,,,,,,None,753.4795365999996,None,753.4795365999996,None,,,,,,,747.1795025000001,749.9293460999997,749.6626848999995,None,0.06508150049246005,750.1626618999999,None,750.1626618999999,None,751.2126075999995,None,751.2126075999995,None,right,1.7132507000005717,751.2126075999995,None,753.0128863999998,None,left,0.4409787000004144,753.0128863999998,None,753.0128863999998,None,-8.389950439537754,150.52573878950568,,8,001,2021_Apr_08_1353,AB_pic_singleT2,2021.1.2,60.008989346721975,
AB,lag3,3,5,8,0.06000000005000003,0.02,0.3,main,,,,,0,81,81,81,,,,,,,table01.jpg,footballhelmet.jpg,electrictoothbrush01c.jpg,motorcycle.jpg,lizard.jpg,foosballtable.jpg,brownsugar.jpg,wallclock.jpg,foot.jpg,porcupine.jpg,icecube02.jpg,tire.jpg,airhockeytable.jpg,ipad02.jpg,fortunecookie.jpg,ladybug03.jpg,bow.jpg,,,,,0,1,10,,,,,.\resources\wallclock.jpg,,,1,,,,,,,,,1,,,,,,,,,None,758.8621411000001,None,758.8621411000001,None,,,,,,,753.4961868999999,756.2456235999998,755.9789712000002,None,0.06494732980071062,756.4789456999997,None,756.4789456999997,None,757.4455627999996,None,757.4455627999996,None,right,0.9603121000000101,757.4455627999996,None,758.4954975,None,left,0.34230920000027254,758.4954975,None,758.4954975,None,-8.370192360028668,150.53138471684372,,8,001,2021_Apr_08_1353,AB_pic_singleT2,2021.1.2,60.008989346721975,
AB,lag7,7,5,12,0.06000000005000003,0.02,0.3,main,,,,,0,82,82,82,,,,,,,foldingchair.jpg,jellybean.jpg,greywolf.jpg,handcuffs.jpg,key07.jpg,grizzly.jpg,lighthouse.jpg,toucan.jpg,lily.jpg,lion.jpg,cashregister01.jpg,worldmap.jpg,bridge.jpg,kiwi03.jpg,parkingmeter.jpg,corn02.jpg,birdhouse.jpg,,,,,1,1,14,,,,,.\resources\worldmap.jpg,,,1,,,,,,,,,1,,,,,,,,,None,765.56231,None,765.56231,None,,,,,,,758.8788273,761.6287039999997,761.3620500999996,None,0.06481363829543552,761.8786872999999,None,761.8786872999999,None,763.1619515000002,None,763.1619515000002,None,left,1.6119032999995397,763.1619515000002,None,764.8624265999997,None,left,0.6714117999999871,764.8624265999997,None,764.8624265999997,None,-8.350494990745409,150.53691728779935,,8,001,2021_Apr_08_1353,AB_pic_singleT2,2021.1.2,60.008989346721975,
AB,lag1,1,3,4,0.06000000005000003,0.02,0.3,main,,,,,0,83,83,83,,,,,,,platypus.jpg,dandelion.jpg,cupcake.jpg,pumpkin.jpg,chair.jpg,elbow.jpg,car.jpg,parachute.jpg,wheelbarrow01.jpg,helicopter.jpg,icecube02.jpg,toad.jpg,eyepatch.jpg,chainsaw.jpg,greatwhiteshark.jpg,cannon.jpg,bat.jpg,,,,,1,0,6,,,,,.\resources\pumpkin.jpg,,,1,,,,,,,,,1,,,,,,,,,None,770.6786448999999,None,770.6786448999999,None,,,,,,,765.5789384,768.3283229999997,768.0616882999993,None,0.06468040881460539,768.5783150999996,None,768.5783150999996,None,769.1782779999994,None,769.1782779999994,None,left,1.0676308000001882,769.1782779999994,None,770.3282135999998,None,right,0.32568349999928614,770.3282135999998,None,770.3282135999998,None,-8.330855592787534,150.5423315558826,,8,001,2021_Apr_08_1353,AB_pic_singleT2,2021.1.2,60.008989346721975,
AB,lag2,2,3,5,0.06000000005000003,0.02,0.3,main,,,,,0,84,84,84,,,,,,,locker.jpg,wallclock.jpg,tulip02.jpg,trophy01.jpg,ostrich.jpg,pig.jpg,scorpion.jpg,dolphin01.jpg,tank.jpg,snowshovel.jpg,hand01b.jpg,rose.jpg,pigeon.jpg,parkfountain.jpg,boat.jpg,totempole.jpg,snowshoe.jpg,,,,,0,1,7,,,,,.\resources\ostrich.jpg,,,1,,,,,,,,,1,,,,,,,,,None,776.2778804999996,None,776.2778804999996,None,,,,,,,770.6953077999997,773.4446969999999,773.1780485999998,None,0.06454762493365751,773.6946853999998,None,773.6946853999998,None,774.3779813000001,None,774.3779813000001,None,right,1.195857700000488,774.3779813000001,None,775.6445728999997,None,left,0.5854967000004763,775.6445728999997,None,775.6445728999997,None,-8.311271555866673,150.5476229044863,,8,001,2021_Apr_08_1353,AB_pic_singleT2,2021.1.2,60.008989346721975,
AB,lag1,1,4,5,0.06000000005000003,0.02,0.3,main,,,,,0,85,85,85,,,,,,,kneepad01c.jpg,drumstick.jpg,swordfish.jpg,tire.jpg,tarantula.jpg,bowlingball.jpg,safe.jpg,snowshoe.jpg,rooster.jpg,honeybee.jpg,bullet.jpg,uprightpiano01.jpg,windshieldwiper02.jpg,jellyfish.jpg,beaver.jpg,lip.jpg,moose.jpg,,,,,1,0,7,,,,,.\resources\tarantula.jpg,,,1,,,,,,,,,1,,,,,,,,,None,781.3275703999996,None,781.3275703999996,None,,,,,,,776.2945294000001,779.0443809999997,778.7777214999996,None,0.064415270928184,779.2776997999999,None,779.2776997999999,None,779.9776520999994,None,779.9776520999994,None,left,0.9403189000004204,779.9776520999994,None,781.0108970000001,None,right,0.2910390999995798,781.0108970000001,None,781.0108970000001,None,-8.291740391650222,150.55278702807934,,8,001,2021_Apr_08_1353,AB_pic_singleT2,2021.1.2,60.008989346721975,
AB,lag5,5,4,9,0.06000000005000003,0.02,0.3,main,,,,,0,86,86,86,,,,,,,magneticcompass.jpg,leafrake.jpg,hotdogweiner.jpg,waterfountain02.jpg,airhockeytable.jpg,discoball.jpg,tennisracket.jpg,tricycle.jpg,fortunecookie.jpg,hulahoop.jpg,crab01.jpg,chimney.jpg,birthdaycandle.jpg,spiderweb.jpg,jellybean.jpg,cupcake.jpg,dormer.jpg,,,,,0,0,11,,,,,.\resources\fortunecookie.jpg,,,1,,,,,,,,,1,,,,,,,,,None,786.1272833999999,None,786.1272833999999,None,,,,,,,781.3442181999999,784.0940578999998,783.8274116000002,None,0.06428333173908683,784.3273842999997,None,784.3273842999997,None,785.3606620999999,None,785.3606620999999,None,right,0.42127869999967515,785.3606620999999,None,785.8606227,None,right,0.2254311000006055,785.8606227,None,785.8606227,None,-8.272259727541053,150.55781991464403,,8,001,2021_Apr_08_1353,AB_pic_singleT2,2021.1.2,60.008989346721975,
AB,lag7,7,4,11,0.06000000005000003,0.02,0.3,main,,,,,0,87,87,87,,,,,,,horseshoe.jpg,anchor.jpg,bow.jpg,skateboard.jpg,mattress.jpg,birdnest.jpg,frenchfries.jpg,shovel01.jpg,africanelephant.jpg,bathtub.jpg,locker.jpg,urinal.jpg,sword01.jpg,uprightpiano01.jpg,dalmatian.jpg,marble.jpg,hockeystick.jpg,,,,,1,0,13,,,,,.\resources\locker.jpg,,,1,,,,,,,,,1,,,,,,,,,None,791.6774004999995,None,791.6774004999995,None,,,,,,,786.1439395999996,788.8937938999998,788.6271392999997,None,0.06415179293999264,789.1437777000001,None,789.1437777000001,None,790.3270444999998,None,790.3270444999998,None,left,0.9349373999993986,790.3270444999998,None,791.3603165999994,None,right,0.29353660000015225,791.3603165999994,None,791.3603165999994,None,-8.252827300859348,150.56271782925504,,8,001,2021_Apr_08_1353,AB_pic_singleT2,2021.1.2,60.008989346721975,
AB,lag4,4,3,7,0.06000000005000003,0.02,0.3,main,,,,,0,88,88,88,,,,,,,horseshoe.jpg,baseballbat.jpg,dromedary.jpg,saxophone.jpg,birdnest.jpg,chimney.jpg,birdhouse.jpg,jeans01.jpg,bow.jpg,stubbywrench01a.jpg,snowshoe.jpg,anchor.jpg,greatwhiteshark.jpg,beaver.jpg,makiroll.jpg,lighthouse.jpg,penguin.jpg,,,,,0,1,9,,,,,.\resources\birdhouse.jpg,,,1,,,,,,,,,1,,,,,,,,,None,796.8600383999999,None,796.8600383999999,None,,,,,,,791.6940767999995,794.4434721999996,794.1768358999998,None,0.06402064070675478,794.6767935999997,None,794.6767935999997,None,795.5434140999996,None,795.5434140999996,None,right,0.9025611000006393,795.5434140999996,None,796.5433843999999,None,left,0.29439600000023347,796.5433843999999,None,796.5433843999999,None,-8.233440953395343,150.56747729872092,,8,001,2021_Apr_08_1353,AB_pic_singleT2,2021.1.2,60.008989346721975,
AB,lag6,6,4,10,0.06000000005000003,0.02,0.3,main,,,,,0,89,89,89,,,,,,,exitsign.jpg,toucan.jpg,drumset.jpg,rubikcube.jpg,ladder.jpg,saltshaker03a.jpg,rollerblade.jpg,foldingchair.jpg,arrow02.jpg,ducttape.jpg,cannon.jpg,skateboard.jpg,skunk.jpg,jeans01.jpg,cheetah.jpg,bluejay.jpg,snowman.jpg,,,,,0,0,12,,,,,.\resources\ducttape.jpg,,,1,,,,,,,,,1,,,,,,,,,None,801.6764085000002,None,801.6764085000002,None,,,,,,,796.8766820000001,799.6265267999997,799.3598628999998,None,0.06388986178887752,799.8598321,None,799.8598321,None,800.9764297000002,None,800.9764297000002,None,right,0.3895069999998668,800.9764297000002,None,801.4597371999998,None,right,0.19418689999929484,801.4597371999998,None,801.4597371999998,None,-8.214098626304795,150.5720950972023,,8,001,2021_Apr_08_1353,AB_pic_singleT2,2021.1.2,60.008989346721975,
AB,lag3,3,3,6,0.06000000005000003,0.02,0.3,main,,,,,0,90,90,90,,,,,,,car.jpg,greywolf.jpg,accordion01.jpg,callbell.jpg,ant.jpg,ladder.jpg,kite.jpg,bluejay.jpg,cashregister01.jpg,rose.jpg,bridge.jpg,bull.jpg,funnel.jpg,swing.jpg,foosballtable.jpg,doghouse.jpg,knee.jpg,,,,,1,0,8,,,,,.\resources\ladder.jpg,,,1,,,,,,,,,1,,,,,,,,,None,806.9427809999995,None,806.9427809999995,None,,,,,,,801.6930561999998,804.4428982,804.1762660999993,None,0.06375944348271917,804.6928809000001,None,804.6928809000001,None,805.4595076999994,None,805.4595076999994,None,left,1.0583593000001201,805.4595076999994,None,806.5927771999995,None,right,0.30124739999973826,806.5927771999995,None,806.5927771999995,None,-8.194798355321124,150.57656823274763,,8,001,2021_Apr_08_1353,AB_pic_singleT2,2021.1.2,60.008989346721975,
AB,lag2,2,3,5,0.06000000005000003,0.02,0.3,main,,,,,0,91,91,91,,,,,,,sink.jpg,sausage.jpg,well.jpg,doghouse.jpg,saxophone.jpg,zipper.jpg,snowshoe.jpg,noparkingsign.jpg,barrel01.jpg,squid.jpg,mrpotatohead.jpg,mummy.jpg,skippingrope.jpg,dreamcatcher.jpg,magneticcompass.jpg,cheetah.jpg,eye.jpg,,,,,1,0,7,,,,,.\resources\saxophone.jpg,,,1,,,,,,,,,1,,,,,,,,,None,811.8429779999994,None,811.8429779999994,None,,,,,,,806.9594251999997,809.7092885000002,809.4426446999996,None,0.06362937360633315,809.9592750000002,None,809.9592750000002,None,810.6425721999994,None,810.6425721999994,None,left,0.8273227999998198,810.6425721999994,None,811.5763270999996,None,right,0.22964159999992262,811.5763270999996,None,811.5763270999996,None,-8.17553826626071,150.58089393466344,,8,001,2021_Apr_08_1353,AB_pic_singleT2,2021.1.2,60.008989346721975,
AB,lag4,4,4,8,0.06000000005000003,0.02,0.3,main,,,,,0,92,92,92,,,,,,,crosscountryski.jpg,bowlingball.jpg,apron.jpg,rollerblade.jpg,parkingmeter.jpg,cactus.jpg,zipper.jpg,ceilingfan01.jpg,microwave.jpg,recyclingbin.jpg,pingpongtable.jpg,seal.jpg,sandcastle.jpg,foot.jpg,icecube02.jpg,eyepatch.jpg,kangaroo.jpg,,,,,0,0,10,,,,,.\resources\ceilingfan01.jpg,,,1,,,,,,,,,1,,,,,,,,,None,816.5093631999996,None,816.5093631999996,None,,,,,,,811.8596198999994,814.6090171999995,814.3423681999993,None,0.06349964047583255,814.8590052999998,None,814.8590052999998,None,815.7922855999996,None,815.7922855999996,None,right,0.4058090999997148,815.7922855999996,None,816.3089276999999,None,right,0.15307430000029854,816.3089276999999,None,816.3089276999999,None,-8.156316570799667,150.5850696416694,,8,001,2021_Apr_08_1353,AB_pic_singleT2,2021.1.2,60.008989346721975,
AB,lag7,7,4,11,0.06000000005000003,0.02,0.3,main,,,,,0,93,93,93,,,,,,,pokerchips.jpg,bridge.jpg,electricguitar01.jpg,lighthouse.jpg,grizzly.jpg,zipper.jpg,greywolf.jpg,saxophone.jpg,mrpotatohead.jpg,elbow.jpg,recyclingbin.jpg,bumpercar.jpg,bench01.jpg,table01.jpg,golfball.jpg,daddylonglegs.jpg,eye.jpg,,,,,0,0,13,,,,,.\resources\recyclingbin.jpg,,,1,,,,,,,,,1,,,,,,,,,None,821.7086200000001,None,821.7086200000001,None,,,,,,,816.5260213000001,819.2754175999999,819.0087697999998,None,0.06337023288316067,819.5087377999998,None,819.5087377999998,None,820.7086709999994,None,820.7086709999994,None,right,0.6331866000000446,820.7086709999994,None,821.4253146000001,None,right,0.24472900000000664,821.4253146000001,None,821.4253146000001,None,-8.137131562502558,150.5890929907782,,8,001,2021_Apr_08_1353,AB_pic_singleT2,2021.1.2,60.008989346721975,
AB,lag1,1,5,6,0.06000000005000003,0.02,0.3,main,,,,,0,94,94,94,,,,,,,moose.jpg,holdfast.jpg,cork02.jpg,cactus.jpg,snowshoe.jpg,arrow02.jpg,lizard.jpg,mattress.jpg,squirrel.jpg,well.jpg,mailbox02.jpg,table01.jpg,dragonfly01.jpg,nunchuk.jpg,scooter.jpg,cashregister01.jpg,hammerheadshark.jpg,,,,,0,0,8,,,,,.\resources\arrow02.jpg,,,1,,,,,,,,,1,,,,,,,,,None,826.5583662999995,None,826.5583662999995,None,,,,,,,821.7252743999998,824.4751188,824.2084638999995,None,0.06324114007516897,824.7084389000001,None,824.7084389000001,None,825.4917329999998,None,825.4917329999998,None,right,0.45012230000065756,825.4917329999998,None,826.0250631999997,None,right,0.5089714000005188,826.0250631999997,None,826.0250631999997,None,-8.117981613085256,150.5929618068582,,8,001,2021_Apr_08_1353,AB_pic_singleT2,2021.1.2,60.008989346721975,
AB,lag5,5,4,9,0.06000000005000003,0.02,0.3,main,,,,,0,95,95,95,,,,,,,armadillo.jpg,nosmokingsign.jpg,drumset.jpg,waterfountain02.jpg,bow.jpg,noparkingsign.jpg,pig.jpg,electrictoothbrush01c.jpg,snowshovel.jpg,lollipop04.jpg,horse.jpg,worldmap.jpg,holdfast.jpg,urinal.jpg,pirateflag.jpg,cruiseship.jpg,alligator.jpg,,,,,0,1,11,,,,,.\resources\snowshovel.jpg,,,1,,,,,,,,,1,,,,,,,,,None,832.4584727999998,None,832.4584727999998,None,,,,,,,826.5750042999998,829.3248482999998,829.0581980999996,None,0.06311235173390627,829.5748348999996,None,829.5748348999996,None,830.5747763999998,None,830.5747763999998,None,right,1.4951177000002644,830.5747763999998,None,832.1584740999997,None,left,0.26343760000054317,832.1584740999997,None,832.1584740999997,None,-8.098865168894513,150.5966740928124,,8,001,2021_Apr_08_1353,AB_pic_singleT2,2021.1.2,60.008989346721975,
AB,lag2,2,5,7,0.06000000005000003,0.02,0.3,main,,,,,0,96,96,96,,,,,,,platypus.jpg,trophy01.jpg,acousticguitar02.jpg,dragonfly01.jpg,crosscountryski.jpg,baseballbat.jpg,raccoon.jpg,skateboard.jpg,icecube02.jpg,spear02.jpg,bed.jpg,fishingrod.jpg,sink.jpg,noparkingsign.jpg,turnstile.jpg,handcuffs.jpg,daddylonglegs.jpg,,,,,1,1,9,,,,,.\resources\raccoon.jpg,,,1,,,,,,,,,1,,,,,,,,,None,838.0580921999997,None,838.0580921999997,None,,,,,,,832.4751162000002,835.2245017999994,834.9578520999994,None,0.06298385795803645,835.4744897999999,None,835.4744897999999,None,836.3077489999996,None,836.3077489999996,None,left,1.0581925000005867,836.3077489999996,None,837.4581173999995,None,left,0.5717387000004237,837.4581173999995,None,837.4581173999995,None,-8.079780747590135,150.60022802035024,,8,001,2021_Apr_08_1353,AB_pic_singleT2,2021.1.2,60.008989346721975,
AB,lag6,6,3,9,0.06000000005000003,0.02,0.3,main,,,,,0,97,97,97,,,,,,,dragonfly01.jpg,vacuumcleaner01.jpg,icecube02.jpg,greatwhiteshark.jpg,motorcycle.jpg,bridge.jpg,golfball.jpg,worldmap.jpg,rollerblade.jpg,parkfountain.jpg,birdnest.jpg,tire.jpg,cat.jpg,brownsugar.jpg,electrictoothbrush01c.jpg,ant.jpg,tank.jpg,,,,,0,1,11,,,,,.\resources\rollerblade.jpg,,,1,,,,,,,,,1,,,,,,,,,None,843.3073568999996,None,843.3073568999996,None,,,,,,,838.0747325000002,840.8241573999994,840.5575085,None,0.06285564924530458,841.0574778999999,None,841.0574778999999,None,842.0740869000001,None,842.0740869000001,None,right,0.8277458000002298,842.0740869000001,None,842.9906995000001,None,left,0.2872096999999485,842.9906995000001,None,842.9906995000001,None,-8.060726935014937,150.60362192130114,,8,001,2021_Apr_08_1353,AB_pic_singleT2,2021.1.2,60.008989346721975,
AB,lag3,3,3,6,0.06000000005000003,0.02,0.3,main,,,,,0,98,98,98,,,,,,,soccerball.jpg,sword01.jpg,fishskeleton.jpg,ipad02.jpg,steeringwheel.jpg,basketball01.jpg,skunk.jpg,footballhelmet.jpg,penguin.jpg,banjo.jpg,ostrich.jpg,eiffeltower.jpg,africanelephant.jpg,sandcastle.jpg,waterfountain02.jpg,bacon.jpg,rollerblade.jpg,,,,,0,1,8,,,,,.\resources\basketball01.jpg,,,1,,,,,,,,,1,,,,,,,,,None,848.4241263000001,None,848.4241263000001,None,,,,,,,843.3240354999998,846.0738573999997,845.8072063,None,0.06272771647597843,846.3072137999998,None,846.3072137999998,None,847.0738071999995,None,847.0738071999995,None,right,0.9400525000000926,847.0738071999995,None,848.1070718999999,None,left,0.2988095999999132,848.1070718999999,None,848.1070718999999,None,-8.041702382240562,150.60685427944014,,8,001,2021_Apr_08_1353,AB_pic_singleT2,2021.1.2,60.008989346721975,
AB,lag1,1,3,4,0.06000000005000003,0.02,0.3,main,,,,,0,99,99,99,,,,,,,snowboard.jpg,chefshat.jpg,shovel01.jpg,bowlingpin.jpg,accordion01.jpg,barrel01.jpg,fishingrod.jpg,donut.jpg,bat.jpg,grizzly.jpg,squid.jpg,nose.jpg,cloud.jpg,candycane01a.jpg,recyclingbin.jpg,basketball01.jpg,bull.jpg,,,,,0,1,6,,,,,.\resources\bowlingpin.jpg,,,1,,,,,,,,,1,,,,,,,,,None,853.4238380999993,None,853.4238380999993,None,,,,,,,848.4407720999998,851.1902085000002,850.9235613000001,None,0.0626000508972021,851.4235270999998,None,851.4235270999998,None,852.0234922999998,None,852.0234922999998,None,right,0.9984657999993942,852.0234922999998,None,853.1067831,None,left,0.29912620000050083,853.1067831,None,853.1067831,None,-8.022705802776184,150.609923722776,,8,001,2021_Apr_08_1353,AB_pic_singleT2,2021.1.2,60.008989346721975,
AB,lag2,2,4,6,0.06000000005000003,0.02,0.3,main,,,,,0,100,100,100,,,,,,,mailbox02.jpg,bull.jpg,banjo.jpg,chimney.jpg,squid.jpg,spiderweb.jpg,dromedary.jpg,pingpongtable.jpg,dartboard.jpg,zipper.jpg,stool01.jpg,birthdaycandle.jpg,crab01.jpg,locker.jpg,cork02.jpg,ladybug03.jpg,holdfast.jpg,,,,,0,1,8,,,,,.\resources\spiderweb.jpg,,,1,,,,,,,,,1,,,,,,,,,None,858.6236333999993,None,858.6236333999993,None,,,,,,,853.4404862000001,856.1904364000002,855.9237842000002,None,0.06247264410819961,856.4232929,None,856.4232929,None,857.1899261999997,None,857.1899261999997,None,right,0.9920301000001928,857.1899261999997,None,858.2898617000001,None,left,0.3159928000004584,858.2898617000001,None,858.2898617000001,None,-8.003735969930297,150.61282901629778,,8,001,2021_Apr_08_1353,AB_pic_singleT2,2021.1.2,60.008989346721975,
AB,lag3,3,5,8,0.06000000005000003,0.02,0.3,main,,,,,0,101,101,101,,,,,,,noparkingsign.jpg,birthdaycandle.jpg,ladder.jpg,turnstile.jpg,schoolbus.jpg,mailbox02.jpg,escalator.jpg,grizzly.jpg,cat.jpg,foldingchair.jpg,dormer.jpg,alligator.jpg,stool01.jpg,foosballtable.jpg,lollipop04.jpg,spear02.jpg,rollerblade.jpg,,,,,0,1,10,,,,,.\resources\grizzly.jpg,,,1,,,,,,,,,1,,,,,,,,,None,863.7232901999994,None,863.7232901999994,None,,,,,,,858.6402859999998,861.3896863999998,861.1230298999999,None,0.062345488046267925,861.6396616000002,None,861.6396616000002,None,862.5562504999998,None,862.5562504999998,None,right,0.6976398999995581,862.5562504999998,None,863.3728811000001,None,left,0.305174199999783,863.3728811000001,None,863.3728811000001,None,-7.984791714315217,150.61556905512148,,8,001,2021_Apr_08_1353,AB_pic_singleT2,2021.1.2,60.008989346721975,
AB,lag5,5,3,8,0.06000000005000003,0.02,0.3,main,,,,,0,102,102,102,,,,,,,bow.jpg,mailbox02.jpg,greathornowl.jpg,curtain.jpg,crosscountryski.jpg,hockeypuck.jpg,zebra.jpg,fingerprint.jpg,ceilingfan01.jpg,smokingpipe.jpg,cashregister01.jpg,masquerademask01.jpg,apron.jpg,skippingrope.jpg,punchingbag.jpg,shovel01.jpg,uprightpiano01.jpg,,,,,1,0,10,,,,,.\resources\fingerprint.jpg,,,1,,,,,,,,,1,,,,,,,,,None,869.2225338999995,None,869.2225338999995,None,,,,,,,863.7399581999998,866.4893691999996,866.2227336999995,None,0.06221857497351769,866.7226823999999,None,866.7226823999999,None,867.6559659999994,None,867.6559659999994,None,left,1.1818874000000505,867.6559659999994,None,868.9225363999994,None,right,0.283371000000443,868.9225363999994,None,868.9225363999994,None,-7.965871921484375,150.618142858026,,8,001,2021_Apr_08_1353,AB_pic_singleT2,2021.1.2,60.008989346721975,
