consent1.started,consent1.stopped,key_resp_8.keys,key_resp_8.rt,key_resp_8.duration,PROLIFIC_PID,STUDY_ID,SESSION_ID,age,sex,native language,date,expName,psychopyVersion,OS,frameRate,consent2.started,consent2.stopped,key_resp_9.keys,key_resp_9.rt,key_resp_9.duration,consent3.started,consent3.stopped,key_resp_10.keys,key_resp_10.rt,key_resp_10.duration,consent4.started,consent4.stopped,key_resp_11.keys,key_resp_11.rt,key_resp_11.duration,consent5.started,consent5.stopped,key_resp_12.keys,key_resp_12.rt,key_resp_12.duration,bonusInstruct.started,bonusInstruct.stopped,key_resp_14.keys,key_resp_14.rt,key_resp_14.duration,practiceInstruct.started,practiceInstruct.stopped,key_resp.keys,key_resp.rt,key_resp.duration,cueWord_2.started,cueWord_2.stopped,fix.started,frameTarget,fix.stopped,trial.started,img1Add,trial.stopped,img2Add,img3Add,img4Add,img5Add,img6Add,img7Add,img8Add,img9Add,img10Add,img11Add,img12Add,prompt1.started,prompt1.stopped,key_resp_2.keys,key_resp_2.rt,key_resp_2.duration,prompt2.started,prompt2.stopped,key_resp_3.keys,key_resp_3.rt,key_resp_3.duration,runningAcc_AB,runningTotal,runningCount_AB,feedback.started,feedback.stopped,trials.thisRepN,trials.thisTrialN,trials.thisN,trials.thisIndex,trials.ran,TrialType,CondType,Lag,T1_PA,T2_PA,T1Loc,T2Loc,PreDistractor,PostDistractor,TotalImg,cueWord,T1cue,StimLength,isi,PicFolder,Img1,Img2,Img3,Img4,Img5,Img6,Img7,Img8,Img9,Img10,Img11,Img12,Img13,Img14,Img15,Img16,Img17,T1_Identity,trialID,img13Add,img14Add,img15Add,ABfeedback.started,ABfeedback.stopped,key_resp_13.keys,key_resp_13.rt,key_resp_13.duration,MemPracticeInstruction.started,MemPracticeInstruction.stopped,key_resp_5.keys,key_resp_5.rt,key_resp_5.duration,memTrial.started,memTrial.stopped,Mem_runningPoints,key_resp_4.keys,key_resp_4.rt,key_resp_4.duration,memTrialFeedback.started,memTrialFeedback.stopped,trials_2.thisRepN,trials_2.thisTrialN,trials_2.thisN,trials_2.thisIndex,trials_2.ran,ABtrialID,priorLag,image,memFeedback.started,memFeedback.frame,memFeedback.ended,memFeedback.stopped,bonus.started,bonus.stopped,memoryBlockABInstruct.started,memoryBlockABInstruct.stopped,key_resp_6.keys,key_resp_6.rt,key_resp_6.duration,AB_block_1.thisRepN,AB_block_1.thisTrialN,AB_block_1.thisN,AB_block_1.thisIndex,AB_block_1.ran,img16Add,img17Add,AB_break1.started,AB_break1.stopped,PerceiveBlockABInstruct.started,PerceiveBlockABInstruct.stopped,key_resp_7.keys,key_resp_7.rt,key_resp_7.duration,AB_block_2.thisRepN,AB_block_2.thisTrialN,AB_block_2.thisN,AB_block_2.thisIndex,AB_block_2.ran,AB_break2.started,AB_break2.stopped,AB_block_3.thisRepN,AB_block_3.thisTrialN,AB_block_3.thisN,AB_block_3.thisIndex,AB_block_3.ran,AB_break3.started,AB_break3.stopped,AB_block_4.thisRepN,AB_block_4.thisTrialN,AB_block_4.thisN,AB_block_4.thisIndex,AB_block_4.ran,AB_break4.started,AB_break4.stopped,AB_block_5.thisRepN,AB_block_5.thisTrialN,AB_block_5.thisN,AB_block_5.thisIndex,AB_block_5.ran,AB_break5.started,AB_break5.stopped,AB_block_6.thisRepN,AB_block_6.thisTrialN,AB_block_6.thisN,AB_block_6.thisIndex,AB_block_6.ran,AB_break6.started,AB_break6.stopped,MemInstructionSURPRISE.started,MemInstructionSURPRISE.stopped,MemInstruction.started,MemInstruction.stopped,memBreak.started,memBreak.stopped,Mem_block_1.thisRepN,Mem_block_1.thisTrialN,Mem_block_1.thisN,Mem_block_1.thisIndex,Mem_block_1.ran
0.0003,9.7471,space,9.7221,,62d76f709faa1189cba646a6,6669d216483b4754e2264ff7,6669dada4d73eff0c13490ee,30,male,english,2024-06-12_13h30.56.633,ABmemTask3,2023.2.3,Win32,60.24096386,,,,,,,,,,,,,,,,,,,,,,,,,,,,,,,,,,,,,,,,,,,,,,,,,,,,,,,,,,,,,,,,,,,,,,,,,,,,,,,,,,,,,,,,,,,,,,,,,,,,,,,,,,,,,,,,,,,,,,,,,,,,,,,,,,,,,,,,,,,,,,,,,,,,,,,,,,,,,,,,,,,,,,,,,,,,,,,,,,,,,,,,,,,,,,,,,,,,,,,,,,,
,,,,,62d76f709faa1189cba646a6,6669d216483b4754e2264ff7,6669dada4d73eff0c13490ee,30,male,english,2024-06-12_13h30.56.633,ABmemTask3,2023.2.3,Win32,60.24096386,9.7475,19.0373,space,9.2317,,,,,,,,,,,,,,,,,,,,,,,,,,,,,,,,,,,,,,,,,,,,,,,,,,,,,,,,,,,,,,,,,,,,,,,,,,,,,,,,,,,,,,,,,,,,,,,,,,,,,,,,,,,,,,,,,,,,,,,,,,,,,,,,,,,,,,,,,,,,,,,,,,,,,,,,,,,,,,,,,,,,,,,,,,,,,,,,,,,,,,,,,,,,,,,,,,,,,,,
,,,,,62d76f709faa1189cba646a6,6669d216483b4754e2264ff7,6669dada4d73eff0c13490ee,30,male,english,2024-06-12_13h30.56.633,ABmemTask3,2023.2.3,Win32,60.24096386,,,,,,19.0376,27.3479,space,8.2746,,,,,,,,,,,,,,,,,,,,,,,,,,,,,,,,,,,,,,,,,,,,,,,,,,,,,,,,,,,,,,,,,,,,,,,,,,,,,,,,,,,,,,,,,,,,,,,,,,,,,,,,,,,,,,,,,,,,,,,,,,,,,,,,,,,,,,,,,,,,,,,,,,,,,,,,,,,,,,,,,,,,,,,,,,,,,,,,,,,,,,,,,,,,,,,,,,
,,,,,62d76f709faa1189cba646a6,6669d216483b4754e2264ff7,6669dada4d73eff0c13490ee,30,male,english,2024-06-12_13h30.56.633,ABmemTask3,2023.2.3,Win32,60.24096386,,,,,,,,,,,27.3481,32.153,space,4.7706,,,,,,,,,,,,,,,,,,,,,,,,,,,,,,,,,,,,,,,,,,,,,,,,,,,,,,,,,,,,,,,,,,,,,,,,,,,,,,,,,,,,,,,,,,,,,,,,,,,,,,,,,,,,,,,,,,,,,,,,,,,,,,,,,,,,,,,,,,,,,,,,,,,,,,,,,,,,,,,,,,,,,,,,,,,,,,,,,,,,,,,,,,,,,
,,,,,62d76f709faa1189cba646a6,6669d216483b4754e2264ff7,6669dada4d73eff0c13490ee,30,male,english,2024-06-12_13h30.56.633,ABmemTask3,2023.2.3,Win32,60.24096386,,,,,,,,,,,,,,,,32.1534,33.369,space,1.1753,,,,,,,,,,,,,,,,,,,,,,,,,,,,,,,,,,,,,,,,,,,,,,,,,,,,,,,,,,,,,,,,,,,,,,,,,,,,,,,,,,,,,,,,,,,,,,,,,,,,,,,,,,,,,,,,,,,,,,,,,,,,,,,,,,,,,,,,,,,,,,,,,,,,,,,,,,,,,,,,,,,,,,,,,,,,,,,,,,,,,,,,
,,,,,62d76f709faa1189cba646a6,6669d216483b4754e2264ff7,6669dada4d73eff0c13490ee,30,male,english,2024-06-12_13h30.56.633,ABmemTask3,2023.2.3,Win32,60.24096386,,,,,,,,,,,,,,,,,,,,,33.3693,41.6642,space,8.254,,,,,,,,,,,,,,,,,,,,,,,,,,,,,,,,,,,,,,,,,,,,,,,,,,,,,,,,,,,,,,,,,,,,,,,,,,,,,,,,,,,,,,,,,,,,,,,,,,,,,,,,,,,,,,,,,,,,,,,,,,,,,,,,,,,,,,,,,,,,,,,,,,,,,,,,,,,,,,,,,,,,,,,,,,,,,,,,,,,
,,,,,62d76f709faa1189cba646a6,6669d216483b4754e2264ff7,6669dada4d73eff0c13490ee,30,male,english,2024-06-12_13h30.56.633,ABmemTask3,2023.2.3,Win32,60.24096386,,,,,,,,,,,,,,,,,,,,,,,,,,41.6644,54.6441,space,12.9625,,,,,,,,,,,,,,,,,,,,,,,,,,,,,,,,,,,,,,,,,,,,,,,,,,,,,,,,,,,,,,,,,,,,,,,,,,,,,,,,,,,,,,,,,,,,,,,,,,,,,,,,,,,,,,,,,,,,,,,,,,,,,,,,,,,,,,,,,,,,,,,,,,,,,,,,,,,,,,,,,,,,,,,,,,,,,,
,,,,,62d76f709faa1189cba646a6,6669d216483b4754e2264ff7,6669dada4d73eff0c13490ee,30,male,english,2024-06-12_13h30.56.633,ABmemTask3,2023.2.3,Win32,60.24096386,,,,,,,,,,,,,,,,,,,,,,,,,,,,,,,54.6623,55.6566,55.6571,15,56.1548,58.8961,0.0028,59.1422,0.2441,0.2516,0.2462,0.2543,0.2443,0.2495,0.2526,0.2502,0.2497,0.2451,0.2512,59.1446,61.842,left,2.6772,,61.8421,63.331,right,1.4711,,-4,0,2,63.3314,64.3319,0,0,0,0,1,prac_AB,L1_T1P_T2A,1,1,0,6,7,5,5,12,cat,Did you see the cat,0.25,0,resources/,pics/shipinabottle.jpg,pics/table01.jpg,pics/dustpan.jpg,pics/golfball.jpg,pics/giraffe.jpg,pics/cat.jpg,pics/peanut01.jpg,pics/pictureframe04.jpg,pics/fanblades.jpg,pics/laptop01a.jpg,pics/ball02.jpg,pics/blender.jpg,blankImage,blankImage,blankImage,blankImage,blankImage,cat,8,,,,,,,,,,,,,,,,,,,,,,,,,,,,,,,,,,,,,,,,,,,,,,,,,,,,,,,,,,,,,,,,,,,,,,,,,,,,,,,,,,,,,,,,,,,,,,,,,,,,
,,,,,62d76f709faa1189cba646a6,6669d216483b4754e2264ff7,6669dada4d73eff0c13490ee,30,male,english,2024-06-12_13h30.56.633,ABmemTask3,2023.2.3,Win32,60.24096386,,,,,,,,,,,,,,,,,,,,,,,,,,,,,,,64.3461,65.3417,65.3418,14,65.8405,67.935,0.0032,68.1675,0.2309,0.2337,0.2319,0.2328,0.2329,0.2329,0.2328,0.2358,0.2282,,,68.1676,69.0158,left,0.8188,,69.0163,69.6647,left,0.6191,,-6,0,4,69.6647,70.6638,0,1,1,1,1,prac_AB,L1_T1P_T2P,1,1,1,5,6,4,4,10,tree,Did you see the tree,0.24,0,resources/,pics/carrot01.jpg,pics/hammerheadshark.jpg,pics/kangaroo.jpg,pics/proboscismonkey.jpg,pics/tree.jpg,pics/stapler07.jpg,pics/siamesecat.jpg,pics/ball02.jpg,pics/pictureframe04.jpg,pics/mummy.jpg,blankImage,blankImage,blankImage,blankImage,blankImage,blankImage,blankImage,tree,1,,,,,,,,,,,,,,,,,,,,,,,,,,,,,,,,,,,,,,,,,,,,,,,,,,,,,,,,,,,,,,,,,,,,,,,,,,,,,,,,,,,,,,,,,,,,,,,,,,,,
,,,,,62d76f709faa1189cba646a6,6669d216483b4754e2264ff7,6669dada4d73eff0c13490ee,30,male,english,2024-06-12_13h30.56.633,ABmemTask3,2023.2.3,Win32,60.24096386,,,,,,,,,,,,,,,,,,,,,,,,,,,,,,,70.6649,71.658,71.6581,14,72.1574,74.7169,0.0025,74.9492,0.232,0.231,0.2338,0.2326,0.2374,0.2322,0.2332,0.2276,0.2335,0.2316,0.2331,74.9493,76.4339,right,1.4635,,76.4342,77.1435,right,0.6891,,-8,0,6,77.1436,78.1403,0,2,2,2,1,prac_AB,L1_T1A_T2P,1,0,1,7,8,6,4,12,grapes,Did you see the grapes,0.23,0,resources/,pics/sailboat.jpg,pics/butterfly.jpg,pics/giraffe.jpg,pics/spoon01.jpg,pics/hose.jpg,pics/nutcracker01.jpg,pics/table01.jpg,pics/stapler13.jpg,pics/pencil01.jpg,pics/football.jpg,pics/triangle.jpg,pics/hairdryer02a.jpg,blankImage,blankImage,blankImage,blankImage,blankImage,grape01,6,,,,,,,,,,,,,,,,,,,,,,,,,,,,,,,,,,,,,,,,,,,,,,,,,,,,,,,,,,,,,,,,,,,,,,,,,,,,,,,,,,,,,,,,,,,,,,,,,,,,
,,,,,62d76f709faa1189cba646a6,6669d216483b4754e2264ff7,6669dada4d73eff0c13490ee,30,male,english,2024-06-12_13h30.56.633,ABmemTask3,2023.2.3,Win32,60.24096386,,,,,,,,,,,,,,,,,,,,,,,,,,,,,,,78.1542,79.1543,79.1543,13,79.6541,82.6784,0.0027,82.8981,0.2146,0.2162,0.2154,0.2205,0.2117,0.2196,0.2126,0.2163,0.2155,0.2164,0.2198,82.8982,83.492,left,0.5759,,83.4923,84.0914,left,0.5723,,-10,0,8,84.0915,85.0875,0,3,3,3,1,prac_AB,L5_T1P_T2P,5,1,1,7,12,6,3,15,Human skull,Did you see the Human skull,0.22,0,resources/,pics/peach01.jpg,pics/proboscismonkey.jpg,pics/hose.jpg,pics/laptop01a.jpg,pics/hammerheadshark.jpg,pics/nutcracker01.jpg,pics/humanskull.jpg,pics/table01.jpg,pics/icecube01.jpg,pics/boot02b.jpg,pics/calendar.jpg,pics/stapler03a.jpg,pics/ashtray01.jpg,pics/giraffe.jpg,pics/dromedary.jpg,blankImage,blankImage,humanskull,12,0.216,0.2122,0.2154,,,,,,,,,,,,,,,,,,,,,,,,,,,,,,,,,,,,,,,,,,,,,,,,,,,,,,,,,,,,,,,,,,,,,,,,,,,,,,,,,,,,,,,,,,,,,,,,,
,,,,,62d76f709faa1189cba646a6,6669d216483b4754e2264ff7,6669dada4d73eff0c13490ee,30,male,english,2024-06-12_13h30.56.633,ABmemTask3,2023.2.3,Win32,60.24096386,,,,,,,,,,,,,,,,,,,,,,,,,,,,,,,85.0937,86.0858,86.0859,13,86.5837,88.7456,0.0024,88.9607,0.2196,0.2118,0.2172,0.2201,0.2142,0.2137,0.2155,0.2152,0.2163,0.2166,,88.9609,90.5448,right,1.5619,,90.5449,91.388,right,0.8201,,-12,0,10,91.3881,92.3853,0,4,4,4,1,prac_AB,L1_T1A_T2P,1,0,1,7,8,6,3,11,dog,Did you see the dog,0.21,0,resources/,pics/ball02.jpg,pics/binder03b.jpg,pics/dromedary.jpg,pics/shipinabottle.jpg,pics/proboscismonkey.jpg,pics/laptop01a.jpg,pics/chainsaw.jpg,pics/stapler13.jpg,pics/nutcracker01.jpg,pics/carrot01.jpg,pics/calendar.jpg,blankImage,blankImage,blankImage,blankImage,blankImage,blankImage,saintbernard,7,,,,,,,,,,,,,,,,,,,,,,,,,,,,,,,,,,,,,,,,,,,,,,,,,,,,,,,,,,,,,,,,,,,,,,,,,,,,,,,,,,,,,,,,,,,,,,,,,,,,
,,,,,62d76f709faa1189cba646a6,6669d216483b4754e2264ff7,6669dada4d73eff0c13490ee,30,male,english,2024-06-12_13h30.56.633,ABmemTask3,2023.2.3,Win32,60.24096386,,,,,,,,,,,,,,,,,,,,,,,,,,,,,,,92.3984,93.3993,93.3995,12,93.8988,96.6895,0.003,96.8889,0.1965,0.2045,0.1947,0.2036,0.1963,0.2009,0.1975,0.1988,0.2049,0.1988,0.1957,96.889,97.3212,left,0.4055,,97.3213,98.0926,left,0.7489,,-14,0,12,98.0929,99.0844,0,5,5,5,1,prac_AB,L5_T1P_T2P,5,1,1,5,10,4,5,15,grater,Did you see the grater,0.2,0,resources/,pics/pencil01.jpg,pics/laptop01a.jpg,pics/hammerheadshark.jpg,pics/cork02.jpg,pics/grater01a.jpg,pics/shipinabottle.jpg,pics/binder03b.jpg,pics/dromedary.jpg,pics/pictureframe04.jpg,pics/stapler04b.jpg,pics/fanblades.jpg,pics/aquarium.jpg,pics/hairdryer02a.jpg,pics/lightswitch01.jpg,pics/piggybank.jpg,blankImage,blankImage,grater01a,11,0.1977,0.1997,0.1983,,,,,,,,,,,,,,,,,,,,,,,,,,,,,,,,,,,,,,,,,,,,,,,,,,,,,,,,,,,,,,,,,,,,,,,,,,,,,,,,,,,,,,,,,,,,,,,,,
,,,,,62d76f709faa1189cba646a6,6669d216483b4754e2264ff7,6669dada4d73eff0c13490ee,30,male,english,2024-06-12_13h30.56.633,ABmemTask3,2023.2.3,Win32,60.24096386,,,,,,,,,,,,,,,,,,,,,,,,,,,,,,,99.0977,100.1021,100.1023,11,100.5958,102.0585,0.0022,102.2409,0.182,0.1823,0.1825,0.1834,0.1837,0.1871,0.1784,0.182,,,,102.241,103.2387,right,0.9645,,103.2388,104.1031,right,0.8358,,-16,0,14,104.1032,105.1052,0,6,6,6,1,prac_AB,L1_T1P_T2A,1,1,0,4,5,3,4,9,chalk,Did you see the chalk,0.19,0,resources/,pics/necklace.jpg,pics/starfish01.jpg,pics/safetypin.jpg,pics/chalk.jpg,pics/candleholder01.jpg,pics/bowtie.jpg,pics/match.jpg,pics/candle01.jpg,pics/pencilsharpener02a.jpg,blankImage,blankImage,blankImage,blankImage,blankImage,blankImage,blankImage,blankImage,chalk,9,,,,,,,,,,,,,,,,,,,,,,,,,,,,,,,,,,,,,,,,,,,,,,,,,,,,,,,,,,,,,,,,,,,,,,,,,,,,,,,,,,,,,,,,,,,,,,,,,,,,
,,,,,62d76f709faa1189cba646a6,6669d216483b4754e2264ff7,6669dada4d73eff0c13490ee,30,male,english,2024-06-12_13h30.56.633,ABmemTask3,2023.2.3,Win32,60.24096386,,,,,,,,,,,,,,,,,,,,,,,,,,,,,,,105.126,106.1137,106.1137,11,106.6126,108.2581,0.0012,108.4408,0.1824,0.1823,0.1828,0.1841,0.1827,0.1816,0.1828,0.1836,0.1822,,,108.4408,108.9554,left,0.506,,108.9555,109.2882,left,0.3152,,-18,0,16,109.2883,110.2867,0,7,7,7,1,prac_AB,L1_T1P_T2P,1,1,1,5,6,4,4,10,pants,Did you see the pants,0.18,0,resources/,pics/kangaroo.jpg,pics/safetypin.jpg,pics/salmon.jpg,pics/sandbarshark.jpg,pics/pants.jpg,pics/stapler03a.jpg,pics/sink.jpg,pics/calendar.jpg,pics/butterfly.jpg,pics/fanblades.jpg,blankImage,blankImage,blankImage,blankImage,blankImage,blankImage,blankImage,pants,2,,,,,,,,,,,,,,,,,,,,,,,,,,,,,,,,,,,,,,,,,,,,,,,,,,,,,,,,,,,,,,,,,,,,,,,,,,,,,,,,,,,,,,,,,,,,,,,,,,,,
,,,,,62d76f709faa1189cba646a6,6669d216483b4754e2264ff7,6669dada4d73eff0c13490ee,30,male,english,2024-06-12_13h30.56.633,ABmemTask3,2023.2.3,Win32,60.24096386,,,,,,,,,,,,,,,,,,,,,,,,,,,,,,,110.2875,111.2839,111.2839,10,111.7823,114.1096,0.002,114.276,0.1654,0.1654,0.167,0.1667,0.1658,0.1656,0.1659,0.1665,0.1671,0.1661,0.1659,114.2761,115.8543,right,1.5609,,115.8544,116.2042,left,0.3353,,-22,0,18,116.2043,117.2014,0,8,8,8,1,prac_AB,L5_T1A_T2P,5,0,1,7,12,6,3,15,shirt,Did you see the shirt,0.17,0,resources/,pics/banjo.jpg,pics/chainsaw.jpg,pics/sailboat.jpg,pics/shipinabottle.jpg,pics/lightswitch01.jpg,pics/starfish01.jpg,pics/hen.jpg,pics/ball02.jpg,pics/bowlingpin.jpg,pics/hammerheadshark.jpg,pics/footballhelmet.jpg,pics/stapler10.jpg,pics/laptop01a.jpg,pics/cannon.jpg,pics/golfball.jpg,blankImage,blankImage,shirt02,13,0.1654,0.1666,0.1659,,,,,,,,,,,,,,,,,,,,,,,,,,,,,,,,,,,,,,,,,,,,,,,,,,,,,,,,,,,,,,,,,,,,,,,,,,,,,,,,,,,,,,,,,,,,,,,,,
,,,,,62d76f709faa1189cba646a6,6669d216483b4754e2264ff7,6669dada4d73eff0c13490ee,30,male,english,2024-06-12_13h30.56.633,ABmemTask3,2023.2.3,Win32,60.24096386,,,,,,,,,,,,,,,,,,,,,,,,,,,,,,,117.2151,118.2156,118.2156,10,118.7121,120.3767,0.001,120.5415,0.1675,0.1665,0.1656,0.167,0.1658,0.1658,0.1658,0.1667,0.1669,0.1661,,120.5416,120.9236,left,0.3684,,120.9237,121.2238,left,0.2849,,-24,0,20,121.2239,122.2206,0,9,9,9,1,prac_AB,L1_T1P_T2P,1,1,1,7,8,6,3,11,tongs,Did you see the tongs,0.16,0,resources/,pics/sewingmachine01a.jpg,pics/shovel01.jpg,pics/football.jpg,pics/hen.jpg,pics/banjo.jpg,pics/zebra.jpg,pics/tongs01b.jpg,pics/stapler11.jpg,pics/shipinabottle.jpg,pics/match.jpg,pics/candle01.jpg,blankImage,blankImage,blankImage,blankImage,blankImage,blankImage,tongs01b,5,,,,,,,,,,,,,,,,,,,,,,,,,,,,,,,,,,,,,,,,,,,,,,,,,,,,,,,,,,,,,,,,,,,,,,,,,,,,,,,,,,,,,,,,,,,,,,,,,,,,
,,,,,62d76f709faa1189cba646a6,6669d216483b4754e2264ff7,6669dada4d73eff0c13490ee,30,male,english,2024-06-12_13h30.56.633,ABmemTask3,2023.2.3,Win32,60.24096386,,,,,,,,,,,,,,,,,,,,,,,,,,,,,,,122.2218,123.2181,123.2182,9,123.7162,125.3624,0.0022,125.5116,0.1492,0.149,0.1504,0.1499,0.1494,0.1487,0.15,0.1495,0.1497,0.1497,0.149,125.5117,126.0923,right,0.5624,,126.0924,126.9907,right,0.8813,,-30,0,22,126.9908,127.9886,0,10,10,10,1,prac_AB,L1_T1A_T2A,1,0,0,7,8,6,4,12,camera,Did you see the camera,0.15,0,resources/,pics/lightswitch01.jpg,pics/table01.jpg,pics/aquarium.jpg,pics/boot02b.jpg,pics/butterfly.jpg,pics/chainsaw.jpg,pics/binoculars01b.jpg,pics/giraffe.jpg,pics/triangle.jpg,pics/microscope.jpg,pics/mummy.jpg,pics/icecube01.jpg,blankImage,blankImage,blankImage,blankImage,blankImage,camera01a,10,,,,,,,,,,,,,,,,,,,,,,,,,,,,,,,,,,,,,,,,,,,,,,,,,,,,,,,,,,,,,,,,,,,,,,,,,,,,,,,,,,,,,,,,,,,,,,,,,,,,
,,,,,62d76f709faa1189cba646a6,6669d216483b4754e2264ff7,6669dada4d73eff0c13490ee,30,male,english,2024-06-12_13h30.56.633,ABmemTask3,2023.2.3,Win32,60.24096386,,,,,,,,,,,,,,,,,,,,,,,,,,,,,,,127.9895,128.9857,128.9857,8,129.4842,130.6805,0.0019,130.8138,0.1314,0.1333,0.1341,0.1327,0.1307,0.1335,0.1334,0.1347,0.1311,,,130.8139,131.247,left,0.4107,,131.2471,131.5444,left,0.2813,,-32,0,24,131.5446,132.541,0,11,11,11,1,prac_AB,L1_T1P_T2P,1,1,1,6,7,5,3,10,shorts,Did you see the shorts,0.14,0,resources/,pics/snowshoe.jpg,pics/chainsaw.jpg,pics/sailboat.jpg,pics/ball02.jpg,pics/candleholder01.jpg,pics/shorts01.jpg,pics/stapler07.jpg,pics/peach01.jpg,pics/proboscismonkey.jpg,pics/hen.jpg,blankImage,blankImage,blankImage,blankImage,blankImage,blankImage,blankImage,shorts01,4,,,,,,,,,,,,,,,,,,,,,,,,,,,,,,,,,,,,,,,,,,,,,,,,,,,,,,,,,,,,,,,,,,,,,,,,,,,,,,,,,,,,,,,,,,,,,,,,,,,,
,,,,,62d76f709faa1189cba646a6,6669d216483b4754e2264ff7,6669dada4d73eff0c13490ee,30,male,english,2024-06-12_13h30.56.633,ABmemTask3,2023.2.3,Win32,60.24096386,,,,,,,,,,,,,,,,,,,,,,,,,,,,,,,132.5413,133.5402,133.5402,8,134.0387,135.6347,0.0018,135.7674,0.1315,0.1339,0.1325,0.1337,0.132,0.1331,0.1335,0.1325,0.133,0.1323,0.1323,135.7675,136.481,left,0.6956,,136.4811,136.8646,right,0.3691,,-36,0,26,136.8646,137.8613,0,12,12,12,1,prac_AB,L5_T1P_T2A,5,1,0,5,10,4,3,13,fish,Did you see the fish,0.13,0,resources/,pics/football.jpg,pics/safetypin.jpg,pics/shovel01.jpg,pics/sink.jpg,pics/holdfast.jpg,pics/nutcracker01.jpg,pics/starfish01.jpg,pics/onion.jpg,pics/footballhelmet.jpg,pics/boot02b.jpg,pics/sewingmachine01a.jpg,pics/kangaroo.jpg,pics/banjo.jpg,blankImage,blankImage,blankImage,blankImage,holdfast,14,0.134,,,,,,,,,,,,,,,,,,,,,,,,,,,,,,,,,,,,,,,,,,,,,,,,,,,,,,,,,,,,,,,,,,,,,,,,,,,,,,,,,,,,,,,,,,,,,,,,,,,
,,,,,62d76f709faa1189cba646a6,6669d216483b4754e2264ff7,6669dada4d73eff0c13490ee,30,male,english,2024-06-12_13h30.56.633,ABmemTask3,2023.2.3,Win32,60.24096386,,,,,,,,,,,,,,,,,,,,,,,,,,,,,,,137.8622,138.8579,138.858,7,139.3566,140.4048,0.0021,140.521,0.1155,0.1172,0.1165,0.1153,0.1167,0.1163,0.1171,0.1163,0.1156,,,140.5211,141.9343,right,1.3968,,141.9344,142.5481,left,0.6069,,-36,0,28,142.5483,143.5458,0,13,13,13,1,prac_AB,L1_T1P_T2P,1,1,1,5,6,4,4,10,fish,Did you see the fish,0.12,0,resources/,pics/butterfly.jpg,pics/banjo.jpg,pics/leaf02a.jpg,pics/dustpan.jpg,pics/sturgeon.jpg,pics/stapler02.jpg,pics/necklace.jpg,pics/shovel01.jpg,pics/starfish01.jpg,pics/chainsaw.jpg,blankImage,blankImage,blankImage,blankImage,blankImage,blankImage,blankImage,sturgeon,3,,,,,,,,,,,,,,,,,,,,,,,,,,,,,,,,,,,,,,,,,,,,,,,,,,,,,,,,,,,,,,,,,,,,,,,,,,,,,,,,,,,,,,,,,,,,,,,,,,,,
,,,,,62d76f709faa1189cba646a6,6669d216483b4754e2264ff7,6669dada4d73eff0c13490ee,30,male,english,2024-06-12_13h30.56.633,ABmemTask3,2023.2.3,Win32,60.24096386,,,,,,,,,,,,,,,,,,,,,,,,,,,,,,,,,,,,,,,,,,,,,,,,,,,,,,,,,,,,,,,,,,,,,,,,,,,,,,,,,,,,,,,,,,,,,,,,,,,,,,,,,,,143.5473,157.1434,space,13.5751,,,,,,,,,,,,,,,,,,,,,,,,,,,,,,,,,,,,,,,,,,,,,,,,,,,,,,,,,,,,,,,,,,,,,,,,,,,,,,,,,,,,,,,,,,,,,
,,,,,62d76f709faa1189cba646a6,6669d216483b4754e2264ff7,6669dada4d73eff0c13490ee,30,male,english,2024-06-12_13h30.56.633,ABmemTask3,2023.2.3,Win32,60.24096386,,,,,,,,,,,,,,,,,,,,,,,,,,,,,,,157.159,158.1567,158.1568,15,158.6548,161.3968,0.002,161.6464,0.2484,0.2482,0.2505,0.2485,0.2494,0.2499,0.2497,0.2487,0.2496,0.2477,0.25,161.6464,162.3445,right,0.6783,,162.3446,162.826,left,0.4677,,2,0,2,162.826,163.8241,0,0,0,0,1,prac_AB,L1_T1P_T2A,1,1,0,6,7,5,5,12,cat,Did you see the cat,0.25,0,resources/,pics/shipinabottle.jpg,pics/table01.jpg,pics/dustpan.jpg,pics/golfball.jpg,pics/giraffe.jpg,pics/cat.jpg,pics/peanut01.jpg,pics/pictureframe04.jpg,pics/fanblades.jpg,pics/laptop01a.jpg,pics/ball02.jpg,pics/blender.jpg,blankImage,blankImage,blankImage,blankImage,blankImage,cat,8,,,,,,,,,,,,,,,,,,,,,,,,,,,,,,,,,,,,,,,,,,,,,,,,,,,,,,,,,,,,,,,,,,,,,,,,,,,,,,,,,,,,,,,,,,,,,,,,,,,,
,,,,,62d76f709faa1189cba646a6,6669d216483b4754e2264ff7,6669dada4d73eff0c13490ee,30,male,english,2024-06-12_13h30.56.633,ABmemTask3,2023.2.3,Win32,60.24096386,,,,,,,,,,,,,,,,,,,,,,,,,,,,,,,163.8249,164.8205,164.8207,14,165.3204,167.4144,0.0018,167.646,0.2302,0.2337,0.2328,0.2322,0.2323,0.2333,0.2335,0.233,0.2315,,,167.6461,168.0957,right,0.427,,168.0957,168.5942,right,0.4899,,4,0,4,168.5942,169.5914,0,1,1,1,1,prac_AB,L1_T1P_T2P,1,1,1,5,6,4,4,10,tree,Did you see the tree,0.24,0,resources/,pics/carrot01.jpg,pics/hammerheadshark.jpg,pics/kangaroo.jpg,pics/proboscismonkey.jpg,pics/tree.jpg,pics/stapler07.jpg,pics/siamesecat.jpg,pics/ball02.jpg,pics/pictureframe04.jpg,pics/mummy.jpg,blankImage,blankImage,blankImage,blankImage,blankImage,blankImage,blankImage,tree,1,,,,,,,,,,,,,,,,,,,,,,,,,,,,,,,,,,,,,,,,,,,,,,,,,,,,,,,,,,,,,,,,,,,,,,,,,,,,,,,,,,,,,,,,,,,,,,,,,,,,
,,,,,62d76f709faa1189cba646a6,6669d216483b4754e2264ff7,6669dada4d73eff0c13490ee,30,male,english,2024-06-12_13h30.56.633,ABmemTask3,2023.2.3,Win32,60.24096386,,,,,,,,,,,,,,,,,,,,,,,,,,,,,,,169.5919,170.5892,170.5892,14,171.0867,173.6478,0.0022,173.8796,0.2322,0.2332,0.232,0.2333,0.2319,0.2316,0.2344,0.2323,0.2331,0.2321,0.2327,173.8796,174.4951,left,0.6028,,174.4952,174.8769,right,0.3735,,6,0,6,174.8769,175.8746,0,2,2,2,1,prac_AB,L1_T1A_T2P,1,0,1,7,8,6,4,12,grapes,Did you see the grapes,0.23,0,resources/,pics/sailboat.jpg,pics/butterfly.jpg,pics/giraffe.jpg,pics/spoon01.jpg,pics/hose.jpg,pics/nutcracker01.jpg,pics/table01.jpg,pics/stapler13.jpg,pics/pencil01.jpg,pics/football.jpg,pics/triangle.jpg,pics/hairdryer02a.jpg,blankImage,blankImage,blankImage,blankImage,blankImage,grape01,6,,,,,,,,,,,,,,,,,,,,,,,,,,,,,,,,,,,,,,,,,,,,,,,,,,,,,,,,,,,,,,,,,,,,,,,,,,,,,,,,,,,,,,,,,,,,,,,,,,,,
,,,,,62d76f709faa1189cba646a6,6669d216483b4754e2264ff7,6669dada4d73eff0c13490ee,30,male,english,2024-06-12_13h30.56.633,ABmemTask3,2023.2.3,Win32,60.24096386,,,,,,,,,,,,,,,,,,,,,,,,,,,,,,,175.8753,176.8708,176.8709,13,177.3696,180.396,0.0023,180.6123,0.2138,0.2178,0.2152,0.2166,0.2161,0.2169,0.2158,0.2152,0.216,0.2164,0.2169,180.6124,181.0938,right,0.4602,,181.0939,181.5764,right,0.4756,,8,0,8,181.5765,182.5723,0,3,3,3,1,prac_AB,L5_T1P_T2P,5,1,1,7,12,6,3,15,Human skull,Did you see the Human skull,0.22,0,resources/,pics/peach01.jpg,pics/proboscismonkey.jpg,pics/hose.jpg,pics/laptop01a.jpg,pics/hammerheadshark.jpg,pics/nutcracker01.jpg,pics/humanskull.jpg,pics/table01.jpg,pics/icecube01.jpg,pics/boot02b.jpg,pics/calendar.jpg,pics/stapler03a.jpg,pics/ashtray01.jpg,pics/giraffe.jpg,pics/dromedary.jpg,blankImage,blankImage,humanskull,12,0.2158,0.2169,0.2152,,,,,,,,,,,,,,,,,,,,,,,,,,,,,,,,,,,,,,,,,,,,,,,,,,,,,,,,,,,,,,,,,,,,,,,,,,,,,,,,,,,,,,,,,,,,,,,,,
,,,,,62d76f709faa1189cba646a6,6669d216483b4754e2264ff7,6669dada4d73eff0c13490ee,30,male,english,2024-06-12_13h30.56.633,ABmemTask3,2023.2.3,Win32,60.24096386,,,,,,,,,,,,,,,,,,,,,,,,,,,,,,,182.5732,183.5695,183.5695,13,184.0693,186.2301,0.0022,186.4454,0.2145,0.2162,0.2159,0.2144,0.2179,0.2148,0.2172,0.2154,0.2157,0.2172,,186.4455,187.227,left,0.7598,,187.2271,187.5424,right,0.3084,,10,0,10,187.5425,188.5392,0,4,4,4,1,prac_AB,L1_T1A_T2P,1,0,1,7,8,6,3,11,dog,Did you see the dog,0.21,0,resources/,pics/ball02.jpg,pics/binder03b.jpg,pics/dromedary.jpg,pics/shipinabottle.jpg,pics/proboscismonkey.jpg,pics/laptop01a.jpg,pics/chainsaw.jpg,pics/stapler13.jpg,pics/nutcracker01.jpg,pics/carrot01.jpg,pics/calendar.jpg,blankImage,blankImage,blankImage,blankImage,blankImage,blankImage,saintbernard,7,,,,,,,,,,,,,,,,,,,,,,,,,,,,,,,,,,,,,,,,,,,,,,,,,,,,,,,,,,,,,,,,,,,,,,,,,,,,,,,,,,,,,,,,,,,,,,,,,,,,
,,,,,62d76f709faa1189cba646a6,6669d216483b4754e2264ff7,6669dada4d73eff0c13490ee,30,male,english,2024-06-12_13h30.56.633,ABmemTask3,2023.2.3,Win32,60.24096386,,,,,,,,,,,,,,,,,,,,,,,,,,,,,,,188.5401,189.5366,189.5367,12,190.0358,192.8286,0.0022,193.0278,0.1975,0.2002,0.1982,0.2,0.2002,0.2003,0.1988,0.1998,0.1982,0.1999,0.1978,193.0279,193.6927,right,0.6429,,193.6929,194.2908,right,0.5839,,12,0,12,194.2909,195.2877,0,5,5,5,1,prac_AB,L5_T1P_T2P,5,1,1,5,10,4,5,15,grater,Did you see the grater,0.2,0,resources/,pics/pencil01.jpg,pics/laptop01a.jpg,pics/hammerheadshark.jpg,pics/cork02.jpg,pics/grater01a.jpg,pics/shipinabottle.jpg,pics/binder03b.jpg,pics/dromedary.jpg,pics/pictureframe04.jpg,pics/stapler04b.jpg,pics/fanblades.jpg,pics/aquarium.jpg,pics/hairdryer02a.jpg,pics/lightswitch01.jpg,pics/piggybank.jpg,blankImage,blankImage,grater01a,11,0.2015,0.199,0.1994,,,,,,,,,,,,,,,,,,,,,,,,,,,,,,,,,,,,,,,,,,,,,,,,,,,,,,,,,,,,,,,,,,,,,,,,,,,,,,,,,,,,,,,,,,,,,,,,,
,,,,,62d76f709faa1189cba646a6,6669d216483b4754e2264ff7,6669dada4d73eff0c13490ee,30,male,english,2024-06-12_13h30.56.633,ABmemTask3,2023.2.3,Win32,60.24096386,,,,,,,,,,,,,,,,,,,,,,,,,,,,,,,195.3012,196.3013,196.3013,11,196.8008,198.2629,0.0019,198.4465,0.1822,0.1828,0.1819,0.1834,0.1838,0.1816,0.1838,0.1811,,,,198.4465,199.227,right,0.7605,,199.2272,199.5755,left,0.3356,,14,0,14,199.5755,200.5737,0,6,6,6,1,prac_AB,L1_T1P_T2A,1,1,0,4,5,3,4,9,chalk,Did you see the chalk,0.19,0,resources/,pics/necklace.jpg,pics/starfish01.jpg,pics/safetypin.jpg,pics/chalk.jpg,pics/candleholder01.jpg,pics/bowtie.jpg,pics/match.jpg,pics/candle01.jpg,pics/pencilsharpener02a.jpg,blankImage,blankImage,blankImage,blankImage,blankImage,blankImage,blankImage,blankImage,chalk,9,,,,,,,,,,,,,,,,,,,,,,,,,,,,,,,,,,,,,,,,,,,,,,,,,,,,,,,,,,,,,,,,,,,,,,,,,,,,,,,,,,,,,,,,,,,,,,,,,,,,
,,,,,62d76f709faa1189cba646a6,6669d216483b4754e2264ff7,6669dada4d73eff0c13490ee,30,male,english,2024-06-12_13h30.56.633,ABmemTask3,2023.2.3,Win32,60.24096386,,,,,,,,,,,,,,,,,,,,,,,,,,,,,,,200.5742,201.5708,201.5709,11,202.069,203.7157,0.002,203.8982,0.1828,0.1819,0.1828,0.1838,0.1828,0.1828,0.1824,0.1831,0.1831,,,203.8983,204.2969,right,0.3796,,204.2969,204.6951,right,0.3911,,16,0,16,204.6953,205.6923,0,7,7,7,1,prac_AB,L1_T1P_T2P,1,1,1,5,6,4,4,10,pants,Did you see the pants,0.18,0,resources/,pics/kangaroo.jpg,pics/safetypin.jpg,pics/salmon.jpg,pics/sandbarshark.jpg,pics/pants.jpg,pics/stapler03a.jpg,pics/sink.jpg,pics/calendar.jpg,pics/butterfly.jpg,pics/fanblades.jpg,blankImage,blankImage,blankImage,blankImage,blankImage,blankImage,blankImage,pants,2,,,,,,,,,,,,,,,,,,,,,,,,,,,,,,,,,,,,,,,,,,,,,,,,,,,,,,,,,,,,,,,,,,,,,,,,,,,,,,,,,,,,,,,,,,,,,,,,,,,,
,,,,,62d76f709faa1189cba646a6,6669d216483b4754e2264ff7,6669dada4d73eff0c13490ee,30,male,english,2024-06-12_13h30.56.633,ABmemTask3,2023.2.3,Win32,60.24096386,,,,,,,,,,,,,,,,,,,,,,,,,,,,,,,205.6932,206.6901,206.6901,10,207.1897,209.5158,0.0019,209.6822,0.1638,0.1669,0.1654,0.1671,0.165,0.1672,0.167,0.1654,0.1674,0.1657,0.1666,209.6824,210.3965,left,0.6999,,210.3966,210.7455,right,0.341,,18,0,18,210.7456,211.7424,0,8,8,8,1,prac_AB,L5_T1A_T2P,5,0,1,7,12,6,3,15,shirt,Did you see the shirt,0.17,0,resources/,pics/banjo.jpg,pics/chainsaw.jpg,pics/sailboat.jpg,pics/shipinabottle.jpg,pics/lightswitch01.jpg,pics/starfish01.jpg,pics/hen.jpg,pics/ball02.jpg,pics/bowlingpin.jpg,pics/hammerheadshark.jpg,pics/footballhelmet.jpg,pics/stapler10.jpg,pics/laptop01a.jpg,pics/cannon.jpg,pics/golfball.jpg,blankImage,blankImage,shirt02,13,0.1663,0.1656,0.1652,,,,,,,,,,,,,,,,,,,,,,,,,,,,,,,,,,,,,,,,,,,,,,,,,,,,,,,,,,,,,,,,,,,,,,,,,,,,,,,,,,,,,,,,,,,,,,,,,
,,,,,62d76f709faa1189cba646a6,6669d216483b4754e2264ff7,6669dada4d73eff0c13490ee,30,male,english,2024-06-12_13h30.56.633,ABmemTask3,2023.2.3,Win32,60.24096386,,,,,,,,,,,,,,,,,,,,,,,,,,,,,,,211.7432,212.7407,212.7407,10,213.2385,214.9025,0.0017,215.0676,0.1657,0.1669,0.1666,0.1661,0.1649,0.1671,0.166,0.166,0.1661,0.1674,,215.0676,215.5651,right,0.4867,,215.5652,215.9149,right,0.3354,,20,0,20,215.9149,216.9127,0,9,9,9,1,prac_AB,L1_T1P_T2P,1,1,1,7,8,6,3,11,tongs,Did you see the tongs,0.16,0,resources/,pics/sewingmachine01a.jpg,pics/shovel01.jpg,pics/football.jpg,pics/hen.jpg,pics/banjo.jpg,pics/zebra.jpg,pics/tongs01b.jpg,pics/stapler11.jpg,pics/shipinabottle.jpg,pics/match.jpg,pics/candle01.jpg,blankImage,blankImage,blankImage,blankImage,blankImage,blankImage,tongs01b,5,,,,,,,,,,,,,,,,,,,,,,,,,,,,,,,,,,,,,,,,,,,,,,,,,,,,,,,,,,,,,,,,,,,,,,,,,,,,,,,,,,,,,,,,,,,,,,,,,,,,
,,,,,62d76f709faa1189cba646a6,6669d216483b4754e2264ff7,6669dada4d73eff0c13490ee,30,male,english,2024-06-12_13h30.56.633,ABmemTask3,2023.2.3,Win32,60.24096386,,,,,,,,,,,,,,,,,,,,,,,,,,,,,,,216.9136,217.9097,217.9097,9,218.4081,220.0543,0.0021,220.2031,0.1479,0.1508,0.1482,0.1501,0.15,0.1498,0.1487,0.1484,0.151,0.1499,0.1498,220.2031,220.7676,left,0.5483,,220.7678,221.3834,left,0.6018,,22,0,22,221.3835,222.3794,0,10,10,10,1,prac_AB,L1_T1A_T2A,1,0,0,7,8,6,4,12,camera,Did you see the camera,0.15,0,resources/,pics/lightswitch01.jpg,pics/table01.jpg,pics/aquarium.jpg,pics/boot02b.jpg,pics/butterfly.jpg,pics/chainsaw.jpg,pics/binoculars01b.jpg,pics/giraffe.jpg,pics/triangle.jpg,pics/microscope.jpg,pics/mummy.jpg,pics/icecube01.jpg,blankImage,blankImage,blankImage,blankImage,blankImage,camera01a,10,,,,,,,,,,,,,,,,,,,,,,,,,,,,,,,,,,,,,,,,,,,,,,,,,,,,,,,,,,,,,,,,,,,,,,,,,,,,,,,,,,,,,,,,,,,,,,,,,,,,
,,,,,62d76f709faa1189cba646a6,6669d216483b4754e2264ff7,6669dada4d73eff0c13490ee,30,male,english,2024-06-12_13h30.56.633,ABmemTask3,2023.2.3,Win32,60.24096386,,,,,,,,,,,,,,,,,,,,,,,,,,,,,,,222.3797,223.3786,223.3787,8,223.8754,225.0746,0.001,225.2067,0.1342,0.1316,0.1346,0.1328,0.1341,0.1324,0.1328,0.133,0.1331,,,225.2068,225.9044,right,0.6773,,225.9046,226.2208,right,0.2988,,24,0,24,226.2209,227.2173,0,11,11,11,1,prac_AB,L1_T1P_T2P,1,1,1,6,7,5,3,10,shorts,Did you see the shorts,0.14,0,resources/,pics/snowshoe.jpg,pics/chainsaw.jpg,pics/sailboat.jpg,pics/ball02.jpg,pics/candleholder01.jpg,pics/shorts01.jpg,pics/stapler07.jpg,pics/peach01.jpg,pics/proboscismonkey.jpg,pics/hen.jpg,blankImage,blankImage,blankImage,blankImage,blankImage,blankImage,blankImage,shorts01,4,,,,,,,,,,,,,,,,,,,,,,,,,,,,,,,,,,,,,,,,,,,,,,,,,,,,,,,,,,,,,,,,,,,,,,,,,,,,,,,,,,,,,,,,,,,,,,,,,,,,
,,,,,62d76f709faa1189cba646a6,6669d216483b4754e2264ff7,6669dada4d73eff0c13490ee,30,male,english,2024-06-12_13h30.56.633,ABmemTask3,2023.2.3,Win32,60.24096386,,,,,,,,,,,,,,,,,,,,,,,,,,,,,,,227.2182,228.2154,228.2154,8,228.7132,230.3099,0.0022,230.442,0.1322,0.1321,0.1335,0.1338,0.1322,0.1334,0.1321,0.1332,0.1332,0.1331,0.1323,230.4421,231.2902,right,0.828,,231.2904,231.6218,left,0.3173,,26,0,26,231.6219,232.6194,0,12,12,12,1,prac_AB,L5_T1P_T2A,5,1,0,5,10,4,3,13,fish,Did you see the fish,0.13,0,resources/,pics/football.jpg,pics/safetypin.jpg,pics/shovel01.jpg,pics/sink.jpg,pics/holdfast.jpg,pics/nutcracker01.jpg,pics/starfish01.jpg,pics/onion.jpg,pics/footballhelmet.jpg,pics/boot02b.jpg,pics/sewingmachine01a.jpg,pics/kangaroo.jpg,pics/banjo.jpg,blankImage,blankImage,blankImage,blankImage,holdfast,14,0.1338,,,,,,,,,,,,,,,,,,,,,,,,,,,,,,,,,,,,,,,,,,,,,,,,,,,,,,,,,,,,,,,,,,,,,,,,,,,,,,,,,,,,,,,,,,,,,,,,,,,
,,,,,62d76f709faa1189cba646a6,6669d216483b4754e2264ff7,6669dada4d73eff0c13490ee,30,male,english,2024-06-12_13h30.56.633,ABmemTask3,2023.2.3,Win32,60.24096386,,,,,,,,,,,,,,,,,,,,,,,,,,,,,,,232.6202,233.6163,233.6163,7,234.1158,235.1629,0.002,235.2785,0.1151,0.1156,0.1171,0.1153,0.1177,0.1159,0.1165,0.1152,0.1173,,,235.2786,236.2592,left,0.9729,,236.2592,237.6559,left,1.3828,,24,0,28,237.656,238.653,0,13,13,13,1,prac_AB,L1_T1P_T2P,1,1,1,5,6,4,4,10,fish,Did you see the fish,0.12,0,resources/,pics/butterfly.jpg,pics/banjo.jpg,pics/leaf02a.jpg,pics/dustpan.jpg,pics/sturgeon.jpg,pics/stapler02.jpg,pics/necklace.jpg,pics/shovel01.jpg,pics/starfish01.jpg,pics/chainsaw.jpg,blankImage,blankImage,blankImage,blankImage,blankImage,blankImage,blankImage,sturgeon,3,,,,,,,,,,,,,,,,,,,,,,,,,,,,,,,,,,,,,,,,,,,,,,,,,,,,,,,,,,,,,,,,,,,,,,,,,,,,,,,,,,,,,,,,,,,,,,,,,,,,
,,,,,62d76f709faa1189cba646a6,6669d216483b4754e2264ff7,6669dada4d73eff0c13490ee,30,male,english,2024-06-12_13h30.56.633,ABmemTask3,2023.2.3,Win32,60.24096386,,,,,,,,,,,,,,,,,,,,,,,,,,,,,,,,,,,,,,,,,,,,,,,,,,,,,,,,,,,,,,,,,,,,,,,,,,,,,,,,,,,,,,,,,,,,,,,,,,,,,,,,,,,238.6532,240.5146,space,1.8417,,,,,,,,,,,,,,,,,,,,,,,,,,,,,,,,,,,,,,,,,,,,,,,,,,,,,,,,,,,,,,,,,,,,,,,,,,,,,,,,,,,,,,,,,,,,,
,,,,,62d76f709faa1189cba646a6,6669d216483b4754e2264ff7,6669dada4d73eff0c13490ee,30,male,english,2024-06-12_13h30.56.633,ABmemTask3,2023.2.3,Win32,60.24096386,,,,,,,,,,,,,,,,,,,,,,,,,,,,,,,,,,,,,,,,,,,,,,,,,,,,,,,,,,,,,,,,,,,,,,,,,,,,,,,,,,,,,,,,,,,,,,,,,,,,,,,,,,,240.5306,240.5328,,,,,,,,,,,,,,,,,,,,,,,,,,,,,,,,,,,,,,,,,,,,,,,,,,,,,,,,,,,,,,,,,,,,,,,,,,,,,,,,,,,,,,,,,,,,,,,
,,,,,62d76f709faa1189cba646a6,6669d216483b4754e2264ff7,6669dada4d73eff0c13490ee,30,male,english,2024-06-12_13h30.56.633,ABmemTask3,2023.2.3,Win32,60.24096386,,,,,,,,,,,,,,,,,,,,,,,,,,,,,,,,,,,,,,,,,,,,,,,,,,,,,,,,,,,,,,,,,,,,,,,,,,,,,,,,,,,,,,,,,,,,,,,,,,,,,,,,,,,240.535,240.535,,,,,,,,,,,,,,,,,,,,,,,,,,,,,,,,,,,,,,,,,,,,,,,,,,,,,,,,,,,,,,,,,,,,,,,,,,,,,,,,,,,,,,,,,,,,,,,
,,,,,62d76f709faa1189cba646a6,6669d216483b4754e2264ff7,6669dada4d73eff0c13490ee,30,male,english,2024-06-12_13h30.56.633,ABmemTask3,2023.2.3,Win32,60.24096386,,,,,,,,,,,,,,,,,,,,,,,,,,,,,,,,,,,,,,,,,,,,,,,,,,,,,,,,,,,,,,,,,,,,,,,,,,,,,,,,,,,,,,,,,,,,,,,,,,,,,,,,,,,240.5364,240.5364,,,,,,,,,,,,,,,,,,,,,,,,,,,,,,,,,,,,,,,,,,,,,,,,,,,,,,,,,,,,,,,,,,,,,,,,,,,,,,,,,,,,,,,,,,,,,,,
,,,,,62d76f709faa1189cba646a6,6669d216483b4754e2264ff7,6669dada4d73eff0c13490ee,30,male,english,2024-06-12_13h30.56.633,ABmemTask3,2023.2.3,Win32,60.24096386,,,,,,,,,,,,,,,,,,,,,,,,,,,,,,,,,,,,,,,,,,,,,,,,,,,,,,,,,,,,,,,,,,,,,,,,,,,,,,,,,,,,,,,,,,,,,,,,,,,,,,,,,,,240.5374,240.5374,,,,,,,,,,,,,,,,,,,,,,,,,,,,,,,,,,,,,,,,,,,,,,,,,,,,,,,,,,,,,,,,,,,,,,,,,,,,,,,,,,,,,,,,,,,,,,,
,,,,,62d76f709faa1189cba646a6,6669d216483b4754e2264ff7,6669dada4d73eff0c13490ee,30,male,english,2024-06-12_13h30.56.633,ABmemTask3,2023.2.3,Win32,60.24096386,,,,,,,,,,,,,,,,,,,,,,,,,,,,,,,,,,,,,,,,,,,,,,,,,,,,,,,,,,,,,,,,,,,,,,,,,,,,,,,,,,,,,,,,,,,,,,,,,,,,,,,,,,,240.5388,240.5388,,,,,,,,,,,,,,,,,,,,,,,,,,,,,,,,,,,,,,,,,,,,,,,,,,,,,,,,,,,,,,,,,,,,,,,,,,,,,,,,,,,,,,,,,,,,,,,
,,,,,62d76f709faa1189cba646a6,6669d216483b4754e2264ff7,6669dada4d73eff0c13490ee,30,male,english,2024-06-12_13h30.56.633,ABmemTask3,2023.2.3,Win32,60.24096386,,,,,,,,,,,,,,,,,,,,,,,,,,,,,,,,,,,,,,,,,,,,,,,,,,,,,,,,,,,,,,,,,,,,,,,,,,,,,,,,,,,,,,,,,,,,,,,,,,,,,,,,,,,240.5398,240.5398,,,,,,,,,,,,,,,,,,,,,,,,,,,,,,,,,,,,,,,,,,,,,,,,,,,,,,,,,,,,,,,,,,,,,,,,,,,,,,,,,,,,,,,,,,,,,,,
,,,,,62d76f709faa1189cba646a6,6669d216483b4754e2264ff7,6669dada4d73eff0c13490ee,30,male,english,2024-06-12_13h30.56.633,ABmemTask3,2023.2.3,Win32,60.24096386,,,,,,,,,,,,,,,,,,,,,,,,,,,,,,,,,,,,,,,,,,,,,,,,,,,,,,,,,,,,,,,,,,,,,,,,,,,,,,,,,,,,,,,,,,,,,,,,,,,,,,,,,,,240.5407,240.5407,,,,,,,,,,,,,,,,,,,,,,,,,,,,,,,,,,,,,,,,,,,,,,,,,,,,,,,,,,,,,,,,,,,,,,,,,,,,,,,,,,,,,,,,,,,,,,,
,,,,,62d76f709faa1189cba646a6,6669d216483b4754e2264ff7,6669dada4d73eff0c13490ee,30,male,english,2024-06-12_13h30.56.633,ABmemTask3,2023.2.3,Win32,60.24096386,,,,,,,,,,,,,,,,,,,,,,,,,,,,,,,,,,,,,,,,,,,,,,,,,,,,,,,,,,,,,,,,,,,,,,,,,,,,,,,,,,,,,,,,,,,,,,,,,,,,,,,,,,,240.5416,240.5416,,,,,,,,,,,,,,,,,,,,,,,,,,,,,,,,,,,,,,,,,,,,,,,,,,,,,,,,,,,,,,,,,,,,,,,,,,,,,,,,,,,,,,,,,,,,,,,
,,,,,62d76f709faa1189cba646a6,6669d216483b4754e2264ff7,6669dada4d73eff0c13490ee,30,male,english,2024-06-12_13h30.56.633,ABmemTask3,2023.2.3,Win32,60.24096386,,,,,,,,,,,,,,,,,,,,,,,,,,,,,,,,,,,,,,,,,,,,,,,,,,,,,,,,,,,,,,,,,,,,,,,,,,,,,,,,,,,,,,,,,,,,,,,,,,,,,,,,,,,240.543,240.543,,,,,,,,,,,,,,,,,,,,,,,,,,,,,,,,,,,,,,,,,,,,,,,,,,,,,,,,,,,,,,,,,,,,,,,,,,,,,,,,,,,,,,,,,,,,,,,
,,,,,62d76f709faa1189cba646a6,6669d216483b4754e2264ff7,6669dada4d73eff0c13490ee,30,male,english,2024-06-12_13h30.56.633,ABmemTask3,2023.2.3,Win32,60.24096386,,,,,,,,,,,,,,,,,,,,,,,,,,,,,,,,,,,,,,,,,,,,,,,,,,,,,,,,,,,,,,,,,,,,,,,,,,,,,,,,,,,,,,,,,,,,,,,,,,,,,,,,,,,240.5439,240.5439,,,,,,,,,,,,,,,,,,,,,,,,,,,,,,,,,,,,,,,,,,,,,,,,,,,,,,,,,,,,,,,,,,,,,,,,,,,,,,,,,,,,,,,,,,,,,,,
,,,,,62d76f709faa1189cba646a6,6669d216483b4754e2264ff7,6669dada4d73eff0c13490ee,30,male,english,2024-06-12_13h30.56.633,ABmemTask3,2023.2.3,Win32,60.24096386,,,,,,,,,,,,,,,,,,,,,,,,,,,,,,,,,,,,,,,,,,,,,,,,,,,,,,,,,,,,,,,,,,,,,,,,,,,,,,,,,,,,,,,,,,,,,,,,,,,,,,,,,,,240.5448,240.5448,,,,,,,,,,,,,,,,,,,,,,,,,,,,,,,,,,,,,,,,,,,,,,,,,,,,,,,,,,,,,,,,,,,,,,,,,,,,,,,,,,,,,,,,,,,,,,,
,,,,,62d76f709faa1189cba646a6,6669d216483b4754e2264ff7,6669dada4d73eff0c13490ee,30,male,english,2024-06-12_13h30.56.633,ABmemTask3,2023.2.3,Win32,60.24096386,,,,,,,,,,,,,,,,,,,,,,,,,,,,,,,,,,,,,,,,,,,,,,,,,,,,,,,,,,,,,,,,,,,,,,,,,,,,,,,,,,,,,,,,,,,,,,,,,,,,,,,,,,,240.5462,240.5462,,,,,,,,,,,,,,,,,,,,,,,,,,,,,,,,,,,,,,,,,,,,,,,,,,,,,,,,,,,,,,,,,,,,,,,,,,,,,,,,,,,,,,,,,,,,,,,
,,,,,62d76f709faa1189cba646a6,6669d216483b4754e2264ff7,6669dada4d73eff0c13490ee,30,male,english,2024-06-12_13h30.56.633,ABmemTask3,2023.2.3,Win32,60.24096386,,,,,,,,,,,,,,,,,,,,,,,,,,,,,,,,,,,,,,,,,,,,,,,,,,,,,,,,,,,,,,,,,,,,,,,,,,,,,,,,,,,,,,,,,,,,,,,,,,,,,,,,,,,240.5471,240.5471,,,,,,,,,,,,,,,,,,,,,,,,,,,,,,,,,,,,,,,,,,,,,,,,,,,,,,,,,,,,,,,,,,,,,,,,,,,,,,,,,,,,,,,,,,,,,,,
,,,,,62d76f709faa1189cba646a6,6669d216483b4754e2264ff7,6669dada4d73eff0c13490ee,30,male,english,2024-06-12_13h30.56.633,ABmemTask3,2023.2.3,Win32,60.24096386,,,,,,,,,,,,,,,,,,,,,,,,,,,,,,,,,,,,,,,,,,,,,,,,,,,,,,,,,,,,,,,,,,,,,,,,,,,,,,,,,,,,,,,,,,,,,,,,,,,,,,,,,,,240.5478,240.5478,,,,,,,,,,,,,,,,,,,,,,,,,,,,,,,,,,,,,,,,,,,,,,,,,,,,,,,,,,,,,,,,,,,,,,,,,,,,,,,,,,,,,,,,,,,,,,,
,,,,,62d76f709faa1189cba646a6,6669d216483b4754e2264ff7,6669dada4d73eff0c13490ee,30,male,english,2024-06-12_13h30.56.633,ABmemTask3,2023.2.3,Win32,60.24096386,,,,,,,,,,,,,,,,,,,,,,,,,,,,,,,,,,,,,,,,,,,,,,,,,,,,,,,,,,,,,,,,,,,,,,,,,,,,,,,,,,,,,,,,,,,,,,,,,,,,,,,,,,,240.5485,240.5485,,,,,,,,,,,,,,,,,,,,,,,,,,,,,,,,,,,,,,,,,,,,,,,,,,,,,,,,,,,,,,,,,,,,,,,,,,,,,,,,,,,,,,,,,,,,,,,
,,,,,62d76f709faa1189cba646a6,6669d216483b4754e2264ff7,6669dada4d73eff0c13490ee,30,male,english,2024-06-12_13h30.56.633,ABmemTask3,2023.2.3,Win32,60.24096386,,,,,,,,,,,,,,,,,,,,,,,,,,,,,,,,,,,,,,,,,,,,,,,,,,,,,,,,,,,,,,,,,,,,,,,,,,,,,,,,,,,,,,,,,,,,,,,,,,,,,,,,,,,240.5494,240.5495,,,,,,,,,,,,,,,,,,,,,,,,,,,,,,,,,,,,,,,,,,,,,,,,,,,,,,,,,,,,,,,,,,,,,,,,,,,,,,,,,,,,,,,,,,,,,,,
,,,,,62d76f709faa1189cba646a6,6669d216483b4754e2264ff7,6669dada4d73eff0c13490ee,30,male,english,2024-06-12_13h30.56.633,ABmemTask3,2023.2.3,Win32,60.24096386,,,,,,,,,,,,,,,,,,,,,,,,,,,,,,,,,,,,,,,,,,,,,,,,,,,,,,,,,,,,,,,,,,,,,,,,,,,,,,,,,,,,,,,,,,,,,,,,,,,,,,,,,,,240.5504,240.5505,,,,,,,,,,,,,,,,,,,,,,,,,,,,,,,,,,,,,,,,,,,,,,,,,,,,,,,,,,,,,,,,,,,,,,,,,,,,,,,,,,,,,,,,,,,,,,,
,,,,,62d76f709faa1189cba646a6,6669d216483b4754e2264ff7,6669dada4d73eff0c13490ee,30,male,english,2024-06-12_13h30.56.633,ABmemTask3,2023.2.3,Win32,60.24096386,,,,,,,,,,,,,,,,,,,,,,,,,,,,,,,,,,,,,,,,,,,,,,,,,,,,,,,,,,,,,,,,,,,,,,,,,,,,,,,,,,,,,,,,,,,,,,,,,,,,,,,,,,,240.5522,240.5522,,,,,,,,,,,,,,,,,,,,,,,,,,,,,,,,,,,,,,,,,,,,,,,,,,,,,,,,,,,,,,,,,,,,,,,,,,,,,,,,,,,,,,,,,,,,,,,
,,,,,62d76f709faa1189cba646a6,6669d216483b4754e2264ff7,6669dada4d73eff0c13490ee,30,male,english,2024-06-12_13h30.56.633,ABmemTask3,2023.2.3,Win32,60.24096386,,,,,,,,,,,,,,,,,,,,,,,,,,,,,,,,,,,,,,,,,,,,,,,,,,,,,,,,,,,,,,,,,,,,,,,,,,,,,,,,,,,,,,,,,,,,,,,,,,,,,,,,,,,240.5537,240.5538,,,,,,,,,,,,,,,,,,,,,,,,,,,,,,,,,,,,,,,,,,,,,,,,,,,,,,,,,,,,,,,,,,,,,,,,,,,,,,,,,,,,,,,,,,,,,,,
,,,,,62d76f709faa1189cba646a6,6669d216483b4754e2264ff7,6669dada4d73eff0c13490ee,30,male,english,2024-06-12_13h30.56.633,ABmemTask3,2023.2.3,Win32,60.24096386,,,,,,,,,,,,,,,,,,,,,,,,,,,,,,,,,,,,,,,,,,,,,,,,,,,,,,,,,,,,,,,,,,,,,,,,,,,,,,,,,,,,,,,,,,,,,,,,,,,,,,,,,,,240.5549,240.5549,,,,,,,,,,,,,,,,,,,,,,,,,,,,,,,,,,,,,,,,,,,,,,,,,,,,,,,,,,,,,,,,,,,,,,,,,,,,,,,,,,,,,,,,,,,,,,,
,,,,,62d76f709faa1189cba646a6,6669d216483b4754e2264ff7,6669dada4d73eff0c13490ee,30,male,english,2024-06-12_13h30.56.633,ABmemTask3,2023.2.3,Win32,60.24096386,,,,,,,,,,,,,,,,,,,,,,,,,,,,,,,,,,,,,,,,,,,,,,,,,,,,,,,,,,,,,,,,,,,,,,,,,,,,,,,,,,,,,,,,,,,,,,,,,,,,,,,,,,,,,,,,240.5552,250.0557,space,9.4749,,,,,,,,,,,,,,,,,,,,,,,,,,,,,,,,,,,,,,,,,,,,,,,,,,,,,,,,,,,,,,,,,,,,,,,,,,,,,,,,,,,,,,,,
,,,,,62d76f709faa1189cba646a6,6669d216483b4754e2264ff7,6669dada4d73eff0c13490ee,30,male,english,2024-06-12_13h30.56.633,ABmemTask3,2023.2.3,Win32,60.24096386,,,,,,,,,,,,,,,,,,,,,,,,,,,,,,,,,250.0706,602,250.57,,,,,,,,,,,,,,,,,,,,,,,,,,0,,,,,,,,,prac_MEM,old,,,,,,,,,,,10,,,,,,,,,,,,,,,,,,,,,,,,,,,,,,,,,,,250.5704,255.8249,3,6,5.2262,,255.8266,256.8199,0,0,0,5,1,11,5,pics/grater01a.jpg,,,,,,,,,,,,,,,,,,,,,,,,,,,,,,,,,,,,,,,,,,,,,,,,,,,,,,,,,,,,,,,,,,,,,,,
,,,,,62d76f709faa1189cba646a6,6669d216483b4754e2264ff7,6669dada4d73eff0c13490ee,30,male,english,2024-06-12_13h30.56.633,ABmemTask3,2023.2.3,Win32,60.24096386,,,,,,,,,,,,,,,,,,,,,,,,,,,,,,,,,256.8329,602,257.3354,,,,,,,,,,,,,,,,,,,,,,,,,,0,,,,,,,,,prac_MEM,new,,,,,,,,,,,10,,,,,,,,,,,,,,,,,,,,,,,,,,,,,,,,,,,257.3354,259.4798,2,4,2.1224,,259.4802,260.4767,0,1,1,9,1,999,999,pics/moth.jpg,,,,,,,,,,,,,,,,,,,,,,,,,,,,,,,,,,,,,,,,,,,,,,,,,,,,,,,,,,,,,,,,,,,,,,,
,,,,,62d76f709faa1189cba646a6,6669d216483b4754e2264ff7,6669dada4d73eff0c13490ee,30,male,english,2024-06-12_13h30.56.633,ABmemTask3,2023.2.3,Win32,60.24096386,,,,,,,,,,,,,,,,,,,,,,,,,,,,,,,,,260.4912,602,260.9921,,,,,,,,,,,,,,,,,,,,,,,,,,0,,,,,,,,,prac_MEM,old,,,,,,,,,,,10,,,,,,,,,,,,,,,,,,,,,,,,,,,,,,,,,,,260.9922,262.4543,5,6,1.4436,,262.4553,263.4519,0,2,2,4,1,5,1,pics/tongs01b.jpg,,,,,,,,,,,,,,,,,,,,,,,,,,,,,,,,,,,,,,,,,,,,,,,,,,,,,,,,,,,,,,,,,,,,,,,
,,,,,62d76f709faa1189cba646a6,6669d216483b4754e2264ff7,6669dada4d73eff0c13490ee,30,male,english,2024-06-12_13h30.56.633,ABmemTask3,2023.2.3,Win32,60.24096386,,,,,,,,,,,,,,,,,,,,,,,,,,,,,,,,,263.4529,602,263.9512,,,,,,,,,,,,,,,,,,,,,,,,,,0,,,,,,,,,prac_MEM,old,,,,,,,,,,,10,,,,,,,,,,,,,,,,,,,,,,,,,,,,,,,,,,,263.9513,265.1137,8,6,1.1437,,265.1145,266.1112,0,3,3,3,1,4,1,pics/shorts01.jpg,,,,,,,,,,,,,,,,,,,,,,,,,,,,,,,,,,,,,,,,,,,,,,,,,,,,,,,,,,,,,,,,,,,,,,,
,,,,,62d76f709faa1189cba646a6,6669d216483b4754e2264ff7,6669dada4d73eff0c13490ee,30,male,english,2024-06-12_13h30.56.633,ABmemTask3,2023.2.3,Win32,60.24096386,,,,,,,,,,,,,,,,,,,,,,,,,,,,,,,,,266.1248,602,266.6257,,,,,,,,,,,,,,,,,,,,,,,,,,0,,,,,,,,,prac_MEM,old,,,,,,,,,,,10,,,,,,,,,,,,,,,,,,,,,,,,,,,,,,,,,,,266.6257,267.6891,11,6,1.0516,,267.6899,268.6868,0,4,4,0,1,1,1,pics/tree.jpg,,,,,,,,,,,,,,,,,,,,,,,,,,,,,,,,,,,,,,,,,,,,,,,,,,,,,,,,,,,,,,,,,,,,,,,
,,,,,62d76f709faa1189cba646a6,6669d216483b4754e2264ff7,6669dada4d73eff0c13490ee,30,male,english,2024-06-12_13h30.56.633,ABmemTask3,2023.2.3,Win32,60.24096386,,,,,,,,,,,,,,,,,,,,,,,,,,,,,,,,,268.6875,602,269.1856,,,,,,,,,,,,,,,,,,,,,,,,,,0,,,,,,,,,prac_MEM,new,,,,,,,,,,,10,,,,,,,,,,,,,,,,,,,,,,,,,,,,,,,,,,,269.1857,271.5454,14,1,2.3356,,271.5465,272.5458,0,5,5,7,1,999,999,pics/cherry01.jpg,,,,,,,,,,,,,,,,,,,,,,,,,,,,,,,,,,,,,,,,,,,,,,,,,,,,,,,,,,,,,,,,,,,,,,,
,,,,,62d76f709faa1189cba646a6,6669d216483b4754e2264ff7,6669dada4d73eff0c13490ee,30,male,english,2024-06-12_13h30.56.633,ABmemTask3,2023.2.3,Win32,60.24096386,,,,,,,,,,,,,,,,,,,,,,,,,,,,,,,,,272.5586,602,273.0613,,,,,,,,,,,,,,,,,,,,,,,,,,0,,,,,,,,,prac_MEM,old,,,,,,,,,,,10,,,,,,,,,,,,,,,,,,,,,,,,,,,,,,,,,,,273.0615,274.654,17,6,1.5681,,274.6552,275.6563,0,6,6,2,1,3,1,pics/sturgeon.jpg,,,,,,,,,,,,,,,,,,,,,,,,,,,,,,,,,,,,,,,,,,,,,,,,,,,,,,,,,,,,,,,,,,,,,,,
,,,,,62d76f709faa1189cba646a6,6669d216483b4754e2264ff7,6669dada4d73eff0c13490ee,30,male,english,2024-06-12_13h30.56.633,ABmemTask3,2023.2.3,Win32,60.24096386,,,,,,,,,,,,,,,,,,,,,,,,,,,,,,,,,275.657,602,276.1501,,,,,,,,,,,,,,,,,,,,,,,,,,0,,,,,,,,,prac_MEM,new,,,,,,,,,,,10,,,,,,,,,,,,,,,,,,,,,,,,,,,,,,,,,,,276.1501,277.896,20,1,1.724,,277.8966,278.8924,0,7,7,8,1,999,999,pics/thread02.jpg,,,,,,,,,,,,,,,,,,,,,,,,,,,,,,,,,,,,,,,,,,,,,,,,,,,,,,,,,,,,,,,,,,,,,,,
,,,,,62d76f709faa1189cba646a6,6669d216483b4754e2264ff7,6669dada4d73eff0c13490ee,30,male,english,2024-06-12_13h30.56.633,ABmemTask3,2023.2.3,Win32,60.24096386,,,,,,,,,,,,,,,,,,,,,,,,,,,,,,,,,278.8933,602,279.3963,,,,,,,,,,,,,,,,,,,,,,,,,,0,,,,,,,,,prac_MEM,old,,,,,,,,,,,10,,,,,,,,,,,,,,,,,,,,,,,,,,,,,,,,,,,279.3963,280.5217,23,6,1.1034,,280.5229,281.5187,0,8,8,1,1,2,1,pics/pants.jpg,,,,,,,,,,,,,,,,,,,,,,,,,,,,,,,,,,,,,,,,,,,,,,,,,,,,,,,,,,,,,,,,,,,,,,,
,,,,,62d76f709faa1189cba646a6,6669d216483b4754e2264ff7,6669dada4d73eff0c13490ee,30,male,english,2024-06-12_13h30.56.633,ABmemTask3,2023.2.3,Win32,60.24096386,,,,,,,,,,,,,,,,,,,,,,,,,,,,,,,,,281.5199,602,282.022,,,,,,,,,,,,,,,,,,,,,,,,,,0,,,,,,,,,prac_MEM,old,,,,,,,,,,,10,,,,,,,,,,,,,,,,,,,,,,,,,,,,,,,,,,,282.0221,283.3161,26,6,1.2777,,283.3163,284.3111,0,9,9,6,1,12,5,pics/humanskull.jpg,,,,,,,,,,,,,,,,,,,,,,,,,,,,,,,,,,,,,,,,,,,,,,,,,,,,,,,,,,,,,,,,,,,,,,,
,,,,,62d76f709faa1189cba646a6,6669d216483b4754e2264ff7,6669dada4d73eff0c13490ee,30,male,english,2024-06-12_13h30.56.633,ABmemTask3,2023.2.3,Win32,60.24096386,,,,,,,,,,,,,,,,,,,,,,,,,,,,,,,,,284.326,602,284.8309,,,,,,,,,,,,,,,,,,,,,,,,,,0,,,,,,,,,prac_MEM,new,,,,,,,,,,,10,,,,,,,,,,,,,,,,,,,,,,,,,,,,,,,,,,,284.831,286.0759,29,1,1.2286,,286.0763,287.0701,0,10,10,10,1,999,999,pics/tomato01.jpg,,,,,,,,,,,,,,,,,,,,,,,,,,,,,,,,,,,,,,,,,,,,,,,,,,,,,,,,,,,,,,,,,,,,,,,
,,,,,62d76f709faa1189cba646a6,6669d216483b4754e2264ff7,6669dada4d73eff0c13490ee,30,male,english,2024-06-12_13h30.56.633,ABmemTask3,2023.2.3,Win32,60.24096386,,,,,,,,,,,,,,,,,,,,,,,,,,,,,,,,,,,,,,,,,,,,,,,,,,,,,,,,,,,,,,,,,,,,,,,,,,,,,,,,,,,,,,,,,,,,,,,,,,,,,,,,,,,,,,,,,,,,,,,,,,,,,,,,,,,,,287.0714,288.9492,288.9494,288.9497,,,,,,,,,,,,,,,,,,,,,,,,,,,,,,,,,,,,,,,,,,,,,,,,,,,,,,,,,,,,,,,,,,,
,,,,,62d76f709faa1189cba646a6,6669d216483b4754e2264ff7,6669dada4d73eff0c13490ee,30,male,english,2024-06-12_13h30.56.633,ABmemTask3,2023.2.3,Win32,60.24096386,,,,,,,,,,,,,,,,,,space,14.1885,,,,,,,,,,,,,,,,,,,,,,,,,,,,,,,,,,,,,,,,,,,,,,,,,,,,,,,,,,,,,,,,,,,,,,,,,,,,,,,,,,,,,,,,,,,,,,,,,,,,,,,,,,,,,,,,,,,,,,288.9498,303.1678,,,,,,,,,,,,,,,,,,,,,,,,,,,,,,,,,,,,,,,,,,,,,,,,,,,,,,,,,,,,,,,,,
,,,,,62d76f709faa1189cba646a6,6669d216483b4754e2264ff7,6669dada4d73eff0c13490ee,30,male,english,2024-06-12_13h30.56.633,ABmemTask3,2023.2.3,Win32,60.24096386,,,,,,,,,,,,,,,,,,,,,,,,,,,,,,,,,,,,,,,,,,,,,,,,,,,,,,,,,,,,,,,,,,,,,,,,,,,,,,,,,,,,,,,,,,,,,,,,,,,,,,,,,,,,,,,,,,,,,,,,,,,,,,,,,,,,,,,,,,,303.168,311.6712,space,8.4521,,,,,,,,,,,,,,,,,,,,,,,,,,,,,,,,,,,,,,,,,,,,,,,,,,,,,,,,,,,,,
,,,,,62d76f709faa1189cba646a6,6669d216483b4754e2264ff7,6669dada4d73eff0c13490ee,30,male,english,2024-06-12_13h30.56.633,ABmemTask3,2023.2.3,Win32,60.24096386,,,,,,,,,,,,,,,,,,,,,,,,,,,,,,,311.6815,312.6835,312.6836,7,313.1835,314.3472,0.0018,314.4629,0.1155,0.1163,0.1163,0.1156,0.1172,0.1159,0.1167,0.1157,0.1173,0.1157,,314.4632,316.1922,left,1.7098,,316.1923,316.591,left,0.3841,,-2,0,2,316.5912,317.5869,,,,,,1_AB,L1_T1P_T2P,1,1,1,7,8,6,3,11,sock,Did you see the sock,0.12,0,resources/,pics/hen.jpg,pics/christmaslights.jpg,pics/salmon.jpg,pics/sealion.jpg,pics/seaturtle.jpg,pics/giraffe.jpg,pics/athleticsock.jpg,pics/stapler01.jpg,pics/shovel01.jpg,pics/leaf02a.jpg,pics/backpack01a.jpg,blankImage,blankImage,blankImage,blankImage,blankImage,blankImage,athleticsock,11,,,,,,,,,,,,,,,,,,,,,,,,,,,,,,,,,,,,,,,,,0,0,0,10,1,,,,,,,,,,,,,,,,,,,,,,,,,,,,,,,,,,,,,,,,,,,,,,,,,,,,,,,
,,,,,62d76f709faa1189cba646a6,6669d216483b4754e2264ff7,6669dada4d73eff0c13490ee,30,male,english,2024-06-12_13h30.56.633,ABmemTask3,2023.2.3,Win32,60.24096386,,,,,,,,,,,,,,,,,,,,,,,,,,,,,,,317.6003,318.6013,318.6013,7,319.1003,320.2634,0.0018,320.3798,0.1156,0.116,0.1166,0.1158,0.1168,0.117,0.1156,0.1158,0.1177,0.1147,,320.3799,321.2273,right,0.8348,,321.2274,321.626,left,0.3856,,-2,0,4,321.6261,322.6228,,,,,,1_AB,L1_T1P_T2P,1,1,1,7,8,6,3,11,Eiffel tower,Did you see the Eiffel tower,0.12,0,resources/,pics/seagull.jpg,pics/cymbal.jpg,pics/match.jpg,pics/binoculars01b.jpg,pics/ball02.jpg,pics/onion.jpg,pics/eiffeltower.jpg,pics/stapler11.jpg,pics/peach01.jpg,pics/sandbarshark.jpg,pics/boot02b.jpg,blankImage,blankImage,blankImage,blankImage,blankImage,blankImage,eiffeltower,1,,,,,,,,,,,,,,,,,,,,,,,,,,,,,,,,,,,,,,,,,0,1,1,0,1,,,,,,,,,,,,,,,,,,,,,,,,,,,,,,,,,,,,,,,,,,,,,,,,,,,,,,,
,,,,,62d76f709faa1189cba646a6,6669d216483b4754e2264ff7,6669dada4d73eff0c13490ee,30,male,english,2024-06-12_13h30.56.633,ABmemTask3,2023.2.3,Win32,60.24096386,,,,,,,,,,,,,,,,,,,,,,,,,,,,,,,322.6234,323.6216,323.6216,7,324.1199,325.2842,0.002,325.3998,0.1155,0.1156,0.1166,0.1155,0.1175,0.1159,0.1164,0.1167,0.1158,0.1171,,325.3998,326.6965,left,1.2764,,326.6965,327.394,left,0.6845,,-2,0,6,327.3941,328.3915,,,,,,1_AB,L1_T1A_T2P,1,0,1,5,6,4,5,11,Recorder,Did you see the Recorder,0.12,0,resources/,pics/bowtie.jpg,pics/nutcracker01.jpg,pics/hairdryer02a.jpg,pics/shovel01.jpg,pics/onion.jpg,pics/stapler13.jpg,pics/safetypin.jpg,pics/spiderweb.jpg,pics/seagull.jpg,pics/dustpan.jpg,pics/icecube01.jpg,blankImage,blankImage,blankImage,blankImage,blankImage,blankImage,recorder04,28,,,,,,,,,,,,,,,,,,,,,,,,,,,,,,,,,,,,,,,,,0,2,2,27,1,,,,,,,,,,,,,,,,,,,,,,,,,,,,,,,,,,,,,,,,,,,,,,,,,,,,,,,
,,,,,62d76f709faa1189cba646a6,6669d216483b4754e2264ff7,6669dada4d73eff0c13490ee,30,male,english,2024-06-12_13h30.56.633,ABmemTask3,2023.2.3,Win32,60.24096386,,,,,,,,,,,,,,,,,,,,,,,,,,,,,,,328.3923,329.3885,329.3886,7,329.8868,330.9355,0.0007,331.0501,0.1155,0.1162,0.1172,0.1173,0.1173,0.1145,0.1172,0.1159,0.1173,,,331.0503,331.9146,right,0.8469,,331.9148,332.2975,left,0.3668,,-2,0,8,332.2978,333.2951,,,,,,1_AB,L1_T1P_T2P,1,1,1,4,5,3,5,10,flute,Did you see the flute,0.12,0,resources/,pics/peach01.jpg,pics/seaturtle.jpg,pics/dromedary.jpg,pics/recorder01.jpg,pics/stapler08.jpg,pics/giraffe.jpg,pics/blender.jpg,pics/necklace.jpg,pics/sink.jpg,pics/dustpan.jpg,blankImage,blankImage,blankImage,blankImage,blankImage,blankImage,blankImage,recorder01,7,,,,,,,,,,,,,,,,,,,,,,,,,,,,,,,,,,,,,,,,,0,3,3,6,1,,,,,,,,,,,,,,,,,,,,,,,,,,,,,,,,,,,,,,,,,,,,,,,,,,,,,,,
,,,,,62d76f709faa1189cba646a6,6669d216483b4754e2264ff7,6669dada4d73eff0c13490ee,30,male,english,2024-06-12_13h30.56.633,ABmemTask3,2023.2.3,Win32,60.24096386,,,,,,,,,,,,,,,,,,,,,,,,,,,,,,,333.3086,334.3085,334.3086,7,334.8073,336.3202,0.0015,336.4363,0.1169,0.1157,0.1164,0.1155,0.1173,0.1164,0.1157,0.1161,0.117,0.116,0.1162,336.4363,336.985,right,0.5295,,336.985,337.3505,right,0.3541,,0,0,10,337.3506,338.3479,,,,,,1_AB,L5_T1P_T2P,5,1,1,6,11,5,3,14,mail box,Did you see the mail box,0.12,0,resources/,pics/pictureframe04.jpg,pics/seaturtle.jpg,pics/blender.jpg,pics/carrot01.jpg,pics/nutcracker01.jpg,pics/mailbox02.jpg,pics/seagull.jpg,pics/sink.jpg,pics/siamesecat.jpg,pics/spiderweb.jpg,pics/stapler08.jpg,pics/safetypin.jpg,pics/candle01.jpg,pics/mummy.jpg,blankImage,blankImage,blankImage,mailbox02,43,0.117,0.1158,,,,,,,,,,,,,,,,,,,,,,,,,,,,,,,,,,,,,,,0,4,4,42,1,,,,,,,,,,,,,,,,,,,,,,,,,,,,,,,,,,,,,,,,,,,,,,,,,,,,,,,
,,,,,62d76f709faa1189cba646a6,6669d216483b4754e2264ff7,6669dada4d73eff0c13490ee,30,male,english,2024-06-12_13h30.56.633,ABmemTask3,2023.2.3,Win32,60.24096386,,,,,,,,,,,,,,,,,,,,,,,,,,,,,,,338.3489,339.3448,339.3449,7,339.8446,341.3573,0.0019,341.472,0.1132,0.1178,0.1147,0.1175,0.1168,0.1155,0.1168,0.1164,0.1167,0.1162,0.1166,341.4721,342.0368,right,0.5503,,342.0371,342.3365,left,0.2842,,2,0,12,342.3366,343.3336,,,,,,1_AB,L5_T1P_T2A,5,1,0,6,11,5,3,14,Kiwi,Did you see the Kiwi,0.12,0,resources/,pics/candleholder01.jpg,pics/kangaroo.jpg,pics/banjo.jpg,pics/binoculars01b.jpg,pics/microscope.jpg,pics/kiwi03.jpg,pics/bowtie.jpg,pics/peanut01.jpg,pics/backpack01a.jpg,pics/zebra.jpg,pics/toiletpaper01a.jpg,pics/hen.jpg,pics/spoon01.jpg,pics/calendar.jpg,blankImage,blankImage,blankImage,kiwi03,59,0.116,0.117,,,,,,,,,,,,,,,,,,,,,,,,,,,,,,,,,,,,,,,0,5,5,58,1,,,,,,,,,,,,,,,,,,,,,,,,,,,,,,,,,,,,,,,,,,,,,,,,,,,,,,,
,,,,,62d76f709faa1189cba646a6,6669d216483b4754e2264ff7,6669dada4d73eff0c13490ee,30,male,english,2024-06-12_13h30.56.633,ABmemTask3,2023.2.3,Win32,60.24096386,,,,,,,,,,,,,,,,,,,,,,,,,,,,,,,343.3345,344.331,344.331,7,344.8301,346.3425,0.0025,346.4583,0.115,0.115,0.1172,0.1162,0.1165,0.1168,0.1164,0.116,0.1167,0.116,0.1166,346.4584,346.8751,right,0.3938,,346.8752,347.1563,right,0.273,,4,0,14,347.1563,348.154,,,,,,1_AB,L5_T1P_T2P,5,1,1,5,10,4,4,14,Fox,Did you see the Fox,0.12,0,resources/,pics/hammerheadshark.jpg,pics/bowlingpin.jpg,pics/pictureframe04.jpg,pics/peanut01.jpg,pics/redfox.jpg,pics/cymbal.jpg,pics/spoon01.jpg,pics/banjo.jpg,pics/butterfly.jpg,pics/stapler11.jpg,pics/football.jpg,pics/safetypin.jpg,pics/triangle.jpg,pics/onion.jpg,blankImage,blankImage,blankImage,redfox,45,0.116,0.1159,,,,,,,,,,,,,,,,,,,,,,,,,,,,,,,,,,,,,,,0,6,6,44,1,,,,,,,,,,,,,,,,,,,,,,,,,,,,,,,,,,,,,,,,,,,,,,,,,,,,,,,
,,,,,62d76f709faa1189cba646a6,6669d216483b4754e2264ff7,6669dada4d73eff0c13490ee,30,male,english,2024-06-12_13h30.56.633,ABmemTask3,2023.2.3,Win32,60.24096386,,,,,,,,,,,,,,,,,,,,,,,,,,,,,,,348.1547,349.1511,349.1511,7,349.6502,350.9304,0.001,351.0464,0.1162,0.1166,0.116,0.1162,0.1161,0.1174,0.1143,0.1179,0.1167,0.1158,0.1164,351.0464,351.8946,right,0.8274,,351.8946,352.1764,left,0.2683,,4,0,16,352.1766,353.1741,,,,,,1_AB,L1_T1P_T2P,1,1,1,6,7,5,5,12,Bear,Did you see the Bear,0.12,0,resources/,pics/necklace.jpg,pics/hen.jpg,pics/dromedary.jpg,pics/piggybank.jpg,pics/sandbarshark.jpg,pics/grizzly.jpg,pics/stapler12.jpg,pics/bowlingpin.jpg,pics/christmaslights.jpg,pics/icecube01.jpg,pics/match.jpg,pics/lock03a.jpg,blankImage,blankImage,blankImage,blankImage,blankImage,grizzly,18,,,,,,,,,,,,,,,,,,,,,,,,,,,,,,,,,,,,,,,,,0,7,7,17,1,,,,,,,,,,,,,,,,,,,,,,,,,,,,,,,,,,,,,,,,,,,,,,,,,,,,,,,
,,,,,62d76f709faa1189cba646a6,6669d216483b4754e2264ff7,6669dada4d73eff0c13490ee,30,male,english,2024-06-12_13h30.56.633,ABmemTask3,2023.2.3,Win32,60.24096386,,,,,,,,,,,,,,,,,,,,,,,,,,,,,,,353.1748,354.1712,354.1712,7,354.6692,355.7171,0.0023,355.8328,0.116,0.1161,0.1164,0.1158,0.1173,0.116,0.1166,0.1151,0.1169,,,355.833,356.7478,right,0.8963,,356.7478,357.064,right,0.3003,,6,0,18,357.064,358.0598,,,,,,1_AB,L1_T1P_T2P,1,1,1,4,5,3,5,10,chair,Did you see the chair,0.12,0,resources/,pics/zebra.jpg,pics/floortile02.jpg,pics/cork02.jpg,pics/chair.jpg,pics/stapler07.jpg,pics/sealion.jpg,pics/shovel01.jpg,pics/piggybank.jpg,pics/candleholder01.jpg,pics/laptop01a.jpg,blankImage,blankImage,blankImage,blankImage,blankImage,blankImage,blankImage,chair,3,,,,,,,,,,,,,,,,,,,,,,,,,,,,,,,,,,,,,,,,,0,8,8,2,1,,,,,,,,,,,,,,,,,,,,,,,,,,,,,,,,,,,,,,,,,,,,,,,,,,,,,,,
,,,,,62d76f709faa1189cba646a6,6669d216483b4754e2264ff7,6669dada4d73eff0c13490ee,30,male,english,2024-06-12_13h30.56.633,ABmemTask3,2023.2.3,Win32,60.24096386,,,,,,,,,,,,,,,,,,,,,,,,,,,,,,,358.0606,359.0583,359.0583,7,359.5559,360.4872,0.0013,360.6036,0.1167,0.1161,0.1172,0.1159,0.1145,0.1182,0.1164,0.1157,,,,360.6039,361.5176,left,0.8957,,361.5176,362.0657,left,0.5368,,8,0,20,362.0658,363.0631,,,,,,1_AB,L1_T1A_T2A,1,0,0,4,5,3,4,9,License Plate,Did you see the License Plate,0.12,0,resources/,pics/snowshoe.jpg,pics/kangaroo.jpg,pics/noparkingsign.jpg,pics/match.jpg,pics/hose.jpg,pics/blender.jpg,pics/ashtray01.jpg,pics/ball02.jpg,pics/sink.jpg,blankImage,blankImage,blankImage,blankImage,blankImage,blankImage,blankImage,blankImage,licenseplate,40,,,,,,,,,,,,,,,,,,,,,,,,,,,,,,,,,,,,,,,,,0,9,9,39,1,,,,,,,,,,,,,,,,,,,,,,,,,,,,,,,,,,,,,,,,,,,,,,,,,,,,,,,
,,,,,62d76f709faa1189cba646a6,6669d216483b4754e2264ff7,6669dada4d73eff0c13490ee,30,male,english,2024-06-12_13h30.56.633,ABmemTask3,2023.2.3,Win32,60.24096386,,,,,,,,,,,,,,,,,,,,,,,,,,,,,,,363.0639,364.0611,364.0611,7,364.5595,365.6074,0.0024,365.723,0.1145,0.1163,0.1164,0.1167,0.116,0.1167,0.117,0.1149,0.1176,,,365.7231,366.4879,right,0.7461,,366.4881,366.8037,left,0.3007,,8,0,22,366.8038,367.7999,,,,,,1_AB,L1_T1P_T2P,1,1,1,4,5,3,5,10,vacuum,Did you see the vacuum,0.12,0,resources/,pics/birdhouse.jpg,pics/floortile02.jpg,pics/toiletpaper01a.jpg,pics/vacuumcleaner01.jpg,pics/stapler02.jpg,pics/spoon01.jpg,pics/banjo.jpg,pics/binder03b.jpg,pics/leaf02a.jpg,pics/aquarium.jpg,blankImage,blankImage,blankImage,blankImage,blankImage,blankImage,blankImage,vacuumcleaner01,5,,,,,,,,,,,,,,,,,,,,,,,,,,,,,,,,,,,,,,,,,0,10,10,4,1,,,,,,,,,,,,,,,,,,,,,,,,,,,,,,,,,,,,,,,,,,,,,,,,,,,,,,,
,,,,,62d76f709faa1189cba646a6,6669d216483b4754e2264ff7,6669dada4d73eff0c13490ee,30,male,english,2024-06-12_13h30.56.633,ABmemTask3,2023.2.3,Win32,60.24096386,,,,,,,,,,,,,,,,,,,,,,,,,,,,,,,367.8007,368.7977,368.7977,7,369.2965,370.8099,0.0016,370.9253,0.115,0.1168,0.1157,0.1171,0.116,0.1172,0.1167,0.1162,0.116,0.1162,0.1169,370.9254,371.4077,right,0.4629,,371.4078,371.7392,right,0.315,,10,0,24,371.7393,372.7372,,,,,,1_AB,L5_T1P_T2P,5,1,1,4,9,3,5,14,pliers,Did you see the pliers,0.12,0,resources/,pics/calendar.jpg,pics/footballhelmet.jpg,pics/seaturtle.jpg,pics/pliers02b.jpg,pics/wheel01.jpg,pics/cannon.jpg,pics/proboscismonkey.jpg,pics/shovel01.jpg,pics/stapler06.jpg,pics/football.jpg,pics/hose.jpg,pics/dustpan.jpg,pics/spiderweb.jpg,pics/golfball.jpg,blankImage,blankImage,blankImage,pliers02b,48,0.1153,0.1171,,,,,,,,,,,,,,,,,,,,,,,,,,,,,,,,,,,,,,,0,11,11,47,1,,,,,,,,,,,,,,,,,,,,,,,,,,,,,,,,,,,,,,,,,,,,,,,,,,,,,,,
,,,,,62d76f709faa1189cba646a6,6669d216483b4754e2264ff7,6669dada4d73eff0c13490ee,30,male,english,2024-06-12_13h30.56.633,ABmemTask3,2023.2.3,Win32,60.24096386,,,,,,,,,,,,,,,,,,,,,,,,,,,,,,,372.7381,373.7351,373.7351,7,374.233,375.3973,0.0023,375.5124,0.1145,0.1168,0.1165,0.1162,0.117,0.116,0.1158,0.1159,0.1169,0.1171,,375.5125,376.5445,left,1.0088,,376.5446,376.992,left,0.4347,,12,0,26,376.9921,377.9891,,,,,,1_AB,L1_T1A_T2A,1,0,0,7,8,6,3,11,Poker chips,Did you see the Poker chips,0.12,0,resources/,pics/candle01.jpg,pics/proboscismonkey.jpg,pics/fanblades.jpg,pics/dromedary.jpg,pics/aquarium.jpg,pics/salmon.jpg,pics/hose.jpg,pics/kangaroo.jpg,pics/noparkingsign.jpg,pics/carrot01.jpg,pics/leaf02a.jpg,blankImage,blankImage,blankImage,blankImage,blankImage,blankImage,pokerchips,41,,,,,,,,,,,,,,,,,,,,,,,,,,,,,,,,,,,,,,,,,0,12,12,40,1,,,,,,,,,,,,,,,,,,,,,,,,,,,,,,,,,,,,,,,,,,,,,,,,,,,,,,,
,,,,,62d76f709faa1189cba646a6,6669d216483b4754e2264ff7,6669dada4d73eff0c13490ee,30,male,english,2024-06-12_13h30.56.633,ABmemTask3,2023.2.3,Win32,60.24096386,,,,,,,,,,,,,,,,,,,,,,,,,,,,,,,377.9901,378.9864,378.9865,7,379.485,380.4174,0.0017,380.533,0.1168,0.1164,0.1158,0.1158,0.1162,0.1172,0.1144,0.1185,,,,380.5331,381.6466,left,1.0935,,381.6468,382.012,right,0.3535,,12,0,28,382.012,383.009,,,,,,1_AB,L1_T1P_T2P,1,1,1,4,5,3,4,9,Chefs hat,Did you see the Chefs hat,0.12,0,resources/,pics/sewingmachine01a.jpg,pics/icecube01.jpg,pics/fanblades.jpg,pics/chefshat.jpg,pics/stapler06.jpg,pics/ashtray01.jpg,pics/blender.jpg,pics/sandbarshark.jpg,pics/lock03a.jpg,blankImage,blankImage,blankImage,blankImage,blankImage,blankImage,blankImage,blankImage,chefshat,12,,,,,,,,,,,,,,,,,,,,,,,,,,,,,,,,,,,,,,,,,0,13,13,11,1,,,,,,,,,,,,,,,,,,,,,,,,,,,,,,,,,,,,,,,,,,,,,,,,,,,,,,,
,,,,,62d76f709faa1189cba646a6,6669d216483b4754e2264ff7,6669dada4d73eff0c13490ee,30,male,english,2024-06-12_13h30.56.633,ABmemTask3,2023.2.3,Win32,60.24096386,,,,,,,,,,,,,,,,,,,,,,,,,,,,,,,383.0098,384.0063,384.0063,7,384.5044,386.2506,0.0015,386.3668,0.1174,0.1157,0.1159,0.1155,0.1176,0.1157,0.1169,0.1145,0.1183,0.116,0.1171,386.3669,387.9951,right,1.6169,,387.9952,388.7275,left,0.725,,14,0,30,388.7276,389.7231,,,,,,1_AB,L5_T1P_T2A,5,1,0,6,11,5,5,16,belt,Did you see the belt,0.12,0,resources/,pics/banjo.jpg,pics/birdhouse.jpg,pics/spoon01.jpg,pics/table01.jpg,pics/candle01.jpg,pics/belt02a.jpg,pics/peach01.jpg,pics/chainsaw.jpg,pics/toiletpaper01a.jpg,pics/proboscismonkey.jpg,pics/cymbal.jpg,pics/binoculars01b.jpg,pics/cannon.jpg,pics/noparkingsign.jpg,pics/sailboat.jpg,pics/carrot01.jpg,blankImage,belt02a,61,0.1155,0.116,0.1172,,,,,,,,,,,,,,,,,,,,,,,,,,,,,,,,,,,,,,0,14,14,60,1,0.1159,,,,,,,,,,,,,,,,,,,,,,,,,,,,,,,,,,,,,,,,,,,,,,,,,,,,,,
,,,,,62d76f709faa1189cba646a6,6669d216483b4754e2264ff7,6669dada4d73eff0c13490ee,30,male,english,2024-06-12_13h30.56.633,ABmemTask3,2023.2.3,Win32,60.24096386,,,,,,,,,,,,,,,,,,,,,,,,,,,,,,,389.7365,390.7385,390.7386,7,391.2358,392.0507,0.0014,392.1675,0.1159,0.1166,0.1172,0.1159,0.1167,0.116,0.1155,,,,,392.1677,392.9319,right,0.7441,,392.932,393.2146,right,0.267,,16,0,32,393.2147,394.2121,,,,,,1_AB,L1_T1P_T2P,1,1,1,4,5,3,3,8,Recycling bin,Did you see the Recycling bin,0.12,0,resources/,pics/microscope.jpg,pics/dustpan.jpg,pics/seagull.jpg,pics/recyclingbin.jpg,pics/stapler06.jpg,pics/bowtie.jpg,pics/dromedary.jpg,pics/salmon.jpg,blankImage,blankImage,blankImage,blankImage,blankImage,blankImage,blankImage,blankImage,blankImage,recyclingbin,16,,,,,,,,,,,,,,,,,,,,,,,,,,,,,,,,,,,,,,,,,0,15,15,15,1,,,,,,,,,,,,,,,,,,,,,,,,,,,,,,,,,,,,,,,,,,,,,,,,,,,,,,,
,,,,,62d76f709faa1189cba646a6,6669d216483b4754e2264ff7,6669dada4d73eff0c13490ee,30,male,english,2024-06-12_13h30.56.633,ABmemTask3,2023.2.3,Win32,60.24096386,,,,,,,,,,,,,,,,,,,,,,,,,,,,,,,394.2128,395.2089,395.2089,7,395.7075,396.8721,0.0015,396.9877,0.1164,0.1163,0.1155,0.1163,0.1171,0.1159,0.1167,0.1156,0.1179,0.1159,,396.9878,397.4699,right,0.4619,,397.47,397.7694,right,0.2883,,18,0,34,397.7695,398.7662,,,,,,1_AB,L1_T1P_T2P,1,1,1,7,8,6,3,11,toothpick,Did you see the toothpick,0.12,0,resources/,pics/candleholder01.jpg,pics/blender.jpg,pics/siamesecat.jpg,pics/peanut01.jpg,pics/spiderweb.jpg,pics/football.jpg,pics/toothpick02.jpg,pics/stapler04b.jpg,pics/seagull.jpg,pics/pictureframe04.jpg,pics/shipinabottle.jpg,blankImage,blankImage,blankImage,blankImage,blankImage,blankImage,toothpick02,17,,,,,,,,,,,,,,,,,,,,,,,,,,,,,,,,,,,,,,,,,0,16,16,16,1,,,,,,,,,,,,,,,,,,,,,,,,,,,,,,,,,,,,,,,,,,,,,,,,,,,,,,,
,,,,,62d76f709faa1189cba646a6,6669d216483b4754e2264ff7,6669dada4d73eff0c13490ee,30,male,english,2024-06-12_13h30.56.633,ABmemTask3,2023.2.3,Win32,60.24096386,,,,,,,,,,,,,,,,,,,,,,,,,,,,,,,398.7667,399.7635,399.7637,7,400.262,401.8923,0.0019,402.008,0.1152,0.115,0.118,0.1161,0.1169,0.116,0.1163,0.1171,0.1161,0.1161,0.1162,402.008,402.9535,left,0.9352,,402.9536,403.2527,right,0.2835,,20,0,36,403.2527,404.2513,,,,,,1_AB,L5_T1A_T2P,5,0,1,7,12,6,3,15,scissors,Did you see the scissors,0.12,0,resources/,pics/cannon.jpg,pics/mummy.jpg,pics/shovel01.jpg,pics/christmaslights.jpg,pics/snowshoe.jpg,pics/candle01.jpg,pics/bowtie.jpg,pics/giraffe.jpg,pics/carrot01.jpg,pics/spoon01.jpg,pics/seaturtle.jpg,pics/stapler10.jpg,pics/footballhelmet.jpg,pics/onion.jpg,pics/wheel01.jpg,blankImage,blankImage,scissors01,57,0.1165,0.1148,0.1186,,,,,,,,,,,,,,,,,,,,,,,,,,,,,,,,,,,,,,0,17,17,56,1,,,,,,,,,,,,,,,,,,,,,,,,,,,,,,,,,,,,,,,,,,,,,,,,,,,,,,,
,,,,,62d76f709faa1189cba646a6,6669d216483b4754e2264ff7,6669dada4d73eff0c13490ee,30,male,english,2024-06-12_13h30.56.633,ABmemTask3,2023.2.3,Win32,60.24096386,,,,,,,,,,,,,,,,,,,,,,,,,,,,,,,404.252,405.2479,405.248,7,405.7471,407.0269,0.0014,407.1433,0.1153,0.1168,0.1156,0.117,0.1165,0.116,0.1166,0.1166,0.1164,0.1163,0.1156,407.1434,407.6756,right,0.514,,407.6756,407.9746,right,0.2834,,22,0,38,407.9747,408.9715,,,,,,1_AB,L5_T1P_T2P,5,1,1,4,9,3,3,12,Sheep,Did you see the Sheep,0.12,0,resources/,pics/icecube01.jpg,pics/cymbal.jpg,pics/wheel01.jpg,pics/sheep.jpg,pics/starfish01.jpg,pics/safetypin.jpg,pics/siamesecat.jpg,pics/lock03a.jpg,pics/stapler01.jpg,pics/sink.jpg,pics/fanblades.jpg,pics/bowlingpin.jpg,blankImage,blankImage,blankImage,blankImage,blankImage,sheep,52,,,,,,,,,,,,,,,,,,,,,,,,,,,,,,,,,,,,,,,,,0,18,18,51,1,,,,,,,,,,,,,,,,,,,,,,,,,,,,,,,,,,,,,,,,,,,,,,,,,,,,,,,
,,,,,62d76f709faa1189cba646a6,6669d216483b4754e2264ff7,6669dada4d73eff0c13490ee,30,male,english,2024-06-12_13h30.56.633,ABmemTask3,2023.2.3,Win32,60.24096386,,,,,,,,,,,,,,,,,,,,,,,,,,,,,,,408.9724,409.9684,409.9685,7,410.4678,412.2125,0.0018,412.329,0.1146,0.1171,0.1166,0.1154,0.1173,0.1165,0.1153,0.1169,0.1157,0.1176,0.116,412.3292,412.7774,right,0.4363,,412.7774,413.0596,right,0.276,,24,0,40,413.0596,414.0579,,,,,,1_AB,L5_T1P_T2P,5,1,1,6,11,5,5,16,cruise ship,Did you see the cruise ship,0.12,0,resources/,pics/seaturtle.jpg,pics/ashtray01.jpg,pics/pencil01.jpg,pics/fanblades.jpg,pics/triangle.jpg,pics/cruiseship.jpg,pics/wheel01.jpg,pics/dustpan.jpg,pics/starfish01.jpg,pics/banjo.jpg,pics/stapler12.jpg,pics/match.jpg,pics/cannon.jpg,pics/sandbarshark.jpg,pics/sink.jpg,pics/zebra.jpg,blankImage,cruiseship,51,0.1159,0.1164,0.1165,,,,,,,,,,,,,,,,,,,,,,,,,,,,,,,,,,,,,,0,19,19,50,1,0.1154,,,,,,,,,,,,,,,,,,,,,,,,,,,,,,,,,,,,,,,,,,,,,,,,,,,,,,
,,,,,62d76f709faa1189cba646a6,6669d216483b4754e2264ff7,6669dada4d73eff0c13490ee,30,male,english,2024-06-12_13h30.56.633,ABmemTask3,2023.2.3,Win32,60.24096386,,,,,,,,,,,,,,,,,,,,,,,,,,,,,,,414.0586,415.0545,415.0546,7,415.5528,416.4842,0.0018,416.6007,0.1158,0.1176,0.1159,0.116,0.1163,0.1167,0.1165,0.1151,,,,416.6008,417.2998,right,0.6794,,417.2999,417.5987,left,0.2829,,26,0,42,417.5988,418.5955,,,,,,1_AB,L1_T1P_T2A,1,1,0,4,5,3,4,9,blueberry,Did you see the blueberry,0.12,0,resources/,pics/sealion.jpg,pics/piggybank.jpg,pics/sink.jpg,pics/blueberry01.jpg,pics/onion.jpg,pics/sailboat.jpg,pics/seaturtle.jpg,pics/hen.jpg,pics/fanblades.jpg,blankImage,blankImage,blankImage,blankImage,blankImage,blankImage,blankImage,blankImage,blueberry01,35,,,,,,,,,,,,,,,,,,,,,,,,,,,,,,,,,,,,,,,,,0,20,20,34,1,,,,,,,,,,,,,,,,,,,,,,,,,,,,,,,,,,,,,,,,,,,,,,,,,,,,,,,
,,,,,62d76f709faa1189cba646a6,6669d216483b4754e2264ff7,6669dada4d73eff0c13490ee,30,male,english,2024-06-12_13h30.56.633,ABmemTask3,2023.2.3,Win32,60.24096386,,,,,,,,,,,,,,,,,,,,,,,,,,,,,,,418.5961,419.5935,419.5935,7,420.0908,421.2556,0.0014,421.3714,0.1169,0.1155,0.1169,0.1155,0.1149,0.1186,0.1163,0.1164,0.1165,0.1166,,421.3716,421.9366,right,0.5447,,421.9366,422.2025,left,0.2593,,28,0,44,422.2026,423.1998,,,,,,1_AB,L1_T1P_T2A,1,1,0,7,8,6,3,11,Spear,Did you see the Spear,0.12,0,resources/,pics/butterfly.jpg,pics/banjo.jpg,pics/chainsaw.jpg,pics/christmaslights.jpg,pics/dustpan.jpg,pics/shovel01.jpg,pics/spear02.jpg,pics/table01.jpg,pics/starfish01.jpg,pics/bowlingpin.jpg,pics/carrot01.jpg,blankImage,blankImage,blankImage,blankImage,blankImage,blankImage,spear02,39,,,,,,,,,,,,,,,,,,,,,,,,,,,,,,,,,,,,,,,,,0,21,21,38,1,,,,,,,,,,,,,,,,,,,,,,,,,,,,,,,,,,,,,,,,,,,,,,,,,,,,,,,
,,,,,62d76f709faa1189cba646a6,6669d216483b4754e2264ff7,6669dada4d73eff0c13490ee,30,male,english,2024-06-12_13h30.56.633,ABmemTask3,2023.2.3,Win32,60.24096386,,,,,,,,,,,,,,,,,,,,,,,,,,,,,,,423.2007,424.1972,424.1972,7,424.6946,426.2088,0.0013,426.3241,0.1162,0.1171,0.1162,0.1166,0.1161,0.1162,0.1167,0.1163,0.1163,0.1167,0.1158,426.3242,426.7392,right,0.3977,,426.7393,427.0227,right,0.2762,,30,0,46,427.0228,428.0204,,,,,,1_AB,L5_T1P_T2P,5,1,1,4,9,3,5,14,asparagus,Did you see the asparagus,0.12,0,resources/,pics/siamesecat.jpg,pics/starfish01.jpg,pics/aquarium.jpg,pics/asparagus.jpg,pics/salmon.jpg,pics/binoculars01b.jpg,pics/ball02.jpg,pics/calendar.jpg,pics/stapler10.jpg,pics/giraffe.jpg,pics/dromedary.jpg,pics/seaturtle.jpg,pics/sandbarshark.jpg,pics/shipinabottle.jpg,blankImage,blankImage,blankImage,asparagus,44,0.1162,0.117,,,,,,,,,,,,,,,,,,,,,,,,,,,,,,,,,,,,,,,0,22,22,43,1,,,,,,,,,,,,,,,,,,,,,,,,,,,,,,,,,,,,,,,,,,,,,,,,,,,,,,,
,,,,,62d76f709faa1189cba646a6,6669d216483b4754e2264ff7,6669dada4d73eff0c13490ee,30,male,english,2024-06-12_13h30.56.633,ABmemTask3,2023.2.3,Win32,60.24096386,,,,,,,,,,,,,,,,,,,,,,,,,,,,,,,428.0211,429.0171,429.0171,7,429.5154,430.7959,0.0019,430.9117,0.1158,0.1169,0.116,0.117,0.1152,0.117,0.1154,0.1174,0.1158,0.1167,0.1157,430.9119,431.4107,right,0.4798,,431.411,431.6767,right,0.2502,,32,0,48,431.6767,432.6742,,,,,,1_AB,L1_T1P_T2P,1,1,1,6,7,5,5,12,rope,Did you see the rope,0.12,0,resources/,pics/toiletpaper01a.jpg,pics/sewingmachine01a.jpg,pics/birdhouse.jpg,pics/sealion.jpg,pics/safetypin.jpg,pics/rope03.jpg,pics/stapler04.jpg,pics/binder03b.jpg,pics/ashtray01.jpg,pics/sandbarshark.jpg,pics/chainsaw.jpg,pics/nutcracker01.jpg,blankImage,blankImage,blankImage,blankImage,blankImage,rope03,4,,,,,,,,,,,,,,,,,,,,,,,,,,,,,,,,,,,,,,,,,0,23,23,3,1,,,,,,,,,,,,,,,,,,,,,,,,,,,,,,,,,,,,,,,,,,,,,,,,,,,,,,,
,,,,,62d76f709faa1189cba646a6,6669d216483b4754e2264ff7,6669dada4d73eff0c13490ee,30,male,english,2024-06-12_13h30.56.633,ABmemTask3,2023.2.3,Win32,60.24096386,,,,,,,,,,,,,,,,,,,,,,,,,,,,,,,432.675,433.6705,433.6706,7,434.1694,435.4496,0.0021,435.5659,0.1154,0.116,0.1165,0.1163,0.1168,0.1163,0.117,0.1147,0.1167,0.1165,0.1161,435.5659,435.9812,right,0.3956,,435.9814,436.2646,right,0.27,,34,0,50,436.2648,437.2608,,,,,,1_AB,L1_T1P_T2P,1,1,1,6,7,5,5,12,jeep,Did you see the jeep,0.12,0,resources/,pics/sandbarshark.jpg,pics/laptop01a.jpg,pics/peach01.jpg,pics/binoculars01b.jpg,pics/giraffe.jpg,pics/jeep.jpg,pics/stapler03b.jpg,pics/fanblades.jpg,pics/cannon.jpg,pics/starfish01.jpg,pics/piggybank.jpg,pics/noparkingsign.jpg,blankImage,blankImage,blankImage,blankImage,blankImage,jeep,2,,,,,,,,,,,,,,,,,,,,,,,,,,,,,,,,,,,,,,,,,0,24,24,1,1,,,,,,,,,,,,,,,,,,,,,,,,,,,,,,,,,,,,,,,,,,,,,,,,,,,,,,,
,,,,,62d76f709faa1189cba646a6,6669d216483b4754e2264ff7,6669dada4d73eff0c13490ee,30,male,english,2024-06-12_13h30.56.633,ABmemTask3,2023.2.3,Win32,60.24096386,,,,,,,,,,,,,,,,,,,,,,,,,,,,,,,437.2617,438.2592,438.2593,7,438.7569,440.3872,0.0019,440.5027,0.1165,0.1144,0.1169,0.1169,0.1168,0.1161,0.1172,0.116,0.1153,0.1174,0.1155,440.5028,441.3006,left,0.7768,,441.3006,441.5992,right,0.2825,,36,0,52,441.5994,442.5967,,,,,,1_AB,L5_T1A_T2P,5,0,1,5,10,4,5,15,scorpion,Did you see the scorpion,0.12,0,resources/,pics/pictureframe04.jpg,pics/binder03b.jpg,pics/pencil01.jpg,pics/leaf02a.jpg,pics/icecube01.jpg,pics/dromedary.jpg,pics/toiletpaper01a.jpg,pics/peanut01.jpg,pics/golfball.jpg,pics/stapler03.jpg,pics/carrot01.jpg,pics/peach01.jpg,pics/sealion.jpg,pics/football.jpg,pics/zebra.jpg,blankImage,blankImage,scorpion,54,0.1174,0.1158,0.1167,,,,,,,,,,,,,,,,,,,,,,,,,,,,,,,,,,,,,,0,25,25,53,1,,,,,,,,,,,,,,,,,,,,,,,,,,,,,,,,,,,,,,,,,,,,,,,,,,,,,,,
,,,,,62d76f709faa1189cba646a6,6669d216483b4754e2264ff7,6669dada4d73eff0c13490ee,30,male,english,2024-06-12_13h30.56.633,ABmemTask3,2023.2.3,Win32,60.24096386,,,,,,,,,,,,,,,,,,,,,,,,,,,,,,,442.5977,443.5937,443.5938,7,444.0932,445.3729,0.0019,445.4891,0.1152,0.1159,0.116,0.1162,0.1173,0.1159,0.1159,0.1161,0.1171,0.1166,0.1158,445.4892,446.5358,left,1.0265,,446.5361,446.9017,right,0.3514,,36,0,54,446.9019,447.899,,,,,,1_AB,L1_T1P_T2P,1,1,1,7,8,6,4,12,Turnstile,Did you see the Turnstile,0.12,0,resources/,pics/golfball.jpg,pics/hose.jpg,pics/siamesecat.jpg,pics/binoculars01b.jpg,pics/hen.jpg,pics/candleholder01.jpg,pics/turnstile.jpg,pics/stapler03a.jpg,pics/giraffe.jpg,pics/pictureframe04.jpg,pics/sandbarshark.jpg,pics/spoon01.jpg,blankImage,blankImage,blankImage,blankImage,blankImage,turnstile,13,,,,,,,,,,,,,,,,,,,,,,,,,,,,,,,,,,,,,,,,,0,26,26,12,1,,,,,,,,,,,,,,,,,,,,,,,,,,,,,,,,,,,,,,,,,,,,,,,,,,,,,,,
,,,,,62d76f709faa1189cba646a6,6669d216483b4754e2264ff7,6669dada4d73eff0c13490ee,30,male,english,2024-06-12_13h30.56.633,ABmemTask3,2023.2.3,Win32,60.24096386,,,,,,,,,,,,,,,,,,,,,,,,,,,,,,,447.9007,448.8953,448.8953,7,449.3945,450.3262,0.0016,450.4419,0.1163,0.1163,0.1162,0.1166,0.1159,0.1158,0.1158,0.1175,,,,450.442,451.024,right,0.5617,,451.0242,451.4394,left,0.4,,36,0,56,451.4396,452.4367,,,,,,1_AB,L1_T1P_T2P,1,1,1,5,6,4,3,9,cabbage,Did you see the cabbage,0.12,0,resources/,pics/match.jpg,pics/icecube01.jpg,pics/noparkingsign.jpg,pics/christmaslights.jpg,pics/cabbage.jpg,pics/stapler03a.jpg,pics/carrot01.jpg,pics/dustpan.jpg,pics/cannon.jpg,blankImage,blankImage,blankImage,blankImage,blankImage,blankImage,blankImage,blankImage,cabbage,14,,,,,,,,,,,,,,,,,,,,,,,,,,,,,,,,,,,,,,,,,0,27,27,13,1,,,,,,,,,,,,,,,,,,,,,,,,,,,,,,,,,,,,,,,,,,,,,,,,,,,,,,,
,,,,,62d76f709faa1189cba646a6,6669d216483b4754e2264ff7,6669dada4d73eff0c13490ee,30,male,english,2024-06-12_13h30.56.633,ABmemTask3,2023.2.3,Win32,60.24096386,,,,,,,,,,,,,,,,,,,,,,,,,,,,,,,452.4376,453.4335,453.4335,7,453.9327,454.9794,0.002,455.0958,0.1152,0.1159,0.1157,0.1165,0.1169,0.1171,0.1163,0.1152,0.1163,,,455.0958,455.9444,right,0.8291,,455.9445,456.2927,left,0.3332,,38,0,58,456.2929,457.2892,,,,,,1_AB,L1_T1P_T2A,1,1,0,6,7,5,3,10,Duct tape,Did you see the Duct tape,0.12,0,resources/,pics/butterfly.jpg,pics/noparkingsign.jpg,pics/pictureframe04.jpg,pics/cork02.jpg,pics/fanblades.jpg,pics/ducttape.jpg,pics/icecube01.jpg,pics/siamesecat.jpg,pics/sink.jpg,pics/sandbarshark.jpg,blankImage,blankImage,blankImage,blankImage,blankImage,blankImage,blankImage,ducttape,36,,,,,,,,,,,,,,,,,,,,,,,,,,,,,,,,,,,,,,,,,0,28,28,35,1,,,,,,,,,,,,,,,,,,,,,,,,,,,,,,,,,,,,,,,,,,,,,,,,,,,,,,,
,,,,,62d76f709faa1189cba646a6,6669d216483b4754e2264ff7,6669dada4d73eff0c13490ee,30,male,english,2024-06-12_13h30.56.633,ABmemTask3,2023.2.3,Win32,60.24096386,,,,,,,,,,,,,,,,,,,,,,,,,,,,,,,457.2904,458.2872,458.2872,7,458.7854,459.7164,0.002,459.8323,0.1148,0.1177,0.1156,0.1178,0.1155,0.1158,0.1163,0.1156,,,,459.8324,460.4148,left,0.5628,,460.4149,460.8305,right,0.4011,,40,0,60,460.8305,461.8275,,,,,,1_AB,L1_T1A_T2P,1,0,1,5,6,4,3,9,Trailer,Did you see the Trailer,0.12,0,resources/,pics/pencil01.jpg,pics/football.jpg,pics/hairdryer02a.jpg,pics/wheel01.jpg,pics/chainsaw.jpg,pics/stapler10.jpg,pics/peanut01.jpg,pics/triangle.jpg,pics/sink.jpg,blankImage,blankImage,blankImage,blankImage,blankImage,blankImage,blankImage,blankImage,boxtrailer,29,,,,,,,,,,,,,,,,,,,,,,,,,,,,,,,,,,,,,,,,,0,29,29,28,1,,,,,,,,,,,,,,,,,,,,,,,,,,,,,,,,,,,,,,,,,,,,,,,,,,,,,,,
,,,,,62d76f709faa1189cba646a6,6669d216483b4754e2264ff7,6669dada4d73eff0c13490ee,30,male,english,2024-06-12_13h30.56.633,ABmemTask3,2023.2.3,Win32,60.24096386,,,,,,,,,,,,,,,,,,,,,,,,,,,,,,,461.8288,462.8249,462.825,7,463.3238,464.4876,0.0017,464.6038,0.1143,0.1168,0.1175,0.1158,0.1161,0.1163,0.1163,0.1168,0.1151,0.1177,,464.6039,465.1019,right,0.4789,,465.1021,465.4008,right,0.2828,,38,0,62,465.4011,466.3988,,,,,,1_AB,L1_T1P_T2A,1,1,0,6,7,5,4,11,lamp,Did you see the lamp,0.12,0,resources/,pics/chainsaw.jpg,pics/fanblades.jpg,pics/salmon.jpg,pics/proboscismonkey.jpg,pics/boot02b.jpg,pics/lamp04a.jpg,pics/blender.jpg,pics/sink.jpg,pics/pencil01.jpg,pics/floortile02.jpg,pics/shovel01.jpg,blankImage,blankImage,blankImage,blankImage,blankImage,blankImage,lamp04a,37,,,,,,,,,,,,,,,,,,,,,,,,,,,,,,,,,,,,,,,,,0,30,30,36,1,,,,,,,,,,,,,,,,,,,,,,,,,,,,,,,,,,,,,,,,,,,,,,,,,,,,,,,
,,,,,62d76f709faa1189cba646a6,6669d216483b4754e2264ff7,6669dada4d73eff0c13490ee,30,male,english,2024-06-12_13h30.56.633,ABmemTask3,2023.2.3,Win32,60.24096386,,,,,,,,,,,,,,,,,,,,,,,,,,,,,,,466.3994,467.395,467.3951,7,467.8947,468.8257,0.0015,468.9418,0.1147,0.1171,0.1164,0.116,0.1165,0.1159,0.1185,0.115,,,,468.9419,469.5902,right,0.6283,,469.5902,469.8557,right,0.253,,40,0,64,469.8558,470.8527,,,,,,1_AB,L1_T1P_T2P,1,1,1,4,5,3,4,9,antenna,Did you see the antenna,0.12,0,resources/,pics/microscope.jpg,pics/spoon01.jpg,pics/dromedary.jpg,pics/antenna.jpg,pics/stapler03.jpg,pics/hen.jpg,pics/leaf02a.jpg,pics/candle01.jpg,pics/sealion.jpg,blankImage,blankImage,blankImage,blankImage,blankImage,blankImage,blankImage,blankImage,antenna,9,,,,,,,,,,,,,,,,,,,,,,,,,,,,,,,,,,,,,,,,,0,31,31,8,1,,,,,,,,,,,,,,,,,,,,,,,,,,,,,,,,,,,,,,,,,,,,,,,,,,,,,,,
,,,,,62d76f709faa1189cba646a6,6669d216483b4754e2264ff7,6669dada4d73eff0c13490ee,30,male,english,2024-06-12_13h30.56.633,ABmemTask3,2023.2.3,Win32,60.24096386,,,,,,,,,,,,,,,,,,,,,,,,,,,,,,,470.8535,471.8499,471.8501,7,472.3492,473.7457,0.0018,473.8605,0.1152,0.1168,0.1153,0.1168,0.1158,0.1172,0.1168,0.1154,0.1161,0.1159,0.1178,473.8607,474.4762,left,0.5957,,474.4763,474.7588,right,0.2676,,42,0,66,474.7589,475.7565,,,,,,1_AB,L1_T1A_T2P,1,0,1,7,8,6,5,13,statue,Did you see the statue,0.12,0,resources/,pics/giraffe.jpg,pics/seaturtle.jpg,pics/peach01.jpg,pics/boot02b.jpg,pics/backpack01a.jpg,pics/sandbarshark.jpg,pics/microscope.jpg,pics/stapler07.jpg,pics/snowshoe.jpg,pics/laptop01a.jpg,pics/necklace.jpg,pics/zebra.jpg,pics/carrot01.jpg,blankImage,blankImage,blankImage,blankImage,statue,27,0.116,,,,,,,,,,,,,,,,,,,,,,,,,,,,,,,,,,,,,,,,0,32,32,26,1,,,,,,,,,,,,,,,,,,,,,,,,,,,,,,,,,,,,,,,,,,,,,,,,,,,,,,,
,,,,,62d76f709faa1189cba646a6,6669d216483b4754e2264ff7,6669dada4d73eff0c13490ee,30,male,english,2024-06-12_13h30.56.633,ABmemTask3,2023.2.3,Win32,60.24096386,,,,,,,,,,,,,,,,,,,,,,,,,,,,,,,475.7576,476.7537,476.7538,7,477.2515,478.4166,0.0016,478.5319,0.1173,0.1154,0.1164,0.115,0.118,0.1157,0.1177,0.1154,0.1149,0.1184,,478.5319,478.9974,right,0.4452,,478.9975,479.2635,right,0.2524,,44,0,68,479.2638,480.2603,,,,,,1_AB,L1_T1P_T2P,1,1,1,7,8,6,3,11,pliers,Did you see the pliers,0.12,0,resources/,pics/mummy.jpg,pics/binder03b.jpg,pics/bowtie.jpg,pics/toiletpaper01a.jpg,pics/football.jpg,pics/blender.jpg,pics/needlenosepliers01.jpg,pics/stapler13.jpg,pics/zebra.jpg,pics/hammerheadshark.jpg,pics/sealion.jpg,blankImage,blankImage,blankImage,blankImage,blankImage,blankImage,needlenosepliers01,6,,,,,,,,,,,,,,,,,,,,,,,,,,,,,,,,,,,,,,,,,0,33,33,5,1,,,,,,,,,,,,,,,,,,,,,,,,,,,,,,,,,,,,,,,,,,,,,,,,,,,,,,,
,,,,,62d76f709faa1189cba646a6,6669d216483b4754e2264ff7,6669dada4d73eff0c13490ee,30,male,english,2024-06-12_13h30.56.633,ABmemTask3,2023.2.3,Win32,60.24096386,,,,,,,,,,,,,,,,,,,,,,,,,,,,,,,480.2617,481.2566,481.2567,7,481.7558,483.3844,0.002,483.5009,0.1159,0.1154,0.1165,0.1173,0.1158,0.1163,0.1167,0.116,0.1164,0.1156,0.1166,483.501,484.4478,right,0.9314,,484.4478,484.7138,left,0.2563,,44,0,70,484.7138,485.7121,,,,,,1_AB,L5_T1P_T2P,5,1,1,6,11,5,4,15,toast,Did you see the toast,0.12,0,resources/,pics/piggybank.jpg,pics/leaf02a.jpg,pics/carrot01.jpg,pics/birdhouse.jpg,pics/bowlingpin.jpg,pics/toast.jpg,pics/spiderweb.jpg,pics/cork02.jpg,pics/sink.jpg,pics/nutcracker01.jpg,pics/stapler02.jpg,pics/ashtray01.jpg,pics/fanblades.jpg,pics/pencil01.jpg,pics/lightswitch01.jpg,blankImage,blankImage,toast,46,0.1174,0.1159,0.1149,,,,,,,,,,,,,,,,,,,,,,,,,,,,,,,,,,,,,,0,34,34,45,1,,,,,,,,,,,,,,,,,,,,,,,,,,,,,,,,,,,,,,,,,,,,,,,,,,,,,,,
,,,,,62d76f709faa1189cba646a6,6669d216483b4754e2264ff7,6669dada4d73eff0c13490ee,30,male,english,2024-06-12_13h30.56.633,ABmemTask3,2023.2.3,Win32,60.24096386,,,,,,,,,,,,,,,,,,,,,,,,,,,,,,,485.7255,486.7254,486.7255,7,487.2248,488.156,0.0019,488.2716,0.1163,0.1155,0.1158,0.1165,0.1167,0.116,0.1168,0.1159,,,,488.2717,488.9197,right,0.6326,,488.9197,489.1865,right,0.2607,,46,0,72,489.1865,490.1835,,,,,,1_AB,L1_T1P_T2P,1,1,1,5,6,4,3,9,Ant,Did you see the Ant,0.12,0,resources/,pics/kangaroo.jpg,pics/giraffe.jpg,pics/footballhelmet.jpg,pics/onion.jpg,pics/ant.jpg,pics/stapler04b.jpg,pics/banjo.jpg,pics/zebra.jpg,pics/dromedary.jpg,blankImage,blankImage,blankImage,blankImage,blankImage,blankImage,blankImage,blankImage,ant,15,,,,,,,,,,,,,,,,,,,,,,,,,,,,,,,,,,,,,,,,,0,35,35,14,1,,,,,,,,,,,,,,,,,,,,,,,,,,,,,,,,,,,,,,,,,,,,,,,,,,,,,,,
,,,,,62d76f709faa1189cba646a6,6669d216483b4754e2264ff7,6669dada4d73eff0c13490ee,30,male,english,2024-06-12_13h30.56.633,ABmemTask3,2023.2.3,Win32,60.24096386,,,,,,,,,,,,,,,,,,,,,,,,,,,,,,,490.1845,491.1802,491.1803,7,491.6795,492.8429,0.0022,492.9586,0.1151,0.1148,0.1181,0.1162,0.115,0.1168,0.1176,0.1164,0.1155,0.1162,,492.9586,493.4575,right,0.4812,,493.4576,493.7069,right,0.2339,,48,0,74,493.707,494.7047,,,,,,1_AB,L1_T1P_T2P,1,1,1,7,8,6,3,11,bird,Did you see the bird,0.12,0,resources/,pics/sealion.jpg,pics/backpack01a.jpg,pics/hose.jpg,pics/table01.jpg,pics/wheel01.jpg,pics/seaturtle.jpg,pics/americangoldfinch.jpg,pics/stapler08.jpg,pics/siamesecat.jpg,pics/hammerheadshark.jpg,pics/ashtray01.jpg,blankImage,blankImage,blankImage,blankImage,blankImage,blankImage,americangoldfinch,23,,,,,,,,,,,,,,,,,,,,,,,,,,,,,,,,,,,,,,,,,0,36,36,22,1,,,,,,,,,,,,,,,,,,,,,,,,,,,,,,,,,,,,,,,,,,,,,,,,,,,,,,,
,,,,,62d76f709faa1189cba646a6,6669d216483b4754e2264ff7,6669dada4d73eff0c13490ee,30,male,english,2024-06-12_13h30.56.633,ABmemTask3,2023.2.3,Win32,60.24096386,,,,,,,,,,,,,,,,,,,,,,,,,,,,,,,494.7058,495.7019,495.7021,7,496.2006,497.7131,0.0016,497.8288,0.1158,0.116,0.1171,0.116,0.1157,0.1166,0.1172,0.1155,0.1164,0.116,0.1162,497.8288,498.5096,right,0.6624,,498.5099,498.7936,left,0.2691,,50,0,76,498.7936,499.7899,,,,,,1_AB,L5_T1P_T2A,5,1,0,4,9,3,5,14,Frisbee,Did you see the Frisbee,0.12,0,resources/,pics/giraffe.jpg,pics/christmaslights.jpg,pics/bowtie.jpg,pics/frisbee.jpg,pics/banjo.jpg,pics/calendar.jpg,pics/butterfly.jpg,pics/onion.jpg,pics/starfish01.jpg,pics/footballhelmet.jpg,pics/blender.jpg,pics/candleholder01.jpg,pics/hairdryer02a.jpg,pics/dromedary.jpg,blankImage,blankImage,blankImage,frisbee,58,0.1172,0.1153,,,,,,,,,,,,,,,,,,,,,,,,,,,,,,,,,,,,,,,0,37,37,57,1,,,,,,,,,,,,,,,,,,,,,,,,,,,,,,,,,,,,,,,,,,,,,,,,,,,,,,,
,,,,,62d76f709faa1189cba646a6,6669d216483b4754e2264ff7,6669dada4d73eff0c13490ee,30,male,english,2024-06-12_13h30.56.633,ABmemTask3,2023.2.3,Win32,60.24096386,,,,,,,,,,,,,,,,,,,,,,,,,,,,,,,499.7908,500.7875,500.7875,7,501.2869,502.1018,0.0015,502.2177,0.1162,0.1147,0.1165,0.1177,0.1151,0.1177,0.1161,,,,,502.2178,503.5132,left,1.2788,,503.5132,503.9297,right,0.4026,,52,0,78,503.9299,504.9266,,,,,,1_AB,L1_T1A_T2P,1,0,1,4,5,3,3,8,Parking meter,Did you see the Parking meter,0.12,0,resources/,pics/leaf02a.jpg,pics/carrot01.jpg,pics/sink.jpg,pics/butterfly.jpg,pics/stapler10.jpg,pics/pictureframe04.jpg,pics/spiderweb.jpg,pics/icecube01.jpg,blankImage,blankImage,blankImage,blankImage,blankImage,blankImage,blankImage,blankImage,blankImage,parkingmeter,30,,,,,,,,,,,,,,,,,,,,,,,,,,,,,,,,,,,,,,,,,0,38,38,29,1,,,,,,,,,,,,,,,,,,,,,,,,,,,,,,,,,,,,,,,,,,,,,,,,,,,,,,,
,,,,,62d76f709faa1189cba646a6,6669d216483b4754e2264ff7,6669dada4d73eff0c13490ee,30,male,english,2024-06-12_13h30.56.633,ABmemTask3,2023.2.3,Win32,60.24096386,,,,,,,,,,,,,,,,,,,,,,,,,,,,,,,504.9275,505.9233,505.9234,7,506.4225,507.5869,0.0019,507.7013,0.1164,0.1149,0.1158,0.1166,0.1174,0.1159,0.116,0.116,0.1175,0.1164,,507.7014,508.3009,right,0.5807,,508.3011,508.6493,left,0.3351,,54,0,80,508.6495,509.6463,,,,,,1_AB,L1_T1P_T2A,1,1,0,7,8,6,3,11,eggplant,Did you see the eggplant,0.12,0,resources/,pics/salmon.jpg,pics/fanblades.jpg,pics/hammerheadshark.jpg,pics/wheel01.jpg,pics/snowshoe.jpg,pics/birdhouse.jpg,pics/eggplant.jpg,pics/spiderweb.jpg,pics/zebra.jpg,pics/pencilsharpener02a.jpg,pics/backpack01a.jpg,blankImage,blankImage,blankImage,blankImage,blankImage,blankImage,eggplant,32,,,,,,,,,,,,,,,,,,,,,,,,,,,,,,,,,,,,,,,,,0,39,39,31,1,,,,,,,,,,,,,,,,,,,,,,,,,,,,,,,,,,,,,,,,,,,,,,,,,,,,,,,
,,,,,62d76f709faa1189cba646a6,6669d216483b4754e2264ff7,6669dada4d73eff0c13490ee,30,male,english,2024-06-12_13h30.56.633,ABmemTask3,2023.2.3,Win32,60.24096386,,,,,,,,,,,,,,,,,,,,,,,,,,,,,,,509.6469,510.6461,510.6462,7,511.1423,512.7717,0.002,512.8872,0.117,0.1157,0.1156,0.1166,0.1164,0.1166,0.1162,0.1163,0.1162,0.1162,0.1165,512.8874,513.3216,right,0.4145,,513.3216,513.5865,right,0.2504,,56,0,82,513.5867,514.583,,,,,,1_AB,L5_T1P_T2P,5,1,1,5,10,4,5,15,ribbon,Did you see the ribbon,0.12,0,resources/,pics/giraffe.jpg,pics/boot02b.jpg,pics/cymbal.jpg,pics/leaf02a.jpg,pics/ribbon04.jpg,pics/lightswitch01.jpg,pics/necklace.jpg,pics/calendar.jpg,pics/kangaroo.jpg,pics/stapler12.jpg,pics/hose.jpg,pics/carrot01.jpg,pics/match.jpg,pics/sink.jpg,pics/candleholder01.jpg,blankImage,blankImage,ribbon04,53,0.1169,0.1165,0.1154,,,,,,,,,,,,,,,,,,,,,,,,,,,,,,,,,,,,,,0,40,40,52,1,,,,,,,,,,,,,,,,,,,,,,,,,,,,,,,,,,,,,,,,,,,,,,,,,,,,,,,
,,,,,62d76f709faa1189cba646a6,6669d216483b4754e2264ff7,6669dada4d73eff0c13490ee,30,male,english,2024-06-12_13h30.56.633,ABmemTask3,2023.2.3,Win32,60.24096386,,,,,,,,,,,,,,,,,,,,,,,,,,,,,,,514.5838,515.5803,515.5804,7,516.0805,517.9415,0.0016,518.0568,0.1146,0.1161,0.117,0.1156,0.1173,0.1153,0.1172,0.1164,0.1166,0.1163,0.1159,518.0569,518.9381,left,0.8625,,518.9382,519.2201,right,0.2738,,54,0,84,519.2202,520.2183,,,,,,1_AB,L5_T1A_T2A,5,0,0,7,12,6,5,17,Bib,Did you see the Bib,0.12,0,resources/,pics/hammerheadshark.jpg,pics/wheel01.jpg,pics/binder03b.jpg,pics/hairdryer02a.jpg,pics/christmaslights.jpg,pics/sandbarshark.jpg,pics/binoculars01b.jpg,pics/piggybank.jpg,pics/aquarium.jpg,pics/candleholder01.jpg,pics/sink.jpg,pics/calendar.jpg,pics/birdhouse.jpg,pics/bowtie.jpg,pics/onion.jpg,pics/golfball.jpg,pics/sailboat.jpg,bib,62,0.1169,0.1151,0.1171,,,,,,,,,,,,,,,,,,,,,,,,,,,,,,,,,,,,,,0,41,41,61,1,0.1165,0.116,,,,,,,,,,,,,,,,,,,,,,,,,,,,,,,,,,,,,,,,,,,,,,,,,,,,,
,,,,,62d76f709faa1189cba646a6,6669d216483b4754e2264ff7,6669dada4d73eff0c13490ee,30,male,english,2024-06-12_13h30.56.633,ABmemTask3,2023.2.3,Win32,60.24096386,,,,,,,,,,,,,,,,,,,,,,,,,,,,,,,520.219,521.2149,521.215,7,521.714,522.7617,0.0012,522.8783,0.1159,0.1165,0.116,0.1176,0.1153,0.117,0.116,0.1163,0.1164,,,522.8784,523.3927,right,0.5032,,523.3929,523.6593,left,0.2512,,56,0,86,523.6593,524.6553,,,,,,1_AB,L1_T1P_T2A,1,1,0,6,7,5,3,10,Electric toothbrush,Did you see the Electric toothbrush,0.12,0,resources/,pics/football.jpg,pics/sailboat.jpg,pics/cymbal.jpg,pics/hen.jpg,pics/pencil01.jpg,pics/electrictoothbrush01c.jpg,pics/bowlingpin.jpg,pics/wheel01.jpg,pics/birdhouse.jpg,pics/leaf02a.jpg,blankImage,blankImage,blankImage,blankImage,blankImage,blankImage,blankImage,electrictoothbrush01c,34,,,,,,,,,,,,,,,,,,,,,,,,,,,,,,,,,,,,,,,,,0,42,42,33,1,,,,,,,,,,,,,,,,,,,,,,,,,,,,,,,,,,,,,,,,,,,,,,,,,,,,,,,
,,,,,62d76f709faa1189cba646a6,6669d216483b4754e2264ff7,6669dada4d73eff0c13490ee,30,male,english,2024-06-12_13h30.56.633,ABmemTask3,2023.2.3,Win32,60.24096386,,,,,,,,,,,,,,,,,,,,,,,,,,,,,,,524.6561,525.6543,525.6543,7,526.1519,527.316,0.0018,527.4316,0.1157,0.1169,0.1158,0.1162,0.1163,0.1152,0.1176,0.1153,0.1172,0.1163,,527.4317,527.9802,right,0.531,,527.9803,528.2617,left,0.2743,,58,0,88,528.2618,529.2602,,,,,,1_AB,L1_T1P_T2A,1,1,0,7,8,6,3,11,garlic,Did you see the garlic,0.12,0,resources/,pics/zebra.jpg,pics/banjo.jpg,pics/pencilsharpener02a.jpg,pics/football.jpg,pics/candle01.jpg,pics/footballhelmet.jpg,pics/garlic01a.jpg,pics/birdhouse.jpg,pics/peach01.jpg,pics/pictureframe04.jpg,pics/binder03b.jpg,blankImage,blankImage,blankImage,blankImage,blankImage,blankImage,garlic01a,33,,,,,,,,,,,,,,,,,,,,,,,,,,,,,,,,,,,,,,,,,0,43,43,32,1,,,,,,,,,,,,,,,,,,,,,,,,,,,,,,,,,,,,,,,,,,,,,,,,,,,,,,,
,,,,,62d76f709faa1189cba646a6,6669d216483b4754e2264ff7,6669dada4d73eff0c13490ee,30,male,english,2024-06-12_13h30.56.633,ABmemTask3,2023.2.3,Win32,60.24096386,,,,,,,,,,,,,,,,,,,,,,,,,,,,,,,529.2609,530.2567,530.2568,7,530.7556,532.5012,0.0018,532.6175,0.1162,0.1156,0.1165,0.1164,0.1163,0.117,0.1168,0.1151,0.1166,0.1174,0.1159,532.6176,533.2496,right,0.612,,533.2499,533.5646,left,0.3004,,60,0,90,533.5648,534.5622,,,,,,1_AB,L5_T1P_T2A,5,1,0,7,12,6,4,16,boat,Did you see the boat,0.12,0,resources/,pics/butterfly.jpg,pics/onion.jpg,pics/hose.jpg,pics/ball02.jpg,pics/ashtray01.jpg,pics/bowtie.jpg,pics/boat.jpg,pics/seaturtle.jpg,pics/blender.jpg,pics/zebra.jpg,pics/pictureframe04.jpg,pics/shovel01.jpg,pics/spoon01.jpg,pics/peanut01.jpg,pics/nutcracker01.jpg,pics/aquarium.jpg,blankImage,boat,60,0.1151,0.1168,0.1169,,,,,,,,,,,,,,,,,,,,,,,,,,,,,,,,,,,,,,0,44,44,59,1,0.1157,,,,,,,,,,,,,,,,,,,,,,,,,,,,,,,,,,,,,,,,,,,,,,,,,,,,,,
,,,,,62d76f709faa1189cba646a6,6669d216483b4754e2264ff7,6669dada4d73eff0c13490ee,30,male,english,2024-06-12_13h30.56.633,ABmemTask3,2023.2.3,Win32,60.24096386,,,,,,,,,,,,,,,,,,,,,,,,,,,,,,,534.5634,535.5599,535.56,7,536.0586,537.1069,0.0013,537.2205,0.1157,0.1169,0.1154,0.1171,0.1154,0.1167,0.1163,0.1171,0.117,,,537.2206,538.2185,left,0.9837,,538.2186,538.5181,right,0.2825,,62,0,92,538.5183,539.5157,,,,,,1_AB,L1_T1A_T2P,1,0,1,5,6,4,4,10,button,Did you see the button,0.12,0,resources/,pics/pencil01.jpg,pics/necklace.jpg,pics/sink.jpg,pics/noparkingsign.jpg,pics/banjo.jpg,pics/stapler03b.jpg,pics/candle01.jpg,pics/icecube01.jpg,pics/shovel01.jpg,pics/pencilsharpener02a.jpg,blankImage,blankImage,blankImage,blankImage,blankImage,blankImage,blankImage,button01,25,,,,,,,,,,,,,,,,,,,,,,,,,,,,,,,,,,,,,,,,,0,45,45,24,1,,,,,,,,,,,,,,,,,,,,,,,,,,,,,,,,,,,,,,,,,,,,,,,,,,,,,,,
,,,,,62d76f709faa1189cba646a6,6669d216483b4754e2264ff7,6669dada4d73eff0c13490ee,30,male,english,2024-06-12_13h30.56.633,ABmemTask3,2023.2.3,Win32,60.24096386,,,,,,,,,,,,,,,,,,,,,,,,,,,,,,,539.5291,540.529,540.5293,7,541.0285,542.5406,0.0017,542.6565,0.1149,0.1162,0.1157,0.1179,0.116,0.1151,0.1173,0.1163,0.1157,0.1179,0.1162,542.6567,543.4872,left,0.8147,,543.4874,543.8206,right,0.321,,64,0,94,543.8207,544.8168,,,,,,1_AB,L5_T1A_T2P,5,0,1,4,9,3,5,14,lemon,Did you see the lemon,0.12,0,resources/,pics/seaturtle.jpg,pics/lightswitch01.jpg,pics/candle01.jpg,pics/cannon.jpg,pics/seagull.jpg,pics/spoon01.jpg,pics/spiderweb.jpg,pics/sewingmachine01a.jpg,pics/stapler05.jpg,pics/binoculars01b.jpg,pics/zebra.jpg,pics/sealion.jpg,pics/shovel01.jpg,pics/wheel01.jpg,blankImage,blankImage,blankImage,lemon02,56,0.1155,0.1159,,,,,,,,,,,,,,,,,,,,,,,,,,,,,,,,,,,,,,,0,46,46,55,1,,,,,,,,,,,,,,,,,,,,,,,,,,,,,,,,,,,,,,,,,,,,,,,,,,,,,,,
,,,,,62d76f709faa1189cba646a6,6669d216483b4754e2264ff7,6669dada4d73eff0c13490ee,30,male,english,2024-06-12_13h30.56.633,ABmemTask3,2023.2.3,Win32,60.24096386,,,,,,,,,,,,,,,,,,,,,,,,,,,,,,,544.8176,545.8148,545.8148,7,546.3137,547.5943,0.0019,547.7099,0.1155,0.116,0.1163,0.116,0.1163,0.1163,0.1175,0.1151,0.1173,0.1155,0.1174,547.7102,548.7395,left,1.0142,,548.7397,549.0394,right,0.2878,,66,0,96,549.0395,550.036,,,,,,1_AB,L5_T1A_T2P,5,0,1,4,9,3,3,12,rooster,Did you see the rooster,0.12,0,resources/,pics/table01.jpg,pics/icecube01.jpg,pics/dustpan.jpg,pics/lock03a.jpg,pics/sailboat.jpg,pics/salmon.jpg,pics/banjo.jpg,pics/zebra.jpg,pics/stapler09.jpg,pics/peach01.jpg,pics/chainsaw.jpg,pics/football.jpg,blankImage,blankImage,blankImage,blankImage,blankImage,rooster,55,,,,,,,,,,,,,,,,,,,,,,,,,,,,,,,,,,,,,,,,,0,47,47,54,1,,,,,,,,,,,,,,,,,,,,,,,,,,,,,,,,,,,,,,,,,,,,,,,,,,,,,,,
,,,,,62d76f709faa1189cba646a6,6669d216483b4754e2264ff7,6669dada4d73eff0c13490ee,30,male,english,2024-06-12_13h30.56.633,ABmemTask3,2023.2.3,Win32,60.24096386,,,,,,,,,,,,,,,,,,,,,,,,,,,,,,,550.0365,551.0341,551.0344,7,551.5321,552.9295,0.0021,553.0453,0.1157,0.1167,0.1161,0.1157,0.117,0.1162,0.1159,0.117,0.1153,0.1171,0.1164,553.0454,554.0754,right,1.0131,,554.0757,554.3918,left,0.3006,,66,0,98,554.3918,555.3897,,,,,,1_AB,L5_T1P_T2P,5,1,1,4,9,3,4,13,Forklift,Did you see the Forklift,0.12,0,resources/,pics/dustpan.jpg,pics/table01.jpg,pics/sink.jpg,pics/forklift.jpg,pics/dromedary.jpg,pics/proboscismonkey.jpg,pics/cymbal.jpg,pics/shovel01.jpg,pics/stapler10.jpg,pics/backpack01a.jpg,pics/binder03b.jpg,pics/banjo.jpg,pics/candleholder01.jpg,blankImage,blankImage,blankImage,blankImage,forklift,47,0.1168,,,,,,,,,,,,,,,,,,,,,,,,,,,,,,,,,,,,,,,,0,48,48,46,1,,,,,,,,,,,,,,,,,,,,,,,,,,,,,,,,,,,,,,,,,,,,,,,,,,,,,,,
,,,,,62d76f709faa1189cba646a6,6669d216483b4754e2264ff7,6669dada4d73eff0c13490ee,30,male,english,2024-06-12_13h30.56.633,ABmemTask3,2023.2.3,Win32,60.24096386,,,,,,,,,,,,,,,,,,,,,,,,,,,,,,,555.3904,556.3858,556.3859,7,556.8846,558.1652,0.002,558.2803,0.1158,0.1155,0.1167,0.1164,0.1164,0.116,0.117,0.1167,0.1161,0.1159,0.1166,558.2804,558.945,right,0.653,,558.9451,559.2436,left,0.2924,,66,0,100,559.2437,560.2421,,,,,,1_AB,L1_T1P_T2P,1,1,1,7,8,6,4,12,hammer,Did you see the hammer,0.12,0,resources/,pics/microscope.jpg,pics/blender.jpg,pics/dustpan.jpg,pics/snowshoe.jpg,pics/mummy.jpg,pics/bowtie.jpg,pics/hammer01.jpg,pics/stapler04b.jpg,pics/seaturtle.jpg,pics/candle01.jpg,pics/necklace.jpg,pics/cannon.jpg,blankImage,blankImage,blankImage,blankImage,blankImage,hammer01,21,,,,,,,,,,,,,,,,,,,,,,,,,,,,,,,,,,,,,,,,,0,49,49,20,1,,,,,,,,,,,,,,,,,,,,,,,,,,,,,,,,,,,,,,,,,,,,,,,,,,,,,,,
,,,,,62d76f709faa1189cba646a6,6669d216483b4754e2264ff7,6669dada4d73eff0c13490ee,30,male,english,2024-06-12_13h30.56.633,ABmemTask3,2023.2.3,Win32,60.24096386,,,,,,,,,,,,,,,,,,,,,,,,,,,,,,,560.2429,561.2395,561.2396,7,561.7382,563.1347,0.0016,563.251,0.1167,0.1142,0.1173,0.117,0.1153,0.1163,0.1158,0.1169,0.1163,0.1165,0.116,563.251,563.9654,right,0.6955,,563.9655,564.2148,right,0.2354,,68,0,102,564.215,565.2115,,,,,,1_AB,L1_T1P_T2P,1,1,1,7,8,6,5,13,strawberry,Did you see the strawberry,0.12,0,resources/,pics/sealion.jpg,pics/backpack01a.jpg,pics/binoculars01b.jpg,pics/ball02.jpg,pics/proboscismonkey.jpg,pics/pictureframe04.jpg,pics/strawberry.jpg,pics/stapler12.jpg,pics/seaturtle.jpg,pics/dustpan.jpg,pics/bowlingpin.jpg,pics/hammerheadshark.jpg,pics/hen.jpg,blankImage,blankImage,blankImage,blankImage,strawberry,10,0.117,,,,,,,,,,,,,,,,,,,,,,,,,,,,,,,,,,,,,,,,0,50,50,9,1,,,,,,,,,,,,,,,,,,,,,,,,,,,,,,,,,,,,,,,,,,,,,,,,,,,,,,,
,,,,,62d76f709faa1189cba646a6,6669d216483b4754e2264ff7,6669dada4d73eff0c13490ee,30,male,english,2024-06-12_13h30.56.633,ABmemTask3,2023.2.3,Win32,60.24096386,,,,,,,,,,,,,,,,,,,,,,,,,,,,,,,565.2122,566.209,566.2093,7,566.7076,568.1054,0.0012,568.2207,0.1166,0.1161,0.116,0.1173,0.1153,0.1171,0.1162,0.1152,0.1174,0.1164,0.1161,568.2207,569.5834,left,1.3509,,569.5835,570.0664,left,0.468,,70,0,104,570.0664,571.063,,,,,,1_AB,L1_T1A_T2A,1,0,0,7,8,6,5,13,fan,Did you see the fan,0.12,0,resources/,pics/leaf02a.jpg,pics/dustpan.jpg,pics/pencil01.jpg,pics/kangaroo.jpg,pics/golfball.jpg,pics/lightswitch01.jpg,pics/nutcracker01.jpg,pics/calendar.jpg,pics/hose.jpg,pics/starfish01.jpg,pics/siamesecat.jpg,pics/bowlingpin.jpg,pics/necklace.jpg,blankImage,blankImage,blankImage,blankImage,fan,42,0.1172,,,,,,,,,,,,,,,,,,,,,,,,,,,,,,,,,,,,,,,,0,51,51,41,1,,,,,,,,,,,,,,,,,,,,,,,,,,,,,,,,,,,,,,,,,,,,,,,,,,,,,,,
,,,,,62d76f709faa1189cba646a6,6669d216483b4754e2264ff7,6669dada4d73eff0c13490ee,30,male,english,2024-06-12_13h30.56.633,ABmemTask3,2023.2.3,Win32,60.24096386,,,,,,,,,,,,,,,,,,,,,,,,,,,,,,,571.0638,572.0601,572.0602,7,572.5585,573.7226,0.002,573.8376,0.1158,0.1157,0.116,0.1171,0.1155,0.117,0.116,0.1179,0.1145,0.1172,,573.8378,574.3698,right,0.5131,,574.37,574.5857,right,0.2074,,72,0,106,574.5857,575.5835,,,,,,1_AB,L1_T1P_T2P,1,1,1,7,8,6,3,11,medal,Did you see the medal,0.12,0,resources/,pics/hen.jpg,pics/starfish01.jpg,pics/nutcracker01.jpg,pics/ball02.jpg,pics/fanblades.jpg,pics/christmaslights.jpg,pics/medal02b.jpg,pics/stapler09.jpg,pics/carrot01.jpg,pics/hammerheadshark.jpg,pics/sailboat.jpg,blankImage,blankImage,blankImage,blankImage,blankImage,blankImage,medal02b,19,,,,,,,,,,,,,,,,,,,,,,,,,,,,,,,,,,,,,,,,,0,52,52,18,1,,,,,,,,,,,,,,,,,,,,,,,,,,,,,,,,,,,,,,,,,,,,,,,,,,,,,,,
,,,,,62d76f709faa1189cba646a6,6669d216483b4754e2264ff7,6669dada4d73eff0c13490ee,30,male,english,2024-06-12_13h30.56.633,ABmemTask3,2023.2.3,Win32,60.24096386,,,,,,,,,,,,,,,,,,,,,,,,,,,,,,,575.5843,576.5805,576.5805,7,577.0799,578.476,0.0018,578.5914,0.1161,0.1155,0.1166,0.1163,0.1152,0.1167,0.1165,0.117,0.1151,0.1173,0.1158,578.5916,579.4892,left,0.8785,,579.4892,579.7894,right,0.2886,,74,0,108,579.7895,580.7857,,,,,,1_AB,L1_T1A_T2P,1,0,1,7,8,6,5,13,Basketball,Did you see the Basketball,0.12,0,resources/,pics/cork02.jpg,pics/table01.jpg,pics/christmaslights.jpg,pics/nutcracker01.jpg,pics/golfball.jpg,pics/hammerheadshark.jpg,pics/seaturtle.jpg,pics/stapler04b.jpg,pics/lock03a.jpg,pics/snowshoe.jpg,pics/sewingmachine01a.jpg,pics/peach01.jpg,pics/hose.jpg,blankImage,blankImage,blankImage,blankImage,basketball01,24,0.1166,,,,,,,,,,,,,,,,,,,,,,,,,,,,,,,,,,,,,,,,0,53,53,23,1,,,,,,,,,,,,,,,,,,,,,,,,,,,,,,,,,,,,,,,,,,,,,,,,,,,,,,,
,,,,,62d76f709faa1189cba646a6,6669d216483b4754e2264ff7,6669dada4d73eff0c13490ee,30,male,english,2024-06-12_13h30.56.633,ABmemTask3,2023.2.3,Win32,60.24096386,,,,,,,,,,,,,,,,,,,,,,,,,,,,,,,580.7866,581.7832,581.7832,7,582.2816,583.5618,0.0014,583.6784,0.1166,0.1156,0.1169,0.1167,0.116,0.1157,0.1168,0.1172,0.1166,0.1153,0.1164,583.6787,584.2596,right,0.5632,,584.2598,584.5761,left,0.2998,,76,0,110,584.5762,585.5738,,,,,,1_AB,L1_T1P_T2A,1,1,0,7,8,6,4,12,Tennis racket,Did you see the Tennis racket,0.12,0,resources/,pics/banjo.jpg,pics/leaf02a.jpg,pics/shovel01.jpg,pics/microscope.jpg,pics/cork02.jpg,pics/seagull.jpg,pics/tennisracket.jpg,pics/binder03b.jpg,pics/floortile02.jpg,pics/carrot01.jpg,pics/candle01.jpg,pics/siamesecat.jpg,blankImage,blankImage,blankImage,blankImage,blankImage,tennisracket,38,,,,,,,,,,,,,,,,,,,,,,,,,,,,,,,,,,,,,,,,,0,54,54,37,1,,,,,,,,,,,,,,,,,,,,,,,,,,,,,,,,,,,,,,,,,,,,,,,,,,,,,,,
,,,,,62d76f709faa1189cba646a6,6669d216483b4754e2264ff7,6669dada4d73eff0c13490ee,30,male,english,2024-06-12_13h30.56.633,ABmemTask3,2023.2.3,Win32,60.24096386,,,,,,,,,,,,,,,,,,,,,,,,,,,,,,,585.5879,586.587,586.5871,7,587.0863,588.4817,0.0019,588.5983,0.1147,0.1168,0.1163,0.1155,0.1175,0.1154,0.1164,0.1166,0.1176,0.1155,0.1164,588.5984,589.1962,right,0.5789,,589.1963,589.6787,right,0.4675,,78,0,112,589.6791,590.6753,,,,,,1_AB,L1_T1P_T2P,1,1,1,7,8,6,5,13,Totem Pole,Did you see the Totem Pole,0.12,0,resources/,pics/laptop01a.jpg,pics/carrot01.jpg,pics/wheel01.jpg,pics/icecube01.jpg,pics/ashtray01.jpg,pics/lock03a.jpg,pics/totempole.jpg,pics/stapler08.jpg,pics/golfball.jpg,pics/pencil01.jpg,pics/banjo.jpg,pics/sandbarshark.jpg,pics/shipinabottle.jpg,blankImage,blankImage,blankImage,blankImage,totempole,22,0.1153,,,,,,,,,,,,,,,,,,,,,,,,,,,,,,,,,,,,,,,,0,55,55,21,1,,,,,,,,,,,,,,,,,,,,,,,,,,,,,,,,,,,,,,,,,,,,,,,,,,,,,,,
,,,,,62d76f709faa1189cba646a6,6669d216483b4754e2264ff7,6669dada4d73eff0c13490ee,30,male,english,2024-06-12_13h30.56.633,ABmemTask3,2023.2.3,Win32,60.24096386,,,,,,,,,,,,,,,,,,,,,,,,,,,,,,,590.6761,591.6727,591.6727,7,592.1724,593.1034,0.0016,593.2194,0.1151,0.1166,0.1157,0.1169,0.1162,0.1176,0.1145,0.1172,,,,593.2195,593.9,right,0.6637,,593.9002,594.2498,left,0.3336,,78,0,114,594.25,595.2467,,,,,,1_AB,L1_T1P_T2P,1,1,1,5,6,4,3,9,paint brush,Did you see the paint brush,0.12,0,resources/,pics/nutcracker01.jpg,pics/piggybank.jpg,pics/spiderweb.jpg,pics/table01.jpg,pics/paintbrush01.jpg,pics/stapler09.jpg,pics/hose.jpg,pics/cannon.jpg,pics/mummy.jpg,blankImage,blankImage,blankImage,blankImage,blankImage,blankImage,blankImage,blankImage,paintbrush01,20,,,,,,,,,,,,,,,,,,,,,,,,,,,,,,,,,,,,,,,,,0,56,56,19,1,,,,,,,,,,,,,,,,,,,,,,,,,,,,,,,,,,,,,,,,,,,,,,,,,,,,,,,
,,,,,62d76f709faa1189cba646a6,6669d216483b4754e2264ff7,6669dada4d73eff0c13490ee,30,male,english,2024-06-12_13h30.56.633,ABmemTask3,2023.2.3,Win32,60.24096386,,,,,,,,,,,,,,,,,,,,,,,,,,,,,,,595.2475,596.2435,596.2435,7,596.7422,597.7909,0.0023,597.9058,0.1162,0.115,0.117,0.1159,0.1163,0.1172,0.1163,0.1162,0.1166,,,597.9059,598.9038,left,0.9874,,598.9038,599.2018,right,0.2882,,80,0,116,599.202,600.1991,,,,,,1_AB,L1_T1A_T2P,1,0,1,5,6,4,4,10,Rabbit,Did you see the Rabbit,0.12,0,resources/,pics/cannon.jpg,pics/proboscismonkey.jpg,pics/salmon.jpg,pics/nutcracker01.jpg,pics/seagull.jpg,pics/stapler02.jpg,pics/table01.jpg,pics/laptop01a.jpg,pics/necklace.jpg,pics/pencilsharpener02a.jpg,blankImage,blankImage,blankImage,blankImage,blankImage,blankImage,blankImage,jackrabbit,31,,,,,,,,,,,,,,,,,,,,,,,,,,,,,,,,,,,,,,,,,0,57,57,30,1,,,,,,,,,,,,,,,,,,,,,,,,,,,,,,,,,,,,,,,,,,,,,,,,,,,,,,,
,,,,,62d76f709faa1189cba646a6,6669d216483b4754e2264ff7,6669dada4d73eff0c13490ee,30,male,english,2024-06-12_13h30.56.633,ABmemTask3,2023.2.3,Win32,60.24096386,,,,,,,,,,,,,,,,,,,,,,,,,,,,,,,600.1999,601.1973,601.1974,7,601.696,603.3238,0.0016,603.4411,0.115,0.1161,0.117,0.1164,0.1161,0.117,0.1153,0.116,0.1162,0.1168,0.117,603.4412,603.7897,right,0.331,,603.7899,603.9901,right,0.193,,82,0,118,603.9901,604.9863,,,,,,1_AB,L5_T1P_T2P,5,1,1,5,10,4,5,15,dolphin,Did you see the dolphin,0.12,0,resources/,pics/banjo.jpg,pics/shipinabottle.jpg,pics/laptop01a.jpg,pics/onion.jpg,pics/dolphin01.jpg,pics/sink.jpg,pics/seaturtle.jpg,pics/butterfly.jpg,pics/hen.jpg,pics/stapler10.jpg,pics/proboscismonkey.jpg,pics/starfish01.jpg,pics/salmon.jpg,pics/spiderweb.jpg,pics/cymbal.jpg,blankImage,blankImage,dolphin01,49,0.1159,0.1162,0.115,,,,,,,,,,,,,,,,,,,,,,,,,,,,,,,,,,,,,,0,58,58,48,1,,,,,,,,,,,,,,,,,,,,,,,,,,,,,,,,,,,,,,,,,,,,,,,,,,,,,,,
