consent1.started,consent1.stopped,key_resp_8.keys,key_resp_8.rt,key_resp_8.duration,PROLIFIC_PID,STUDY_ID,SESSION_ID,age,sex,native language,date,expName,psychopyVersion,OS,frameRate,consent2.started,consent2.stopped,key_resp_9.keys,key_resp_9.rt,key_resp_9.duration,consent3.started,consent3.stopped,key_resp_10.keys,key_resp_10.rt,key_resp_10.duration,consent4.started,consent4.stopped,key_resp_11.keys,key_resp_11.rt,key_resp_11.duration,consent5.started,consent5.stopped,key_resp_12.keys,key_resp_12.rt,key_resp_12.duration,bonusInstruct.started,bonusInstruct.stopped,key_resp_14.keys,key_resp_14.rt,key_resp_14.duration,practiceInstruct.started,practiceInstruct.stopped,key_resp.keys,key_resp.rt,key_resp.duration,cueWord_2.started,cueWord_2.stopped,fix.started,frameTarget,fix.stopped,trial.started,img1Add,trial.stopped,img2Add,img3Add,img4Add,img5Add,img6Add,img7Add,img8Add,img9Add,img10Add,img11Add,img12Add,prompt1.started,prompt1.stopped,key_resp_2.keys,key_resp_2.rt,key_resp_2.duration,prompt2.started,prompt2.stopped,key_resp_3.keys,key_resp_3.rt,key_resp_3.duration,runningAcc_AB,runningTotal,runningCount_AB,feedback.started,feedback.stopped,trials.thisRepN,trials.thisTrialN,trials.thisN,trials.thisIndex,trials.ran,TrialType,CondType,Lag,T1_PA,T2_PA,T1Loc,T2Loc,PreDistractor,PostDistractor,TotalImg,cueWord,T1cue,StimLength,isi,PicFolder,Img1,Img2,Img3,Img4,Img5,Img6,Img7,Img8,Img9,Img10,Img11,Img12,Img13,Img14,Img15,Img16,Img17,T1_Identity,trialID,img13Add,img14Add,img15Add,ABfeedback.started,ABfeedback.stopped,key_resp_13.keys,key_resp_13.rt,key_resp_13.duration,MemPracticeInstruction.started,MemPracticeInstruction.stopped,key_resp_5.keys,key_resp_5.rt,key_resp_5.duration,memTrial.started,memTrial.stopped,Mem_runningPoints,key_resp_4.keys,key_resp_4.rt,key_resp_4.duration,memTrialFeedback.started,memTrialFeedback.stopped,trials_2.thisRepN,trials_2.thisTrialN,trials_2.thisN,trials_2.thisIndex,trials_2.ran,ABtrialID,priorLag,image,memFeedback.started,memFeedback.frame,memFeedback.ended,memFeedback.stopped,bonus.started,bonus.stopped,memoryBlockABInstruct.started,memoryBlockABInstruct.stopped,key_resp_6.keys,key_resp_6.rt,key_resp_6.duration,AB_block_1.thisRepN,AB_block_1.thisTrialN,AB_block_1.thisN,AB_block_1.thisIndex,AB_block_1.ran,img16Add,img17Add,AB_break1.started,AB_break1.stopped,PerceiveBlockABInstruct.started,PerceiveBlockABInstruct.stopped,key_resp_7.keys,key_resp_7.rt,key_resp_7.duration,AB_block_2.thisRepN,AB_block_2.thisTrialN,AB_block_2.thisN,AB_block_2.thisIndex,AB_block_2.ran,AB_break2.started,AB_break2.stopped,AB_block_3.thisRepN,AB_block_3.thisTrialN,AB_block_3.thisN,AB_block_3.thisIndex,AB_block_3.ran,AB_break3.started,AB_break3.stopped,AB_block_4.thisRepN,AB_block_4.thisTrialN,AB_block_4.thisN,AB_block_4.thisIndex,AB_block_4.ran,AB_break4.started,AB_break4.stopped,AB_block_5.thisRepN,AB_block_5.thisTrialN,AB_block_5.thisN,AB_block_5.thisIndex,AB_block_5.ran,AB_break5.started,AB_break5.stopped,AB_block_6.thisRepN,AB_block_6.thisTrialN,AB_block_6.thisN,AB_block_6.thisIndex,AB_block_6.ran,AB_break6.started,AB_break6.stopped,MemInstructionSURPRISE.started,MemInstructionSURPRISE.stopped,MemInstruction.started,MemInstruction.stopped,memBreak.started,memBreak.stopped,Mem_block_1.thisRepN,Mem_block_1.thisTrialN,Mem_block_1.thisN,Mem_block_1.thisIndex,Mem_block_1.ran
0.0003,14.2063,space,14.175,,5f0bb0a18bf36931d16e58cc,6682b41eeb79ab8215dff63d,6682ba745525b47afe887ad4,31,Female,English,2024-07-01_15h19.17.004,ABmemTask3,2023.2.3,Win32,59.88023952,,,,,,,,,,,,,,,,,,,,,,,,,,,,,,,,,,,,,,,,,,,,,,,,,,,,,,,,,,,,,,,,,,,,,,,,,,,,,,,,,,,,,,,,,,,,,,,,,,,,,,,,,,,,,,,,,,,,,,,,,,,,,,,,,,,,,,,,,,,,,,,,,,,,,,,,,,,,,,,,,,,,,,,,,,,,,,,,,,,,,,,,,,,,,,,,,,,,,,,,,,,
,,,,,5f0bb0a18bf36931d16e58cc,6682b41eeb79ab8215dff63d,6682ba745525b47afe887ad4,31,Female,English,2024-07-01_15h19.17.004,ABmemTask3,2023.2.3,Win32,59.88023952,14.2072,17.6021,space,3.3283,,,,,,,,,,,,,,,,,,,,,,,,,,,,,,,,,,,,,,,,,,,,,,,,,,,,,,,,,,,,,,,,,,,,,,,,,,,,,,,,,,,,,,,,,,,,,,,,,,,,,,,,,,,,,,,,,,,,,,,,,,,,,,,,,,,,,,,,,,,,,,,,,,,,,,,,,,,,,,,,,,,,,,,,,,,,,,,,,,,,,,,,,,,,,,,,,,,,,,,
,,,,,5f0bb0a18bf36931d16e58cc,6682b41eeb79ab8215dff63d,6682ba745525b47afe887ad4,31,Female,English,2024-07-01_15h19.17.004,ABmemTask3,2023.2.3,Win32,59.88023952,,,,,,17.6029,23.737,space,6.0983,,,,,,,,,,,,,,,,,,,,,,,,,,,,,,,,,,,,,,,,,,,,,,,,,,,,,,,,,,,,,,,,,,,,,,,,,,,,,,,,,,,,,,,,,,,,,,,,,,,,,,,,,,,,,,,,,,,,,,,,,,,,,,,,,,,,,,,,,,,,,,,,,,,,,,,,,,,,,,,,,,,,,,,,,,,,,,,,,,,,,,,,,,,,,,,,,,
,,,,,5f0bb0a18bf36931d16e58cc,6682b41eeb79ab8215dff63d,6682ba745525b47afe887ad4,31,Female,English,2024-07-01_15h19.17.004,ABmemTask3,2023.2.3,Win32,59.88023952,,,,,,,,,,,23.7373,27.3363,space,3.5506,,,,,,,,,,,,,,,,,,,,,,,,,,,,,,,,,,,,,,,,,,,,,,,,,,,,,,,,,,,,,,,,,,,,,,,,,,,,,,,,,,,,,,,,,,,,,,,,,,,,,,,,,,,,,,,,,,,,,,,,,,,,,,,,,,,,,,,,,,,,,,,,,,,,,,,,,,,,,,,,,,,,,,,,,,,,,,,,,,,,,,,,,,,,,
,,,,,5f0bb0a18bf36931d16e58cc,6682b41eeb79ab8215dff63d,6682ba745525b47afe887ad4,31,Female,English,2024-07-01_15h19.17.004,ABmemTask3,2023.2.3,Win32,59.88023952,,,,,,,,,,,,,,,,27.3368,30.6516,space,3.2613,,,,,,,,,,,,,,,,,,,,,,,,,,,,,,,,,,,,,,,,,,,,,,,,,,,,,,,,,,,,,,,,,,,,,,,,,,,,,,,,,,,,,,,,,,,,,,,,,,,,,,,,,,,,,,,,,,,,,,,,,,,,,,,,,,,,,,,,,,,,,,,,,,,,,,,,,,,,,,,,,,,,,,,,,,,,,,,,,,,,,,,,
,,,,,5f0bb0a18bf36931d16e58cc,6682b41eeb79ab8215dff63d,6682ba745525b47afe887ad4,31,Female,English,2024-07-01_15h19.17.004,ABmemTask3,2023.2.3,Win32,59.88023952,,,,,,,,,,,,,,,,,,,,,30.6521,39.2669,space,8.5665,,,,,,,,,,,,,,,,,,,,,,,,,,,,,,,,,,,,,,,,,,,,,,,,,,,,,,,,,,,,,,,,,,,,,,,,,,,,,,,,,,,,,,,,,,,,,,,,,,,,,,,,,,,,,,,,,,,,,,,,,,,,,,,,,,,,,,,,,,,,,,,,,,,,,,,,,,,,,,,,,,,,,,,,,,,,,,,,,,,
,,,,,5f0bb0a18bf36931d16e58cc,6682b41eeb79ab8215dff63d,6682ba745525b47afe887ad4,31,Female,English,2024-07-01_15h19.17.004,ABmemTask3,2023.2.3,Win32,59.88023952,,,,,,,,,,,,,,,,,,,,,,,,,,39.2673,60.5471,space,21.2531,,,,,,,,,,,,,,,,,,,,,,,,,,,,,,,,,,,,,,,,,,,,,,,,,,,,,,,,,,,,,,,,,,,,,,,,,,,,,,,,,,,,,,,,,,,,,,,,,,,,,,,,,,,,,,,,,,,,,,,,,,,,,,,,,,,,,,,,,,,,,,,,,,,,,,,,,,,,,,,,,,,,,,,,,,,,,,
,,,,,5f0bb0a18bf36931d16e58cc,6682b41eeb79ab8215dff63d,6682ba745525b47afe887ad4,31,Female,English,2024-07-01_15h19.17.004,ABmemTask3,2023.2.3,Win32,59.88023952,,,,,,,,,,,,,,,,,,,,,,,,,,,,,,,60.5745,61.579,61.5796,15,62.079,64.8296,0.0053,65.0786,0.2459,0.2494,0.2498,0.2501,0.2499,0.2498,0.2496,0.2502,0.2501,0.2497,0.251,65.0805,65.9958,right,0.8949,,65.9962,67.6952,right,1.6728,,-2,0,2,67.6956,68.6948,0,0,0,0,1,prac_AB,L1_T1P_T2A,1,1,0,6,7,5,5,12,cat,Did you see the cat,0.25,0,resources/,pics/shipinabottle.jpg,pics/table01.jpg,pics/dustpan.jpg,pics/golfball.jpg,pics/giraffe.jpg,pics/cat.jpg,pics/peanut01.jpg,pics/pictureframe04.jpg,pics/fanblades.jpg,pics/laptop01a.jpg,pics/ball02.jpg,pics/blender.jpg,blankImage,blankImage,blankImage,blankImage,blankImage,cat,8,,,,,,,,,,,,,,,,,,,,,,,,,,,,,,,,,,,,,,,,,,,,,,,,,,,,,,,,,,,,,,,,,,,,,,,,,,,,,,,,,,,,,,,,,,,,,,,,,,,,
,,,,,5f0bb0a18bf36931d16e58cc,6682b41eeb79ab8215dff63d,6682ba745525b47afe887ad4,31,Female,English,2024-07-01_15h19.17.004,ABmemTask3,2023.2.3,Win32,59.88023952,,,,,,,,,,,,,,,,,,,,,,,,,,,,,,,68.7165,69.7112,69.7113,14,70.2119,72.3125,0.0027,72.5441,0.2321,0.2335,0.2327,0.2334,0.2337,0.2334,0.233,0.2335,0.2334,,,72.5443,74.2285,left,1.6557,,74.2288,74.8949,left,0.6371,,-4,0,4,74.8954,75.8828,0,1,1,1,1,prac_AB,L1_T1P_T2P,1,1,1,5,6,4,4,10,tree,Did you see the tree,0.24,0,resources/,pics/carrot01.jpg,pics/hammerheadshark.jpg,pics/kangaroo.jpg,pics/proboscismonkey.jpg,pics/tree.jpg,pics/stapler07.jpg,pics/siamesecat.jpg,pics/ball02.jpg,pics/pictureframe04.jpg,pics/mummy.jpg,blankImage,blankImage,blankImage,blankImage,blankImage,blankImage,blankImage,tree,1,,,,,,,,,,,,,,,,,,,,,,,,,,,,,,,,,,,,,,,,,,,,,,,,,,,,,,,,,,,,,,,,,,,,,,,,,,,,,,,,,,,,,,,,,,,,,,,,,,,,
,,,,,5f0bb0a18bf36931d16e58cc,6682b41eeb79ab8215dff63d,6682ba745525b47afe887ad4,31,Female,English,2024-07-01_15h19.17.004,ABmemTask3,2023.2.3,Win32,59.88023952,,,,,,,,,,,,,,,,,,,,,,,,,,,,,,,75.9091,76.9098,76.9099,14,77.4102,79.9761,0.0021,80.21,0.2321,0.2334,0.2332,0.2331,0.2334,0.2334,0.2326,0.2338,0.2335,0.2328,0.2326,80.2101,82.0594,right,1.827,,82.0595,83.0593,right,0.9901,,-6,0,6,83.0594,84.059,0,2,2,2,1,prac_AB,L1_T1A_T2P,1,0,1,7,8,6,4,12,grapes,Did you see the grapes,0.23,0,resources/,pics/sailboat.jpg,pics/butterfly.jpg,pics/giraffe.jpg,pics/spoon01.jpg,pics/hose.jpg,pics/nutcracker01.jpg,pics/table01.jpg,pics/stapler13.jpg,pics/pencil01.jpg,pics/football.jpg,pics/triangle.jpg,pics/hairdryer02a.jpg,blankImage,blankImage,blankImage,blankImage,blankImage,grape01,6,,,,,,,,,,,,,,,,,,,,,,,,,,,,,,,,,,,,,,,,,,,,,,,,,,,,,,,,,,,,,,,,,,,,,,,,,,,,,,,,,,,,,,,,,,,,,,,,,,,,
,,,,,5f0bb0a18bf36931d16e58cc,6682b41eeb79ab8215dff63d,6682ba745525b47afe887ad4,31,Female,English,2024-07-01_15h19.17.004,ABmemTask3,2023.2.3,Win32,59.88023952,,,,,,,,,,,,,,,,,,,,,,,,,,,,,,,84.0782,85.0761,85.0764,13,85.5746,88.6102,0.0035,88.826,0.2154,0.2179,0.2152,0.2169,0.2168,0.2163,0.2175,0.2165,0.2208,0.2124,0.2168,88.8262,90.1591,right,1.3019,,90.1595,91.6426,right,1.4564,,-4,0,8,91.6432,92.642,0,3,3,3,1,prac_AB,L5_T1P_T2P,5,1,1,7,12,6,3,15,Human skull,Did you see the Human skull,0.22,0,resources/,pics/peach01.jpg,pics/proboscismonkey.jpg,pics/hose.jpg,pics/laptop01a.jpg,pics/hammerheadshark.jpg,pics/nutcracker01.jpg,pics/humanskull.jpg,pics/table01.jpg,pics/icecube01.jpg,pics/boot02b.jpg,pics/calendar.jpg,pics/stapler03a.jpg,pics/ashtray01.jpg,pics/giraffe.jpg,pics/dromedary.jpg,blankImage,blankImage,humanskull,12,0.2166,0.2168,0.2165,,,,,,,,,,,,,,,,,,,,,,,,,,,,,,,,,,,,,,,,,,,,,,,,,,,,,,,,,,,,,,,,,,,,,,,,,,,,,,,,,,,,,,,,,,,,,,,,,
,,,,,5f0bb0a18bf36931d16e58cc,6682b41eeb79ab8215dff63d,6682ba745525b47afe887ad4,31,Female,English,2024-07-01_15h19.17.004,ABmemTask3,2023.2.3,Win32,59.88023952,,,,,,,,,,,,,,,,,,,,,,,,,,,,,,,92.6679,93.6575,93.6576,13,94.1576,96.3245,0.0021,96.5411,0.2156,0.2164,0.2169,0.2166,0.2165,0.2162,0.2169,0.2171,0.2156,0.2173,,96.5412,98.7905,right,2.2298,,98.7907,99.2405,left,0.4379,,-8,0,10,99.2405,100.2404,0,4,4,4,1,prac_AB,L1_T1A_T2P,1,0,1,7,8,6,3,11,dog,Did you see the dog,0.21,0,resources/,pics/ball02.jpg,pics/binder03b.jpg,pics/dromedary.jpg,pics/shipinabottle.jpg,pics/proboscismonkey.jpg,pics/laptop01a.jpg,pics/chainsaw.jpg,pics/stapler13.jpg,pics/nutcracker01.jpg,pics/carrot01.jpg,pics/calendar.jpg,blankImage,blankImage,blankImage,blankImage,blankImage,blankImage,saintbernard,7,,,,,,,,,,,,,,,,,,,,,,,,,,,,,,,,,,,,,,,,,,,,,,,,,,,,,,,,,,,,,,,,,,,,,,,,,,,,,,,,,,,,,,,,,,,,,,,,,,,,
,,,,,5f0bb0a18bf36931d16e58cc,6682b41eeb79ab8215dff63d,6682ba745525b47afe887ad4,31,Female,English,2024-07-01_15h19.17.004,ABmemTask3,2023.2.3,Win32,59.88023952,,,,,,,,,,,,,,,,,,,,,,,,,,,,,,,100.2615,101.2575,101.2577,12,101.7457,104.5419,0.0024,104.7404,0.1946,0.1998,0.2003,0.2,0.1998,0.1998,0.2014,0.2027,0.1961,0.1998,0.1991,104.7406,106.0575,left,1.287,,106.0577,106.4403,left,0.3742,,-10,0,12,106.4406,107.4401,0,5,5,5,1,prac_AB,L5_T1P_T2P,5,1,1,5,10,4,5,15,grater,Did you see the grater,0.2,0,resources/,pics/pencil01.jpg,pics/laptop01a.jpg,pics/hammerheadshark.jpg,pics/cork02.jpg,pics/grater01a.jpg,pics/shipinabottle.jpg,pics/binder03b.jpg,pics/dromedary.jpg,pics/pictureframe04.jpg,pics/stapler04b.jpg,pics/fanblades.jpg,pics/aquarium.jpg,pics/hairdryer02a.jpg,pics/lightswitch01.jpg,pics/piggybank.jpg,blankImage,blankImage,grater01a,11,0.2003,0.2003,0.2004,,,,,,,,,,,,,,,,,,,,,,,,,,,,,,,,,,,,,,,,,,,,,,,,,,,,,,,,,,,,,,,,,,,,,,,,,,,,,,,,,,,,,,,,,,,,,,,,,
,,,,,5f0bb0a18bf36931d16e58cc,6682b41eeb79ab8215dff63d,6682ba745525b47afe887ad4,31,Female,English,2024-07-01_15h19.17.004,ABmemTask3,2023.2.3,Win32,59.88023952,,,,,,,,,,,,,,,,,,,,,,,,,,,,,,,107.4658,108.4562,108.4563,11,108.9559,110.4232,0.0021,110.6057,0.1823,0.1831,0.184,0.1831,0.1831,0.183,0.1825,0.1845,,,,110.6058,111.8396,right,1.2162,,111.8398,112.6557,right,0.8071,,-12,0,14,112.6558,113.6549,0,6,6,6,1,prac_AB,L1_T1P_T2A,1,1,0,4,5,3,4,9,chalk,Did you see the chalk,0.19,0,resources/,pics/necklace.jpg,pics/starfish01.jpg,pics/safetypin.jpg,pics/chalk.jpg,pics/candleholder01.jpg,pics/bowtie.jpg,pics/match.jpg,pics/candle01.jpg,pics/pencilsharpener02a.jpg,blankImage,blankImage,blankImage,blankImage,blankImage,blankImage,blankImage,blankImage,chalk,9,,,,,,,,,,,,,,,,,,,,,,,,,,,,,,,,,,,,,,,,,,,,,,,,,,,,,,,,,,,,,,,,,,,,,,,,,,,,,,,,,,,,,,,,,,,,,,,,,,,,
,,,,,5f0bb0a18bf36931d16e58cc,6682b41eeb79ab8215dff63d,6682ba745525b47afe887ad4,31,Female,English,2024-07-01_15h19.17.004,ABmemTask3,2023.2.3,Win32,59.88023952,,,,,,,,,,,,,,,,,,,,,,,,,,,,,,,113.675,114.6723,114.6725,11,115.1725,116.8233,0.0029,117.0052,0.1862,0.1795,0.1826,0.188,0.1789,0.1832,0.1877,0.1793,0.183,,,117.0055,119.7554,left,2.7249,,119.7557,120.9732,left,1.1917,,-14,0,16,120.9734,121.9706,0,7,7,7,1,prac_AB,L1_T1P_T2P,1,1,1,5,6,4,4,10,pants,Did you see the pants,0.18,0,resources/,pics/kangaroo.jpg,pics/safetypin.jpg,pics/salmon.jpg,pics/sandbarshark.jpg,pics/pants.jpg,pics/stapler03a.jpg,pics/sink.jpg,pics/calendar.jpg,pics/butterfly.jpg,pics/fanblades.jpg,blankImage,blankImage,blankImage,blankImage,blankImage,blankImage,blankImage,pants,2,,,,,,,,,,,,,,,,,,,,,,,,,,,,,,,,,,,,,,,,,,,,,,,,,,,,,,,,,,,,,,,,,,,,,,,,,,,,,,,,,,,,,,,,,,,,,,,,,,,,
,,,,,5f0bb0a18bf36931d16e58cc,6682b41eeb79ab8215dff63d,6682ba745525b47afe887ad4,31,Female,English,2024-07-01_15h19.17.004,ABmemTask3,2023.2.3,Win32,59.88023952,,,,,,,,,,,,,,,,,,,,,,,,,,,,,,,121.9793,122.971,122.9711,10,123.4718,125.8055,0.0031,125.9767,0.1651,0.1666,0.1672,0.1664,0.1667,0.1667,0.1663,0.166,0.167,0.1671,0.1664,125.9769,127.6443,left,1.6517,,127.6444,128.2213,right,0.5535,,-12,0,18,128.2218,129.2207,0,8,8,8,1,prac_AB,L5_T1A_T2P,5,0,1,7,12,6,3,15,shirt,Did you see the shirt,0.17,0,resources/,pics/banjo.jpg,pics/chainsaw.jpg,pics/sailboat.jpg,pics/shipinabottle.jpg,pics/lightswitch01.jpg,pics/starfish01.jpg,pics/hen.jpg,pics/ball02.jpg,pics/bowlingpin.jpg,pics/hammerheadshark.jpg,pics/footballhelmet.jpg,pics/stapler10.jpg,pics/laptop01a.jpg,pics/cannon.jpg,pics/golfball.jpg,blankImage,blankImage,shirt02,13,0.1671,0.1665,0.1663,,,,,,,,,,,,,,,,,,,,,,,,,,,,,,,,,,,,,,,,,,,,,,,,,,,,,,,,,,,,,,,,,,,,,,,,,,,,,,,,,,,,,,,,,,,,,,,,,
,,,,,5f0bb0a18bf36931d16e58cc,6682b41eeb79ab8215dff63d,6682ba745525b47afe887ad4,31,Female,English,2024-07-01_15h19.17.004,ABmemTask3,2023.2.3,Win32,59.88023952,,,,,,,,,,,,,,,,,,,,,,,,,,,,,,,129.249,130.2537,130.2538,10,130.7529,132.4191,0.0016,132.5861,0.1662,0.1665,0.1666,0.1657,0.1679,0.1657,0.1674,0.1663,0.1669,0.1658,,132.5864,134.7529,right,2.1455,,134.7531,135.4689,left,0.6992,,-12,0,20,135.469,136.4685,0,9,9,9,1,prac_AB,L1_T1P_T2P,1,1,1,7,8,6,3,11,tongs,Did you see the tongs,0.16,0,resources/,pics/sewingmachine01a.jpg,pics/shovel01.jpg,pics/football.jpg,pics/hen.jpg,pics/banjo.jpg,pics/zebra.jpg,pics/tongs01b.jpg,pics/stapler11.jpg,pics/shipinabottle.jpg,pics/match.jpg,pics/candle01.jpg,blankImage,blankImage,blankImage,blankImage,blankImage,blankImage,tongs01b,5,,,,,,,,,,,,,,,,,,,,,,,,,,,,,,,,,,,,,,,,,,,,,,,,,,,,,,,,,,,,,,,,,,,,,,,,,,,,,,,,,,,,,,,,,,,,,,,,,,,,
,,,,,5f0bb0a18bf36931d16e58cc,6682b41eeb79ab8215dff63d,6682ba745525b47afe887ad4,31,Female,English,2024-07-01_15h19.17.004,ABmemTask3,2023.2.3,Win32,59.88023952,,,,,,,,,,,,,,,,,,,,,,,,,,,,,,,136.4801,137.4683,137.4684,9,137.969,139.6193,0.0021,139.7689,0.1486,0.1502,0.1501,0.1498,0.1499,0.1504,0.1499,0.1497,0.1499,0.1496,0.1506,139.769,141.002,left,1.2175,,141.0021,141.752,left,0.7405,,-10,0,22,141.7521,142.7516,0,10,10,10,1,prac_AB,L1_T1A_T2A,1,0,0,7,8,6,4,12,camera,Did you see the camera,0.15,0,resources/,pics/lightswitch01.jpg,pics/table01.jpg,pics/aquarium.jpg,pics/boot02b.jpg,pics/butterfly.jpg,pics/chainsaw.jpg,pics/binoculars01b.jpg,pics/giraffe.jpg,pics/triangle.jpg,pics/microscope.jpg,pics/mummy.jpg,pics/icecube01.jpg,blankImage,blankImage,blankImage,blankImage,blankImage,camera01a,10,,,,,,,,,,,,,,,,,,,,,,,,,,,,,,,,,,,,,,,,,,,,,,,,,,,,,,,,,,,,,,,,,,,,,,,,,,,,,,,,,,,,,,,,,,,,,,,,,,,,
,,,,,5f0bb0a18bf36931d16e58cc,6682b41eeb79ab8215dff63d,6682ba745525b47afe887ad4,31,Female,English,2024-07-01_15h19.17.004,ABmemTask3,2023.2.3,Win32,59.88023952,,,,,,,,,,,,,,,,,,,,,,,,,,,,,,,142.7734,143.7687,143.7687,8,144.2681,145.4696,0.002,145.6011,0.1334,0.133,0.1339,0.1336,0.1331,0.1326,0.1337,0.1386,0.1282,,,145.6013,148.1019,right,2.4692,,148.1023,148.435,right,0.307,,-8,0,24,148.4354,149.4347,0,11,11,11,1,prac_AB,L1_T1P_T2P,1,1,1,6,7,5,3,10,shorts,Did you see the shorts,0.14,0,resources/,pics/snowshoe.jpg,pics/chainsaw.jpg,pics/sailboat.jpg,pics/ball02.jpg,pics/candleholder01.jpg,pics/shorts01.jpg,pics/stapler07.jpg,pics/peach01.jpg,pics/proboscismonkey.jpg,pics/hen.jpg,blankImage,blankImage,blankImage,blankImage,blankImage,blankImage,blankImage,shorts01,4,,,,,,,,,,,,,,,,,,,,,,,,,,,,,,,,,,,,,,,,,,,,,,,,,,,,,,,,,,,,,,,,,,,,,,,,,,,,,,,,,,,,,,,,,,,,,,,,,,,,
,,,,,5f0bb0a18bf36931d16e58cc,6682b41eeb79ab8215dff63d,6682ba745525b47afe887ad4,31,Female,English,2024-07-01_15h19.17.004,ABmemTask3,2023.2.3,Win32,59.88023952,,,,,,,,,,,,,,,,,,,,,,,,,,,,,,,149.4611,150.4506,150.4507,8,150.9505,152.5505,0.0018,152.6835,0.1322,0.1337,0.1333,0.1331,0.1322,0.1345,0.133,0.1337,0.1321,0.1349,0.1331,152.6836,155.4501,right,2.7471,,155.4503,155.7667,right,0.3031,,-10,0,26,155.7668,156.7665,0,12,12,12,1,prac_AB,L5_T1P_T2A,5,1,0,5,10,4,3,13,fish,Did you see the fish,0.13,0,resources/,pics/football.jpg,pics/safetypin.jpg,pics/shovel01.jpg,pics/sink.jpg,pics/holdfast.jpg,pics/nutcracker01.jpg,pics/starfish01.jpg,pics/onion.jpg,pics/footballhelmet.jpg,pics/boot02b.jpg,pics/sewingmachine01a.jpg,pics/kangaroo.jpg,pics/banjo.jpg,blankImage,blankImage,blankImage,blankImage,holdfast,14,0.1328,,,,,,,,,,,,,,,,,,,,,,,,,,,,,,,,,,,,,,,,,,,,,,,,,,,,,,,,,,,,,,,,,,,,,,,,,,,,,,,,,,,,,,,,,,,,,,,,,,,
,,,,,5f0bb0a18bf36931d16e58cc,6682b41eeb79ab8215dff63d,6682ba745525b47afe887ad4,31,Female,English,2024-07-01_15h19.17.004,ABmemTask3,2023.2.3,Win32,59.88023952,,,,,,,,,,,,,,,,,,,,,,,,,,,,,,,156.7892,157.7836,157.7836,7,158.2834,159.3348,0.0027,159.45,0.1202,0.1167,0.113,0.1159,0.1175,0.1163,0.1163,0.1167,0.1164,,,159.4502,161.0733,right,1.617,,161.0734,161.4339,left,0.3435,,-10,0,28,161.4341,162.4329,0,13,13,13,1,prac_AB,L1_T1P_T2P,1,1,1,5,6,4,4,10,fish,Did you see the fish,0.12,0,resources/,pics/butterfly.jpg,pics/banjo.jpg,pics/leaf02a.jpg,pics/dustpan.jpg,pics/sturgeon.jpg,pics/stapler02.jpg,pics/necklace.jpg,pics/shovel01.jpg,pics/starfish01.jpg,pics/chainsaw.jpg,blankImage,blankImage,blankImage,blankImage,blankImage,blankImage,blankImage,sturgeon,3,,,,,,,,,,,,,,,,,,,,,,,,,,,,,,,,,,,,,,,,,,,,,,,,,,,,,,,,,,,,,,,,,,,,,,,,,,,,,,,,,,,,,,,,,,,,,,,,,,,,
,,,,,5f0bb0a18bf36931d16e58cc,6682b41eeb79ab8215dff63d,6682ba745525b47afe887ad4,31,Female,English,2024-07-01_15h19.17.004,ABmemTask3,2023.2.3,Win32,59.88023952,,,,,,,,,,,,,,,,,,,,,,,,,,,,,,,,,,,,,,,,,,,,,,,,,,,,,,,,,,,,,,,,,,,,,,,,,,,,,,,,,,,,,,,,,,,,,,,,,,,,,,,,,,,162.4361,170.0499,space,7.5802,,,,,,,,,,,,,,,,,,,,,,,,,,,,,,,,,,,,,,,,,,,,,,,,,,,,,,,,,,,,,,,,,,,,,,,,,,,,,,,,,,,,,,,,,,,,,
,,,,,5f0bb0a18bf36931d16e58cc,6682b41eeb79ab8215dff63d,6682ba745525b47afe887ad4,31,Female,English,2024-07-01_15h19.17.004,ABmemTask3,2023.2.3,Win32,59.88023952,,,,,,,,,,,,,,,,,,,,,,,,,,,,,,,170.0733,171.0644,171.0645,15,171.5636,174.3145,0.0009,174.5631,0.2494,0.2509,0.2501,0.2499,0.2494,0.2516,0.2491,0.2489,0.2502,0.251,0.2498,174.5631,175.2305,right,0.6522,,175.2305,175.6132,left,0.3665,,2,0,2,175.6133,176.6137,0,0,0,0,1,prac_AB,L1_T1P_T2A,1,1,0,6,7,5,5,12,cat,Did you see the cat,0.25,0,resources/,pics/shipinabottle.jpg,pics/table01.jpg,pics/dustpan.jpg,pics/golfball.jpg,pics/giraffe.jpg,pics/cat.jpg,pics/peanut01.jpg,pics/pictureframe04.jpg,pics/fanblades.jpg,pics/laptop01a.jpg,pics/ball02.jpg,pics/blender.jpg,blankImage,blankImage,blankImage,blankImage,blankImage,cat,8,,,,,,,,,,,,,,,,,,,,,,,,,,,,,,,,,,,,,,,,,,,,,,,,,,,,,,,,,,,,,,,,,,,,,,,,,,,,,,,,,,,,,,,,,,,,,,,,,,,,
,,,,,5f0bb0a18bf36931d16e58cc,6682b41eeb79ab8215dff63d,6682ba745525b47afe887ad4,31,Female,English,2024-07-01_15h19.17.004,ABmemTask3,2023.2.3,Win32,59.88023952,,,,,,,,,,,,,,,,,,,,,,,,,,,,,,,176.6145,177.6143,177.6143,14,178.1128,180.2135,0.0009,180.4466,0.2347,0.2329,0.2324,0.2344,0.2333,0.233,0.2337,0.2328,0.2331,,,180.4467,181.4967,left,1.0361,,181.4968,183.4471,right,1.9432,,2,0,4,183.4472,184.4465,0,1,1,1,1,prac_AB,L1_T1P_T2P,1,1,1,5,6,4,4,10,tree,Did you see the tree,0.24,0,resources/,pics/carrot01.jpg,pics/hammerheadshark.jpg,pics/kangaroo.jpg,pics/proboscismonkey.jpg,pics/tree.jpg,pics/stapler07.jpg,pics/siamesecat.jpg,pics/ball02.jpg,pics/pictureframe04.jpg,pics/mummy.jpg,blankImage,blankImage,blankImage,blankImage,blankImage,blankImage,blankImage,tree,1,,,,,,,,,,,,,,,,,,,,,,,,,,,,,,,,,,,,,,,,,,,,,,,,,,,,,,,,,,,,,,,,,,,,,,,,,,,,,,,,,,,,,,,,,,,,,,,,,,,,
,,,,,5f0bb0a18bf36931d16e58cc,6682b41eeb79ab8215dff63d,6682ba745525b47afe887ad4,31,Female,English,2024-07-01_15h19.17.004,ABmemTask3,2023.2.3,Win32,59.88023952,,,,,,,,,,,,,,,,,,,,,,,,,,,,,,,184.4699,185.4635,185.4635,14,185.9621,188.5288,0.0026,188.7626,0.232,0.2334,0.2338,0.2328,0.2337,0.2328,0.2344,0.2321,0.2348,0.2334,0.2316,188.7627,190.3639,left,1.5696,,190.364,191.0494,left,0.6652,,2,0,6,191.0496,192.0455,0,2,2,2,1,prac_AB,L1_T1A_T2P,1,0,1,7,8,6,4,12,grapes,Did you see the grapes,0.23,0,resources/,pics/sailboat.jpg,pics/butterfly.jpg,pics/giraffe.jpg,pics/spoon01.jpg,pics/hose.jpg,pics/nutcracker01.jpg,pics/table01.jpg,pics/stapler13.jpg,pics/pencil01.jpg,pics/football.jpg,pics/triangle.jpg,pics/hairdryer02a.jpg,blankImage,blankImage,blankImage,blankImage,blankImage,grape01,6,,,,,,,,,,,,,,,,,,,,,,,,,,,,,,,,,,,,,,,,,,,,,,,,,,,,,,,,,,,,,,,,,,,,,,,,,,,,,,,,,,,,,,,,,,,,,,,,,,,,
,,,,,5f0bb0a18bf36931d16e58cc,6682b41eeb79ab8215dff63d,6682ba745525b47afe887ad4,31,Female,English,2024-07-01_15h19.17.004,ABmemTask3,2023.2.3,Win32,59.88023952,,,,,,,,,,,,,,,,,,,,,,,,,,,,,,,192.0472,193.0454,193.0455,13,193.5452,196.5793,0.0022,196.795,0.2162,0.216,0.2164,0.217,0.2166,0.2165,0.2161,0.218,0.2164,0.2173,0.2162,196.7952,198.4131,right,1.5868,,198.4133,198.9187,right,0.4985,,4,0,8,198.9189,199.9117,0,3,3,3,1,prac_AB,L5_T1P_T2P,5,1,1,7,12,6,3,15,Human skull,Did you see the Human skull,0.22,0,resources/,pics/peach01.jpg,pics/proboscismonkey.jpg,pics/hose.jpg,pics/laptop01a.jpg,pics/hammerheadshark.jpg,pics/nutcracker01.jpg,pics/humanskull.jpg,pics/table01.jpg,pics/icecube01.jpg,pics/boot02b.jpg,pics/calendar.jpg,pics/stapler03a.jpg,pics/ashtray01.jpg,pics/giraffe.jpg,pics/dromedary.jpg,blankImage,blankImage,humanskull,12,0.2166,0.2167,0.2164,,,,,,,,,,,,,,,,,,,,,,,,,,,,,,,,,,,,,,,,,,,,,,,,,,,,,,,,,,,,,,,,,,,,,,,,,,,,,,,,,,,,,,,,,,,,,,,,,
,,,,,5f0bb0a18bf36931d16e58cc,6682b41eeb79ab8215dff63d,6682ba745525b47afe887ad4,31,Female,English,2024-07-01_15h19.17.004,ABmemTask3,2023.2.3,Win32,59.88023952,,,,,,,,,,,,,,,,,,,,,,,,,,,,,,,199.9132,200.9116,200.9118,13,201.4113,203.579,0.0031,203.7943,0.2202,0.2118,0.2163,0.217,0.217,0.2208,0.2126,0.2208,0.2123,0.2166,,203.7944,205.3459,left,1.5218,,205.3461,205.7614,right,0.3913,,6,0,10,205.7616,206.7608,0,4,4,4,1,prac_AB,L1_T1A_T2P,1,0,1,7,8,6,3,11,dog,Did you see the dog,0.21,0,resources/,pics/ball02.jpg,pics/binder03b.jpg,pics/dromedary.jpg,pics/shipinabottle.jpg,pics/proboscismonkey.jpg,pics/laptop01a.jpg,pics/chainsaw.jpg,pics/stapler13.jpg,pics/nutcracker01.jpg,pics/carrot01.jpg,pics/calendar.jpg,blankImage,blankImage,blankImage,blankImage,blankImage,blankImage,saintbernard,7,,,,,,,,,,,,,,,,,,,,,,,,,,,,,,,,,,,,,,,,,,,,,,,,,,,,,,,,,,,,,,,,,,,,,,,,,,,,,,,,,,,,,,,,,,,,,,,,,,,,
,,,,,5f0bb0a18bf36931d16e58cc,6682b41eeb79ab8215dff63d,6682ba745525b47afe887ad4,31,Female,English,2024-07-01_15h19.17.004,ABmemTask3,2023.2.3,Win32,59.88023952,,,,,,,,,,,,,,,,,,,,,,,,,,,,,,,206.7879,207.7763,207.7764,12,208.2767,211.0767,0.0019,211.2761,0.1983,0.2005,0.1999,0.2001,0.2011,0.1994,0.1995,0.2001,0.1998,0.1996,0.2005,211.2763,211.7928,right,0.4966,,211.7929,212.0928,right,0.2815,,8,0,12,212.0929,213.0926,0,5,5,5,1,prac_AB,L5_T1P_T2P,5,1,1,5,10,4,5,15,grater,Did you see the grater,0.2,0,resources/,pics/pencil01.jpg,pics/laptop01a.jpg,pics/hammerheadshark.jpg,pics/cork02.jpg,pics/grater01a.jpg,pics/shipinabottle.jpg,pics/binder03b.jpg,pics/dromedary.jpg,pics/pictureframe04.jpg,pics/stapler04b.jpg,pics/fanblades.jpg,pics/aquarium.jpg,pics/hairdryer02a.jpg,pics/lightswitch01.jpg,pics/piggybank.jpg,blankImage,blankImage,grater01a,11,0.2002,0.1994,0.2001,,,,,,,,,,,,,,,,,,,,,,,,,,,,,,,,,,,,,,,,,,,,,,,,,,,,,,,,,,,,,,,,,,,,,,,,,,,,,,,,,,,,,,,,,,,,,,,,,
,,,,,5f0bb0a18bf36931d16e58cc,6682b41eeb79ab8215dff63d,6682ba745525b47afe887ad4,31,Female,English,2024-07-01_15h19.17.004,ABmemTask3,2023.2.3,Win32,59.88023952,,,,,,,,,,,,,,,,,,,,,,,,,,,,,,,213.0935,214.0923,214.0924,11,214.5927,216.0604,0.0019,216.2415,0.182,0.1823,0.1847,0.1832,0.1834,0.1833,0.1831,0.1841,,,,216.2415,217.6585,right,1.3969,,217.6586,218.2082,left,0.533,,10,0,14,218.2083,219.2078,0,6,6,6,1,prac_AB,L1_T1P_T2A,1,1,0,4,5,3,4,9,chalk,Did you see the chalk,0.19,0,resources/,pics/necklace.jpg,pics/starfish01.jpg,pics/safetypin.jpg,pics/chalk.jpg,pics/candleholder01.jpg,pics/bowtie.jpg,pics/match.jpg,pics/candle01.jpg,pics/pencilsharpener02a.jpg,blankImage,blankImage,blankImage,blankImage,blankImage,blankImage,blankImage,blankImage,chalk,9,,,,,,,,,,,,,,,,,,,,,,,,,,,,,,,,,,,,,,,,,,,,,,,,,,,,,,,,,,,,,,,,,,,,,,,,,,,,,,,,,,,,,,,,,,,,,,,,,,,,
,,,,,5f0bb0a18bf36931d16e58cc,6682b41eeb79ab8215dff63d,6682ba745525b47afe887ad4,31,Female,English,2024-07-01_15h19.17.004,ABmemTask3,2023.2.3,Win32,59.88023952,,,,,,,,,,,,,,,,,,,,,,,,,,,,,,,219.2183,220.2077,220.2077,11,220.7078,222.3585,0.001,222.5415,0.1838,0.1835,0.1816,0.1831,0.1846,0.1837,0.1829,0.1836,0.1832,,,222.5416,223.175,right,0.6109,,223.1751,223.6081,right,0.419,,12,0,16,223.6082,224.6079,0,7,7,7,1,prac_AB,L1_T1P_T2P,1,1,1,5,6,4,4,10,pants,Did you see the pants,0.18,0,resources/,pics/kangaroo.jpg,pics/safetypin.jpg,pics/salmon.jpg,pics/sandbarshark.jpg,pics/pants.jpg,pics/stapler03a.jpg,pics/sink.jpg,pics/calendar.jpg,pics/butterfly.jpg,pics/fanblades.jpg,blankImage,blankImage,blankImage,blankImage,blankImage,blankImage,blankImage,pants,2,,,,,,,,,,,,,,,,,,,,,,,,,,,,,,,,,,,,,,,,,,,,,,,,,,,,,,,,,,,,,,,,,,,,,,,,,,,,,,,,,,,,,,,,,,,,,,,,,,,,
,,,,,5f0bb0a18bf36931d16e58cc,6682b41eeb79ab8215dff63d,6682ba745525b47afe887ad4,31,Female,English,2024-07-01_15h19.17.004,ABmemTask3,2023.2.3,Win32,59.88023952,,,,,,,,,,,,,,,,,,,,,,,,,,,,,,,224.6088,225.6071,225.6072,10,226.1076,228.441,0.002,228.607,0.1645,0.1677,0.1666,0.1669,0.1675,0.1654,0.1661,0.1671,0.167,0.1661,0.1673,228.6072,230.2404,left,1.6102,,230.2405,230.9231,right,0.6725,,14,0,18,230.9231,231.9225,0,8,8,8,1,prac_AB,L5_T1A_T2P,5,0,1,7,12,6,3,15,shirt,Did you see the shirt,0.17,0,resources/,pics/banjo.jpg,pics/chainsaw.jpg,pics/sailboat.jpg,pics/shipinabottle.jpg,pics/lightswitch01.jpg,pics/starfish01.jpg,pics/hen.jpg,pics/ball02.jpg,pics/bowlingpin.jpg,pics/hammerheadshark.jpg,pics/footballhelmet.jpg,pics/stapler10.jpg,pics/laptop01a.jpg,pics/cannon.jpg,pics/golfball.jpg,blankImage,blankImage,shirt02,13,0.1663,0.1662,0.1671,,,,,,,,,,,,,,,,,,,,,,,,,,,,,,,,,,,,,,,,,,,,,,,,,,,,,,,,,,,,,,,,,,,,,,,,,,,,,,,,,,,,,,,,,,,,,,,,,
,,,,,5f0bb0a18bf36931d16e58cc,6682b41eeb79ab8215dff63d,6682ba745525b47afe887ad4,31,Female,English,2024-07-01_15h19.17.004,ABmemTask3,2023.2.3,Win32,59.88023952,,,,,,,,,,,,,,,,,,,,,,,,,,,,,,,231.9228,232.923,232.9231,10,233.4232,235.0901,0.0021,235.256,0.166,0.1664,0.1665,0.1671,0.1662,0.1668,0.1664,0.1666,0.1665,0.1667,,235.2561,236.9565,right,1.6832,,236.9566,237.323,left,0.3484,,14,0,20,237.3231,238.3227,0,9,9,9,1,prac_AB,L1_T1P_T2P,1,1,1,7,8,6,3,11,tongs,Did you see the tongs,0.16,0,resources/,pics/sewingmachine01a.jpg,pics/shovel01.jpg,pics/football.jpg,pics/hen.jpg,pics/banjo.jpg,pics/zebra.jpg,pics/tongs01b.jpg,pics/stapler11.jpg,pics/shipinabottle.jpg,pics/match.jpg,pics/candle01.jpg,blankImage,blankImage,blankImage,blankImage,blankImage,blankImage,tongs01b,5,,,,,,,,,,,,,,,,,,,,,,,,,,,,,,,,,,,,,,,,,,,,,,,,,,,,,,,,,,,,,,,,,,,,,,,,,,,,,,,,,,,,,,,,,,,,,,,,,,,,
,,,,,5f0bb0a18bf36931d16e58cc,6682b41eeb79ab8215dff63d,6682ba745525b47afe887ad4,31,Female,English,2024-07-01_15h19.17.004,ABmemTask3,2023.2.3,Win32,59.88023952,,,,,,,,,,,,,,,,,,,,,,,,,,,,,,,238.3455,239.3398,239.34,9,239.8393,241.4905,0.0028,241.6424,0.1498,0.1497,0.15,0.1497,0.1503,0.1497,0.1544,0.1458,0.1496,0.1503,0.1497,241.6426,243.0062,right,1.3379,,243.0064,243.7955,left,0.7819,,12,0,22,243.7957,244.7892,0,10,10,10,1,prac_AB,L1_T1A_T2A,1,0,0,7,8,6,4,12,camera,Did you see the camera,0.15,0,resources/,pics/lightswitch01.jpg,pics/table01.jpg,pics/aquarium.jpg,pics/boot02b.jpg,pics/butterfly.jpg,pics/chainsaw.jpg,pics/binoculars01b.jpg,pics/giraffe.jpg,pics/triangle.jpg,pics/microscope.jpg,pics/mummy.jpg,pics/icecube01.jpg,blankImage,blankImage,blankImage,blankImage,blankImage,camera01a,10,,,,,,,,,,,,,,,,,,,,,,,,,,,,,,,,,,,,,,,,,,,,,,,,,,,,,,,,,,,,,,,,,,,,,,,,,,,,,,,,,,,,,,,,,,,,,,,,,,,,
,,,,,5f0bb0a18bf36931d16e58cc,6682b41eeb79ab8215dff63d,6682ba745525b47afe887ad4,31,Female,English,2024-07-01_15h19.17.004,ABmemTask3,2023.2.3,Win32,59.88023952,,,,,,,,,,,,,,,,,,,,,,,,,,,,,,,244.8151,245.8046,245.8046,8,246.3043,247.5045,0.0012,247.6381,0.1331,0.134,0.1335,0.1328,0.1337,0.1332,0.1336,0.1332,0.132,,,247.6382,248.8545,right,1.2001,,248.8547,249.1383,right,0.2695,,14,0,24,249.1383,250.1379,0,11,11,11,1,prac_AB,L1_T1P_T2P,1,1,1,6,7,5,3,10,shorts,Did you see the shorts,0.14,0,resources/,pics/snowshoe.jpg,pics/chainsaw.jpg,pics/sailboat.jpg,pics/ball02.jpg,pics/candleholder01.jpg,pics/shorts01.jpg,pics/stapler07.jpg,pics/peach01.jpg,pics/proboscismonkey.jpg,pics/hen.jpg,blankImage,blankImage,blankImage,blankImage,blankImage,blankImage,blankImage,shorts01,4,,,,,,,,,,,,,,,,,,,,,,,,,,,,,,,,,,,,,,,,,,,,,,,,,,,,,,,,,,,,,,,,,,,,,,,,,,,,,,,,,,,,,,,,,,,,,,,,,,,,
,,,,,5f0bb0a18bf36931d16e58cc,6682b41eeb79ab8215dff63d,6682ba745525b47afe887ad4,31,Female,English,2024-07-01_15h19.17.004,ABmemTask3,2023.2.3,Win32,59.88023952,,,,,,,,,,,,,,,,,,,,,,,,,,,,,,,250.1623,251.1542,251.1543,8,251.6544,253.2549,0.0021,253.3876,0.1325,0.133,0.1335,0.1327,0.1336,0.1338,0.1335,0.1337,0.1327,0.1335,0.1335,253.3878,254.2379,right,0.8271,,254.2381,254.5039,left,0.256,,16,0,26,254.5041,255.5035,0,12,12,12,1,prac_AB,L5_T1P_T2A,5,1,0,5,10,4,3,13,fish,Did you see the fish,0.13,0,resources/,pics/football.jpg,pics/safetypin.jpg,pics/shovel01.jpg,pics/sink.jpg,pics/holdfast.jpg,pics/nutcracker01.jpg,pics/starfish01.jpg,pics/onion.jpg,pics/footballhelmet.jpg,pics/boot02b.jpg,pics/sewingmachine01a.jpg,pics/kangaroo.jpg,pics/banjo.jpg,blankImage,blankImage,blankImage,blankImage,holdfast,14,0.1326,,,,,,,,,,,,,,,,,,,,,,,,,,,,,,,,,,,,,,,,,,,,,,,,,,,,,,,,,,,,,,,,,,,,,,,,,,,,,,,,,,,,,,,,,,,,,,,,,,,
,,,,,5f0bb0a18bf36931d16e58cc,6682b41eeb79ab8215dff63d,6682ba745525b47afe887ad4,31,Female,English,2024-07-01_15h19.17.004,ABmemTask3,2023.2.3,Win32,59.88023952,,,,,,,,,,,,,,,,,,,,,,,,,,,,,,,255.5043,256.5038,256.5038,7,257.0041,258.0545,0.0019,258.1703,0.1158,0.1164,0.117,0.1164,0.1153,0.1178,0.1156,0.1178,0.1169,,,258.1704,258.8866,right,0.7002,,258.8867,259.1711,right,0.269,,18,0,28,259.1712,260.1699,0,13,13,13,1,prac_AB,L1_T1P_T2P,1,1,1,5,6,4,4,10,fish,Did you see the fish,0.12,0,resources/,pics/butterfly.jpg,pics/banjo.jpg,pics/leaf02a.jpg,pics/dustpan.jpg,pics/sturgeon.jpg,pics/stapler02.jpg,pics/necklace.jpg,pics/shovel01.jpg,pics/starfish01.jpg,pics/chainsaw.jpg,blankImage,blankImage,blankImage,blankImage,blankImage,blankImage,blankImage,sturgeon,3,,,,,,,,,,,,,,,,,,,,,,,,,,,,,,,,,,,,,,,,,,,,,,,,,,,,,,,,,,,,,,,,,,,,,,,,,,,,,,,,,,,,,,,,,,,,,,,,,,,,
,,,,,5f0bb0a18bf36931d16e58cc,6682b41eeb79ab8215dff63d,6682ba745525b47afe887ad4,31,Female,English,2024-07-01_15h19.17.004,ABmemTask3,2023.2.3,Win32,59.88023952,,,,,,,,,,,,,,,,,,,,,,,,,,,,,,,,,,,,,,,,,,,,,,,,,,,,,,,,,,,,,,,,,,,,,,,,,,,,,,,,,,,,,,,,,,,,,,,,,,,,,,,,,,,260.1701,266.1196,space,5.9172,,,,,,,,,,,,,,,,,,,,,,,,,,,,,,,,,,,,,,,,,,,,,,,,,,,,,,,,,,,,,,,,,,,,,,,,,,,,,,,,,,,,,,,,,,,,,
,,,,,5f0bb0a18bf36931d16e58cc,6682b41eeb79ab8215dff63d,6682ba745525b47afe887ad4,31,Female,English,2024-07-01_15h19.17.004,ABmemTask3,2023.2.3,Win32,59.88023952,,,,,,,,,,,,,,,,,,,,,,,,,,,,,,,266.1472,267.1515,267.1516,15,267.6518,270.4026,0.0007,270.6514,0.2506,0.2498,0.2497,0.2494,0.2514,0.2504,0.249,0.2488,0.2511,0.2501,0.2501,270.6514,271.2854,right,0.6184,,271.2855,271.8353,left,0.5359,,2,0,2,271.8354,272.8347,0,0,0,0,1,prac_AB,L1_T1P_T2A,1,1,0,6,7,5,5,12,cat,Did you see the cat,0.25,0,resources/,pics/shipinabottle.jpg,pics/table01.jpg,pics/dustpan.jpg,pics/golfball.jpg,pics/giraffe.jpg,pics/cat.jpg,pics/peanut01.jpg,pics/pictureframe04.jpg,pics/fanblades.jpg,pics/laptop01a.jpg,pics/ball02.jpg,pics/blender.jpg,blankImage,blankImage,blankImage,blankImage,blankImage,cat,8,,,,,,,,,,,,,,,,,,,,,,,,,,,,,,,,,,,,,,,,,,,,,,,,,,,,,,,,,,,,,,,,,,,,,,,,,,,,,,,,,,,,,,,,,,,,,,,,,,,,
,,,,,5f0bb0a18bf36931d16e58cc,6682b41eeb79ab8215dff63d,6682ba745525b47afe887ad4,31,Female,English,2024-07-01_15h19.17.004,ABmemTask3,2023.2.3,Win32,59.88023952,,,,,,,,,,,,,,,,,,,,,,,,,,,,,,,272.8355,273.8346,273.8347,14,274.3343,276.4348,0.002,276.6672,0.2326,0.2336,0.2319,0.2345,0.2331,0.2325,0.2343,0.2335,0.233,,,276.6673,277.3012,right,0.6188,,277.3013,277.5844,right,0.2699,,4,0,4,277.5845,278.5843,0,1,1,1,1,prac_AB,L1_T1P_T2P,1,1,1,5,6,4,4,10,tree,Did you see the tree,0.24,0,resources/,pics/carrot01.jpg,pics/hammerheadshark.jpg,pics/kangaroo.jpg,pics/proboscismonkey.jpg,pics/tree.jpg,pics/stapler07.jpg,pics/siamesecat.jpg,pics/ball02.jpg,pics/pictureframe04.jpg,pics/mummy.jpg,blankImage,blankImage,blankImage,blankImage,blankImage,blankImage,blankImage,tree,1,,,,,,,,,,,,,,,,,,,,,,,,,,,,,,,,,,,,,,,,,,,,,,,,,,,,,,,,,,,,,,,,,,,,,,,,,,,,,,,,,,,,,,,,,,,,,,,,,,,,
,,,,,5f0bb0a18bf36931d16e58cc,6682b41eeb79ab8215dff63d,6682ba745525b47afe887ad4,31,Female,English,2024-07-01_15h19.17.004,ABmemTask3,2023.2.3,Win32,59.88023952,,,,,,,,,,,,,,,,,,,,,,,,,,,,,,,278.5852,279.5841,279.5841,14,280.0839,282.6508,0.0019,282.8828,0.2325,0.2332,0.2324,0.2349,0.2328,0.2331,0.232,0.235,0.233,0.2334,0.2333,282.8829,283.9002,left,0.9999,,283.9003,284.7664,right,0.8484,,6,0,6,284.7664,285.7661,0,2,2,2,1,prac_AB,L1_T1A_T2P,1,0,1,7,8,6,4,12,grapes,Did you see the grapes,0.23,0,resources/,pics/sailboat.jpg,pics/butterfly.jpg,pics/giraffe.jpg,pics/spoon01.jpg,pics/hose.jpg,pics/nutcracker01.jpg,pics/table01.jpg,pics/stapler13.jpg,pics/pencil01.jpg,pics/football.jpg,pics/triangle.jpg,pics/hairdryer02a.jpg,blankImage,blankImage,blankImage,blankImage,blankImage,grape01,6,,,,,,,,,,,,,,,,,,,,,,,,,,,,,,,,,,,,,,,,,,,,,,,,,,,,,,,,,,,,,,,,,,,,,,,,,,,,,,,,,,,,,,,,,,,,,,,,,,,,
,,,,,5f0bb0a18bf36931d16e58cc,6682b41eeb79ab8215dff63d,6682ba745525b47afe887ad4,31,Female,English,2024-07-01_15h19.17.004,ABmemTask3,2023.2.3,Win32,59.88023952,,,,,,,,,,,,,,,,,,,,,,,,,,,,,,,285.7665,286.7661,286.7661,13,287.2664,290.2999,0.002,290.5162,0.2156,0.2165,0.2167,0.2166,0.2173,0.215,0.2173,0.2171,0.2164,0.217,0.2165,290.5162,290.9827,right,0.4453,,290.9827,291.2495,right,0.2577,,8,0,8,291.2496,292.2482,0,3,3,3,1,prac_AB,L5_T1P_T2P,5,1,1,7,12,6,3,15,Human skull,Did you see the Human skull,0.22,0,resources/,pics/peach01.jpg,pics/proboscismonkey.jpg,pics/hose.jpg,pics/laptop01a.jpg,pics/hammerheadshark.jpg,pics/nutcracker01.jpg,pics/humanskull.jpg,pics/table01.jpg,pics/icecube01.jpg,pics/boot02b.jpg,pics/calendar.jpg,pics/stapler03a.jpg,pics/ashtray01.jpg,pics/giraffe.jpg,pics/dromedary.jpg,blankImage,blankImage,humanskull,12,0.2156,0.2171,0.2171,,,,,,,,,,,,,,,,,,,,,,,,,,,,,,,,,,,,,,,,,,,,,,,,,,,,,,,,,,,,,,,,,,,,,,,,,,,,,,,,,,,,,,,,,,,,,,,,,
,,,,,5f0bb0a18bf36931d16e58cc,6682b41eeb79ab8215dff63d,6682ba745525b47afe887ad4,31,Female,English,2024-07-01_15h19.17.004,ABmemTask3,2023.2.3,Win32,59.88023952,,,,,,,,,,,,,,,,,,,,,,,,,,,,,,,292.2486,293.2487,293.2488,13,293.7502,295.9149,0.0016,296.1316,0.2146,0.2168,0.2167,0.2164,0.2162,0.2171,0.2163,0.2168,0.2167,0.2154,,296.1318,297.2318,left,1.0876,,297.2318,297.582,right,0.3342,,10,0,10,297.5821,298.5817,0,4,4,4,1,prac_AB,L1_T1A_T2P,1,0,1,7,8,6,3,11,dog,Did you see the dog,0.21,0,resources/,pics/ball02.jpg,pics/binder03b.jpg,pics/dromedary.jpg,pics/shipinabottle.jpg,pics/proboscismonkey.jpg,pics/laptop01a.jpg,pics/chainsaw.jpg,pics/stapler13.jpg,pics/nutcracker01.jpg,pics/carrot01.jpg,pics/calendar.jpg,blankImage,blankImage,blankImage,blankImage,blankImage,blankImage,saintbernard,7,,,,,,,,,,,,,,,,,,,,,,,,,,,,,,,,,,,,,,,,,,,,,,,,,,,,,,,,,,,,,,,,,,,,,,,,,,,,,,,,,,,,,,,,,,,,,,,,,,,,
,,,,,5f0bb0a18bf36931d16e58cc,6682b41eeb79ab8215dff63d,6682ba745525b47afe887ad4,31,Female,English,2024-07-01_15h19.17.004,ABmemTask3,2023.2.3,Win32,59.88023952,,,,,,,,,,,,,,,,,,,,,,,,,,,,,,,298.6024,299.5987,299.5988,12,300.0985,302.8993,0.0027,303.0982,0.199,0.2003,0.2,0.1997,0.2,0.2003,0.1998,0.2,0.1992,0.2006,0.1999,303.0984,303.5319,right,0.4072,,303.5321,303.8482,right,0.2933,,12,0,12,303.8484,304.8481,0,5,5,5,1,prac_AB,L5_T1P_T2P,5,1,1,5,10,4,5,15,grater,Did you see the grater,0.2,0,resources/,pics/pencil01.jpg,pics/laptop01a.jpg,pics/hammerheadshark.jpg,pics/cork02.jpg,pics/grater01a.jpg,pics/shipinabottle.jpg,pics/binder03b.jpg,pics/dromedary.jpg,pics/pictureframe04.jpg,pics/stapler04b.jpg,pics/fanblades.jpg,pics/aquarium.jpg,pics/hairdryer02a.jpg,pics/lightswitch01.jpg,pics/piggybank.jpg,blankImage,blankImage,grater01a,11,0.1998,0.204,0.196,,,,,,,,,,,,,,,,,,,,,,,,,,,,,,,,,,,,,,,,,,,,,,,,,,,,,,,,,,,,,,,,,,,,,,,,,,,,,,,,,,,,,,,,,,,,,,,,,
,,,,,5f0bb0a18bf36931d16e58cc,6682b41eeb79ab8215dff63d,6682ba745525b47afe887ad4,31,Female,English,2024-07-01_15h19.17.004,ABmemTask3,2023.2.3,Win32,59.88023952,,,,,,,,,,,,,,,,,,,,,,,,,,,,,,,304.8499,305.8475,305.8476,11,306.3483,307.8154,0.0033,307.997,0.1816,0.187,0.1794,0.1834,0.1879,0.1784,0.1835,0.1831,,,,307.9972,309.3144,right,1.2884,,309.3148,309.5815,left,0.2414,,14,0,14,309.5818,310.5807,0,6,6,6,1,prac_AB,L1_T1P_T2A,1,1,0,4,5,3,4,9,chalk,Did you see the chalk,0.19,0,resources/,pics/necklace.jpg,pics/starfish01.jpg,pics/safetypin.jpg,pics/chalk.jpg,pics/candleholder01.jpg,pics/bowtie.jpg,pics/match.jpg,pics/candle01.jpg,pics/pencilsharpener02a.jpg,blankImage,blankImage,blankImage,blankImage,blankImage,blankImage,blankImage,blankImage,chalk,9,,,,,,,,,,,,,,,,,,,,,,,,,,,,,,,,,,,,,,,,,,,,,,,,,,,,,,,,,,,,,,,,,,,,,,,,,,,,,,,,,,,,,,,,,,,,,,,,,,,,
,,,,,5f0bb0a18bf36931d16e58cc,6682b41eeb79ab8215dff63d,6682ba745525b47afe887ad4,31,Female,English,2024-07-01_15h19.17.004,ABmemTask3,2023.2.3,Win32,59.88023952,,,,,,,,,,,,,,,,,,,,,,,,,,,,,,,310.6062,311.5965,311.5966,11,312.0964,313.7469,0.0019,313.9297,0.1825,0.1835,0.1833,0.183,0.1836,0.1828,0.1834,0.1835,0.1834,,,313.9298,314.3624,right,0.4087,,314.3625,314.5798,right,0.2,,16,0,16,314.5799,315.5791,0,7,7,7,1,prac_AB,L1_T1P_T2P,1,1,1,5,6,4,4,10,pants,Did you see the pants,0.18,0,resources/,pics/kangaroo.jpg,pics/safetypin.jpg,pics/salmon.jpg,pics/sandbarshark.jpg,pics/pants.jpg,pics/stapler03a.jpg,pics/sink.jpg,pics/calendar.jpg,pics/butterfly.jpg,pics/fanblades.jpg,blankImage,blankImage,blankImage,blankImage,blankImage,blankImage,blankImage,pants,2,,,,,,,,,,,,,,,,,,,,,,,,,,,,,,,,,,,,,,,,,,,,,,,,,,,,,,,,,,,,,,,,,,,,,,,,,,,,,,,,,,,,,,,,,,,,,,,,,,,,
,,,,,5f0bb0a18bf36931d16e58cc,6682b41eeb79ab8215dff63d,6682ba745525b47afe887ad4,31,Female,English,2024-07-01_15h19.17.004,ABmemTask3,2023.2.3,Win32,59.88023952,,,,,,,,,,,,,,,,,,,,,,,,,,,,,,,315.5802,316.5792,316.5793,10,317.0788,319.4128,0.0007,319.5792,0.1678,0.1665,0.1664,0.1665,0.1668,0.1655,0.1676,0.1666,0.1664,0.167,0.1663,319.5794,320.7454,left,1.1486,,320.7455,321.0622,right,0.3079,,18,0,18,321.0624,322.0627,0,8,8,8,1,prac_AB,L5_T1A_T2P,5,0,1,7,12,6,3,15,shirt,Did you see the shirt,0.17,0,resources/,pics/banjo.jpg,pics/chainsaw.jpg,pics/sailboat.jpg,pics/shipinabottle.jpg,pics/lightswitch01.jpg,pics/starfish01.jpg,pics/hen.jpg,pics/ball02.jpg,pics/bowlingpin.jpg,pics/hammerheadshark.jpg,pics/footballhelmet.jpg,pics/stapler10.jpg,pics/laptop01a.jpg,pics/cannon.jpg,pics/golfball.jpg,blankImage,blankImage,shirt02,13,0.1658,0.1682,0.1664,,,,,,,,,,,,,,,,,,,,,,,,,,,,,,,,,,,,,,,,,,,,,,,,,,,,,,,,,,,,,,,,,,,,,,,,,,,,,,,,,,,,,,,,,,,,,,,,,
,,,,,5f0bb0a18bf36931d16e58cc,6682b41eeb79ab8215dff63d,6682ba745525b47afe887ad4,31,Female,English,2024-07-01_15h19.17.004,ABmemTask3,2023.2.3,Win32,59.88023952,,,,,,,,,,,,,,,,,,,,,,,,,,,,,,,322.0636,323.0621,323.0621,10,323.5613,325.2287,0.0017,325.395,0.1663,0.1668,0.1663,0.1669,0.1665,0.1665,0.1667,0.1671,0.1663,0.1668,,325.3951,326.3114,right,0.8972,,326.3116,326.5612,right,0.2325,,20,0,20,326.5613,327.561,0,9,9,9,1,prac_AB,L1_T1P_T2P,1,1,1,7,8,6,3,11,tongs,Did you see the tongs,0.16,0,resources/,pics/sewingmachine01a.jpg,pics/shovel01.jpg,pics/football.jpg,pics/hen.jpg,pics/banjo.jpg,pics/zebra.jpg,pics/tongs01b.jpg,pics/stapler11.jpg,pics/shipinabottle.jpg,pics/match.jpg,pics/candle01.jpg,blankImage,blankImage,blankImage,blankImage,blankImage,blankImage,tongs01b,5,,,,,,,,,,,,,,,,,,,,,,,,,,,,,,,,,,,,,,,,,,,,,,,,,,,,,,,,,,,,,,,,,,,,,,,,,,,,,,,,,,,,,,,,,,,,,,,,,,,,
,,,,,5f0bb0a18bf36931d16e58cc,6682b41eeb79ab8215dff63d,6682ba745525b47afe887ad4,31,Female,English,2024-07-01_15h19.17.004,ABmemTask3,2023.2.3,Win32,59.88023952,,,,,,,,,,,,,,,,,,,,,,,,,,,,,,,327.5621,328.561,328.561,9,329.0612,330.7113,0.0018,330.8607,0.1478,0.1512,0.1506,0.1493,0.1501,0.1498,0.1499,0.1503,0.1498,0.15,0.1499,330.8607,331.4611,left,0.576,,331.4612,331.9108,left,0.4368,,22,0,22,331.9108,332.9104,0,10,10,10,1,prac_AB,L1_T1A_T2A,1,0,0,7,8,6,4,12,camera,Did you see the camera,0.15,0,resources/,pics/lightswitch01.jpg,pics/table01.jpg,pics/aquarium.jpg,pics/boot02b.jpg,pics/butterfly.jpg,pics/chainsaw.jpg,pics/binoculars01b.jpg,pics/giraffe.jpg,pics/triangle.jpg,pics/microscope.jpg,pics/mummy.jpg,pics/icecube01.jpg,blankImage,blankImage,blankImage,blankImage,blankImage,camera01a,10,,,,,,,,,,,,,,,,,,,,,,,,,,,,,,,,,,,,,,,,,,,,,,,,,,,,,,,,,,,,,,,,,,,,,,,,,,,,,,,,,,,,,,,,,,,,,,,,,,,,
,,,,,5f0bb0a18bf36931d16e58cc,6682b41eeb79ab8215dff63d,6682ba745525b47afe887ad4,31,Female,English,2024-07-01_15h19.17.004,ABmemTask3,2023.2.3,Win32,59.88023952,,,,,,,,,,,,,,,,,,,,,,,,,,,,,,,332.9112,333.9101,333.9102,8,334.4105,335.6109,0.0022,335.7431,0.1327,0.1324,0.1327,0.134,0.1332,0.1325,0.1339,0.1337,0.1336,,,335.7431,336.1933,right,0.436,,336.1933,336.4266,right,0.2145,,24,0,24,336.4267,337.4268,0,11,11,11,1,prac_AB,L1_T1P_T2P,1,1,1,6,7,5,3,10,shorts,Did you see the shorts,0.14,0,resources/,pics/snowshoe.jpg,pics/chainsaw.jpg,pics/sailboat.jpg,pics/ball02.jpg,pics/candleholder01.jpg,pics/shorts01.jpg,pics/stapler07.jpg,pics/peach01.jpg,pics/proboscismonkey.jpg,pics/hen.jpg,blankImage,blankImage,blankImage,blankImage,blankImage,blankImage,blankImage,shorts01,4,,,,,,,,,,,,,,,,,,,,,,,,,,,,,,,,,,,,,,,,,,,,,,,,,,,,,,,,,,,,,,,,,,,,,,,,,,,,,,,,,,,,,,,,,,,,,,,,,,,,
,,,,,5f0bb0a18bf36931d16e58cc,6682b41eeb79ab8215dff63d,6682ba745525b47afe887ad4,31,Female,English,2024-07-01_15h19.17.004,ABmemTask3,2023.2.3,Win32,59.88023952,,,,,,,,,,,,,,,,,,,,,,,,,,,,,,,337.4277,338.4267,338.4268,8,338.9265,340.5263,0.0018,340.6594,0.1323,0.1332,0.1325,0.134,0.1332,0.1335,0.1336,0.1328,0.1338,0.1323,0.1353,340.6595,341.6764,right,0.9989,,341.6765,341.9426,left,0.249,,26,0,26,341.9427,342.942,0,12,12,12,1,prac_AB,L5_T1P_T2A,5,1,0,5,10,4,3,13,fish,Did you see the fish,0.13,0,resources/,pics/football.jpg,pics/safetypin.jpg,pics/shovel01.jpg,pics/sink.jpg,pics/holdfast.jpg,pics/nutcracker01.jpg,pics/starfish01.jpg,pics/onion.jpg,pics/footballhelmet.jpg,pics/boot02b.jpg,pics/sewingmachine01a.jpg,pics/kangaroo.jpg,pics/banjo.jpg,blankImage,blankImage,blankImage,blankImage,holdfast,14,0.1318,,,,,,,,,,,,,,,,,,,,,,,,,,,,,,,,,,,,,,,,,,,,,,,,,,,,,,,,,,,,,,,,,,,,,,,,,,,,,,,,,,,,,,,,,,,,,,,,,,,
,,,,,5f0bb0a18bf36931d16e58cc,6682b41eeb79ab8215dff63d,6682ba745525b47afe887ad4,31,Female,English,2024-07-01_15h19.17.004,ABmemTask3,2023.2.3,Win32,59.88023952,,,,,,,,,,,,,,,,,,,,,,,,,,,,,,,342.9423,343.9427,343.9428,7,344.4425,345.4926,0.002,345.6079,0.115,0.1171,0.1159,0.1175,0.1168,0.1165,0.1166,0.1164,0.1167,,,345.608,345.9923,right,0.3704,,345.9924,346.2422,right,0.2339,,28,0,28,346.2424,347.242,0,13,13,13,1,prac_AB,L1_T1P_T2P,1,1,1,5,6,4,4,10,fish,Did you see the fish,0.12,0,resources/,pics/butterfly.jpg,pics/banjo.jpg,pics/leaf02a.jpg,pics/dustpan.jpg,pics/sturgeon.jpg,pics/stapler02.jpg,pics/necklace.jpg,pics/shovel01.jpg,pics/starfish01.jpg,pics/chainsaw.jpg,blankImage,blankImage,blankImage,blankImage,blankImage,blankImage,blankImage,sturgeon,3,,,,,,,,,,,,,,,,,,,,,,,,,,,,,,,,,,,,,,,,,,,,,,,,,,,,,,,,,,,,,,,,,,,,,,,,,,,,,,,,,,,,,,,,,,,,,,,,,,,,
,,,,,5f0bb0a18bf36931d16e58cc,6682b41eeb79ab8215dff63d,6682ba745525b47afe887ad4,31,Female,English,2024-07-01_15h19.17.004,ABmemTask3,2023.2.3,Win32,59.88023952,,,,,,,,,,,,,,,,,,,,,,,,,,,,,,,,,,,,,,,,,,,,,,,,,,,,,,,,,,,,,,,,,,,,,,,,,,,,,,,,,,,,,,,,,,,,,,,,,,,,,,,,,,,347.2422,350.6247,space,3.3559,,,,,,,,,,,,,,,,,,,,,,,,,,,,,,,,,,,,,,,,,,,,,,,,,,,,,,,,,,,,,,,,,,,,,,,,,,,,,,,,,,,,,,,,,,,,,
,,,,,5f0bb0a18bf36931d16e58cc,6682b41eeb79ab8215dff63d,6682ba745525b47afe887ad4,31,Female,English,2024-07-01_15h19.17.004,ABmemTask3,2023.2.3,Win32,59.88023952,,,,,,,,,,,,,,,,,,,,,,,,,,,,,,,,,,,,,,,,,,,,,,,,,,,,,,,,,,,,,,,,,,,,,,,,,,,,,,,,,,,,,,,,,,,,,,,,,,,,,,,,,,,350.6419,350.644,,,,,,,,,,,,,,,,,,,,,,,,,,,,,,,,,,,,,,,,,,,,,,,,,,,,,,,,,,,,,,,,,,,,,,,,,,,,,,,,,,,,,,,,,,,,,,,
,,,,,5f0bb0a18bf36931d16e58cc,6682b41eeb79ab8215dff63d,6682ba745525b47afe887ad4,31,Female,English,2024-07-01_15h19.17.004,ABmemTask3,2023.2.3,Win32,59.88023952,,,,,,,,,,,,,,,,,,,,,,,,,,,,,,,,,,,,,,,,,,,,,,,,,,,,,,,,,,,,,,,,,,,,,,,,,,,,,,,,,,,,,,,,,,,,,,,,,,,,,,,,,,,350.6462,350.6463,,,,,,,,,,,,,,,,,,,,,,,,,,,,,,,,,,,,,,,,,,,,,,,,,,,,,,,,,,,,,,,,,,,,,,,,,,,,,,,,,,,,,,,,,,,,,,,
,,,,,5f0bb0a18bf36931d16e58cc,6682b41eeb79ab8215dff63d,6682ba745525b47afe887ad4,31,Female,English,2024-07-01_15h19.17.004,ABmemTask3,2023.2.3,Win32,59.88023952,,,,,,,,,,,,,,,,,,,,,,,,,,,,,,,,,,,,,,,,,,,,,,,,,,,,,,,,,,,,,,,,,,,,,,,,,,,,,,,,,,,,,,,,,,,,,,,,,,,,,,,,,,,350.6487,350.6489,,,,,,,,,,,,,,,,,,,,,,,,,,,,,,,,,,,,,,,,,,,,,,,,,,,,,,,,,,,,,,,,,,,,,,,,,,,,,,,,,,,,,,,,,,,,,,,
,,,,,5f0bb0a18bf36931d16e58cc,6682b41eeb79ab8215dff63d,6682ba745525b47afe887ad4,31,Female,English,2024-07-01_15h19.17.004,ABmemTask3,2023.2.3,Win32,59.88023952,,,,,,,,,,,,,,,,,,,,,,,,,,,,,,,,,,,,,,,,,,,,,,,,,,,,,,,,,,,,,,,,,,,,,,,,,,,,,,,,,,,,,,,,,,,,,,,,,,,,,,,,,,,350.6499,350.65,,,,,,,,,,,,,,,,,,,,,,,,,,,,,,,,,,,,,,,,,,,,,,,,,,,,,,,,,,,,,,,,,,,,,,,,,,,,,,,,,,,,,,,,,,,,,,,
,,,,,5f0bb0a18bf36931d16e58cc,6682b41eeb79ab8215dff63d,6682ba745525b47afe887ad4,31,Female,English,2024-07-01_15h19.17.004,ABmemTask3,2023.2.3,Win32,59.88023952,,,,,,,,,,,,,,,,,,,,,,,,,,,,,,,,,,,,,,,,,,,,,,,,,,,,,,,,,,,,,,,,,,,,,,,,,,,,,,,,,,,,,,,,,,,,,,,,,,,,,,,,,,,350.6511,350.6512,,,,,,,,,,,,,,,,,,,,,,,,,,,,,,,,,,,,,,,,,,,,,,,,,,,,,,,,,,,,,,,,,,,,,,,,,,,,,,,,,,,,,,,,,,,,,,,
,,,,,5f0bb0a18bf36931d16e58cc,6682b41eeb79ab8215dff63d,6682ba745525b47afe887ad4,31,Female,English,2024-07-01_15h19.17.004,ABmemTask3,2023.2.3,Win32,59.88023952,,,,,,,,,,,,,,,,,,,,,,,,,,,,,,,,,,,,,,,,,,,,,,,,,,,,,,,,,,,,,,,,,,,,,,,,,,,,,,,,,,,,,,,,,,,,,,,,,,,,,,,,,,,350.6523,350.6524,,,,,,,,,,,,,,,,,,,,,,,,,,,,,,,,,,,,,,,,,,,,,,,,,,,,,,,,,,,,,,,,,,,,,,,,,,,,,,,,,,,,,,,,,,,,,,,
,,,,,5f0bb0a18bf36931d16e58cc,6682b41eeb79ab8215dff63d,6682ba745525b47afe887ad4,31,Female,English,2024-07-01_15h19.17.004,ABmemTask3,2023.2.3,Win32,59.88023952,,,,,,,,,,,,,,,,,,,,,,,,,,,,,,,,,,,,,,,,,,,,,,,,,,,,,,,,,,,,,,,,,,,,,,,,,,,,,,,,,,,,,,,,,,,,,,,,,,,,,,,,,,,350.6539,350.6539,,,,,,,,,,,,,,,,,,,,,,,,,,,,,,,,,,,,,,,,,,,,,,,,,,,,,,,,,,,,,,,,,,,,,,,,,,,,,,,,,,,,,,,,,,,,,,,
,,,,,5f0bb0a18bf36931d16e58cc,6682b41eeb79ab8215dff63d,6682ba745525b47afe887ad4,31,Female,English,2024-07-01_15h19.17.004,ABmemTask3,2023.2.3,Win32,59.88023952,,,,,,,,,,,,,,,,,,,,,,,,,,,,,,,,,,,,,,,,,,,,,,,,,,,,,,,,,,,,,,,,,,,,,,,,,,,,,,,,,,,,,,,,,,,,,,,,,,,,,,,,,,,350.6549,350.6549,,,,,,,,,,,,,,,,,,,,,,,,,,,,,,,,,,,,,,,,,,,,,,,,,,,,,,,,,,,,,,,,,,,,,,,,,,,,,,,,,,,,,,,,,,,,,,,
,,,,,5f0bb0a18bf36931d16e58cc,6682b41eeb79ab8215dff63d,6682ba745525b47afe887ad4,31,Female,English,2024-07-01_15h19.17.004,ABmemTask3,2023.2.3,Win32,59.88023952,,,,,,,,,,,,,,,,,,,,,,,,,,,,,,,,,,,,,,,,,,,,,,,,,,,,,,,,,,,,,,,,,,,,,,,,,,,,,,,,,,,,,,,,,,,,,,,,,,,,,,,,,,,350.6559,350.6559,,,,,,,,,,,,,,,,,,,,,,,,,,,,,,,,,,,,,,,,,,,,,,,,,,,,,,,,,,,,,,,,,,,,,,,,,,,,,,,,,,,,,,,,,,,,,,,
,,,,,5f0bb0a18bf36931d16e58cc,6682b41eeb79ab8215dff63d,6682ba745525b47afe887ad4,31,Female,English,2024-07-01_15h19.17.004,ABmemTask3,2023.2.3,Win32,59.88023952,,,,,,,,,,,,,,,,,,,,,,,,,,,,,,,,,,,,,,,,,,,,,,,,,,,,,,,,,,,,,,,,,,,,,,,,,,,,,,,,,,,,,,,,,,,,,,,,,,,,,,,,,,,350.6573,350.6574,,,,,,,,,,,,,,,,,,,,,,,,,,,,,,,,,,,,,,,,,,,,,,,,,,,,,,,,,,,,,,,,,,,,,,,,,,,,,,,,,,,,,,,,,,,,,,,
,,,,,5f0bb0a18bf36931d16e58cc,6682b41eeb79ab8215dff63d,6682ba745525b47afe887ad4,31,Female,English,2024-07-01_15h19.17.004,ABmemTask3,2023.2.3,Win32,59.88023952,,,,,,,,,,,,,,,,,,,,,,,,,,,,,,,,,,,,,,,,,,,,,,,,,,,,,,,,,,,,,,,,,,,,,,,,,,,,,,,,,,,,,,,,,,,,,,,,,,,,,,,,,,,350.6583,350.6583,,,,,,,,,,,,,,,,,,,,,,,,,,,,,,,,,,,,,,,,,,,,,,,,,,,,,,,,,,,,,,,,,,,,,,,,,,,,,,,,,,,,,,,,,,,,,,,
,,,,,5f0bb0a18bf36931d16e58cc,6682b41eeb79ab8215dff63d,6682ba745525b47afe887ad4,31,Female,English,2024-07-01_15h19.17.004,ABmemTask3,2023.2.3,Win32,59.88023952,,,,,,,,,,,,,,,,,,,,,,,,,,,,,,,,,,,,,,,,,,,,,,,,,,,,,,,,,,,,,,,,,,,,,,,,,,,,,,,,,,,,,,,,,,,,,,,,,,,,,,,,,,,350.6591,350.6592,,,,,,,,,,,,,,,,,,,,,,,,,,,,,,,,,,,,,,,,,,,,,,,,,,,,,,,,,,,,,,,,,,,,,,,,,,,,,,,,,,,,,,,,,,,,,,,
,,,,,5f0bb0a18bf36931d16e58cc,6682b41eeb79ab8215dff63d,6682ba745525b47afe887ad4,31,Female,English,2024-07-01_15h19.17.004,ABmemTask3,2023.2.3,Win32,59.88023952,,,,,,,,,,,,,,,,,,,,,,,,,,,,,,,,,,,,,,,,,,,,,,,,,,,,,,,,,,,,,,,,,,,,,,,,,,,,,,,,,,,,,,,,,,,,,,,,,,,,,,,,,,,350.66,350.66,,,,,,,,,,,,,,,,,,,,,,,,,,,,,,,,,,,,,,,,,,,,,,,,,,,,,,,,,,,,,,,,,,,,,,,,,,,,,,,,,,,,,,,,,,,,,,,
,,,,,5f0bb0a18bf36931d16e58cc,6682b41eeb79ab8215dff63d,6682ba745525b47afe887ad4,31,Female,English,2024-07-01_15h19.17.004,ABmemTask3,2023.2.3,Win32,59.88023952,,,,,,,,,,,,,,,,,,,,,,,,,,,,,,,,,,,,,,,,,,,,,,,,,,,,,,,,,,,,,,,,,,,,,,,,,,,,,,,,,,,,,,,,,,,,,,,,,,,,,,,,,,,350.6617,350.6617,,,,,,,,,,,,,,,,,,,,,,,,,,,,,,,,,,,,,,,,,,,,,,,,,,,,,,,,,,,,,,,,,,,,,,,,,,,,,,,,,,,,,,,,,,,,,,,
,,,,,5f0bb0a18bf36931d16e58cc,6682b41eeb79ab8215dff63d,6682ba745525b47afe887ad4,31,Female,English,2024-07-01_15h19.17.004,ABmemTask3,2023.2.3,Win32,59.88023952,,,,,,,,,,,,,,,,,,,,,,,,,,,,,,,,,,,,,,,,,,,,,,,,,,,,,,,,,,,,,,,,,,,,,,,,,,,,,,,,,,,,,,,,,,,,,,,,,,,,,,,,,,,350.6626,350.6626,,,,,,,,,,,,,,,,,,,,,,,,,,,,,,,,,,,,,,,,,,,,,,,,,,,,,,,,,,,,,,,,,,,,,,,,,,,,,,,,,,,,,,,,,,,,,,,
,,,,,5f0bb0a18bf36931d16e58cc,6682b41eeb79ab8215dff63d,6682ba745525b47afe887ad4,31,Female,English,2024-07-01_15h19.17.004,ABmemTask3,2023.2.3,Win32,59.88023952,,,,,,,,,,,,,,,,,,,,,,,,,,,,,,,,,,,,,,,,,,,,,,,,,,,,,,,,,,,,,,,,,,,,,,,,,,,,,,,,,,,,,,,,,,,,,,,,,,,,,,,,,,,350.6636,350.6637,,,,,,,,,,,,,,,,,,,,,,,,,,,,,,,,,,,,,,,,,,,,,,,,,,,,,,,,,,,,,,,,,,,,,,,,,,,,,,,,,,,,,,,,,,,,,,,
,,,,,5f0bb0a18bf36931d16e58cc,6682b41eeb79ab8215dff63d,6682ba745525b47afe887ad4,31,Female,English,2024-07-01_15h19.17.004,ABmemTask3,2023.2.3,Win32,59.88023952,,,,,,,,,,,,,,,,,,,,,,,,,,,,,,,,,,,,,,,,,,,,,,,,,,,,,,,,,,,,,,,,,,,,,,,,,,,,,,,,,,,,,,,,,,,,,,,,,,,,,,,,,,,350.6649,350.6649,,,,,,,,,,,,,,,,,,,,,,,,,,,,,,,,,,,,,,,,,,,,,,,,,,,,,,,,,,,,,,,,,,,,,,,,,,,,,,,,,,,,,,,,,,,,,,,
,,,,,5f0bb0a18bf36931d16e58cc,6682b41eeb79ab8215dff63d,6682ba745525b47afe887ad4,31,Female,English,2024-07-01_15h19.17.004,ABmemTask3,2023.2.3,Win32,59.88023952,,,,,,,,,,,,,,,,,,,,,,,,,,,,,,,,,,,,,,,,,,,,,,,,,,,,,,,,,,,,,,,,,,,,,,,,,,,,,,,,,,,,,,,,,,,,,,,,,,,,,,,,,,,350.6656,350.6657,,,,,,,,,,,,,,,,,,,,,,,,,,,,,,,,,,,,,,,,,,,,,,,,,,,,,,,,,,,,,,,,,,,,,,,,,,,,,,,,,,,,,,,,,,,,,,,
,,,,,5f0bb0a18bf36931d16e58cc,6682b41eeb79ab8215dff63d,6682ba745525b47afe887ad4,31,Female,English,2024-07-01_15h19.17.004,ABmemTask3,2023.2.3,Win32,59.88023952,,,,,,,,,,,,,,,,,,,,,,,,,,,,,,,,,,,,,,,,,,,,,,,,,,,,,,,,,,,,,,,,,,,,,,,,,,,,,,,,,,,,,,,,,,,,,,,,,,,,,,,,,,,350.6664,350.6665,,,,,,,,,,,,,,,,,,,,,,,,,,,,,,,,,,,,,,,,,,,,,,,,,,,,,,,,,,,,,,,,,,,,,,,,,,,,,,,,,,,,,,,,,,,,,,,
,,,,,5f0bb0a18bf36931d16e58cc,6682b41eeb79ab8215dff63d,6682ba745525b47afe887ad4,31,Female,English,2024-07-01_15h19.17.004,ABmemTask3,2023.2.3,Win32,59.88023952,,,,,,,,,,,,,,,,,,,,,,,,,,,,,,,,,,,,,,,,,,,,,,,,,,,,,,,,,,,,,,,,,,,,,,,,,,,,,,,,,,,,,,,,,,,,,,,,,,,,,,,,,,,,,,,,350.6669,369.758,space,19.0728,,,,,,,,,,,,,,,,,,,,,,,,,,,,,,,,,,,,,,,,,,,,,,,,,,,,,,,,,,,,,,,,,,,,,,,,,,,,,,,,,,,,,,,,
,,,,,5f0bb0a18bf36931d16e58cc,6682b41eeb79ab8215dff63d,6682ba745525b47afe887ad4,31,Female,English,2024-07-01_15h19.17.004,ABmemTask3,2023.2.3,Win32,59.88023952,,,,,,,,,,,,,,,,,,,,,,,,,,,,,,,,,369.7769,599,370.2725,,,,,,,,,,,,,,,,,,,,,,,,,,0,,,,,,,,,prac_MEM,new,,,,,,,,,,,10,,,,,,,,,,,,,,,,,,,,,,,,,,,,,,,,,,,370.2729,375.1416,3,1,4.835,,375.1444,376.139,0,0,0,7,1,999,999,pics/cherry01.jpg,,,,,,,,,,,,,,,,,,,,,,,,,,,,,,,,,,,,,,,,,,,,,,,,,,,,,,,,,,,,,,,,,,,,,,,
,,,,,5f0bb0a18bf36931d16e58cc,6682b41eeb79ab8215dff63d,6682ba745525b47afe887ad4,31,Female,English,2024-07-01_15h19.17.004,ABmemTask3,2023.2.3,Win32,59.88023952,,,,,,,,,,,,,,,,,,,,,,,,,,,,,,,,,376.1667,599,376.6548,,,,,,,,,,,,,,,,,,,,,,,,,,0,,,,,,,,,prac_MEM,old,,,,,,,,,,,10,,,,,,,,,,,,,,,,,,,,,,,,,,,,,,,,,,,376.6549,378.6715,6,6,1.9929,,378.6718,379.6707,0,1,1,2,1,3,1,pics/sturgeon.jpg,,,,,,,,,,,,,,,,,,,,,,,,,,,,,,,,,,,,,,,,,,,,,,,,,,,,,,,,,,,,,,,,,,,,,,,
,,,,,5f0bb0a18bf36931d16e58cc,6682b41eeb79ab8215dff63d,6682ba745525b47afe887ad4,31,Female,English,2024-07-01_15h19.17.004,ABmemTask3,2023.2.3,Win32,59.88023952,,,,,,,,,,,,,,,,,,,,,,,,,,,,,,,,,379.671,599,380.1717,,,,,,,,,,,,,,,,,,,,,,,,,,0,,,,,,,,,prac_MEM,old,,,,,,,,,,,10,,,,,,,,,,,,,,,,,,,,,,,,,,,,,,,,,,,380.1718,382.3532,9,6,2.1618,,382.3535,383.3541,0,2,2,3,1,4,1,pics/shorts01.jpg,,,,,,,,,,,,,,,,,,,,,,,,,,,,,,,,,,,,,,,,,,,,,,,,,,,,,,,,,,,,,,,,,,,,,,,
,,,,,5f0bb0a18bf36931d16e58cc,6682b41eeb79ab8215dff63d,6682ba745525b47afe887ad4,31,Female,English,2024-07-01_15h19.17.004,ABmemTask3,2023.2.3,Win32,59.88023952,,,,,,,,,,,,,,,,,,,,,,,,,,,,,,,,,383.3547,599,383.8537,,,,,,,,,,,,,,,,,,,,,,,,,,0,,,,,,,,,prac_MEM,old,,,,,,,,,,,10,,,,,,,,,,,,,,,,,,,,,,,,,,,,,,,,,,,383.8537,384.554,12,6,0.6784,,384.5546,385.5538,0,3,3,0,1,1,1,pics/tree.jpg,,,,,,,,,,,,,,,,,,,,,,,,,,,,,,,,,,,,,,,,,,,,,,,,,,,,,,,,,,,,,,,,,,,,,,,
,,,,,5f0bb0a18bf36931d16e58cc,6682b41eeb79ab8215dff63d,6682ba745525b47afe887ad4,31,Female,English,2024-07-01_15h19.17.004,ABmemTask3,2023.2.3,Win32,59.88023952,,,,,,,,,,,,,,,,,,,,,,,,,,,,,,,,,385.5545,599,386.0537,,,,,,,,,,,,,,,,,,,,,,,,,,0,,,,,,,,,prac_MEM,old,,,,,,,,,,,10,,,,,,,,,,,,,,,,,,,,,,,,,,,,,,,,,,,386.0537,386.9369,15,6,0.8695,,386.9373,387.9369,0,4,4,5,1,11,5,pics/grater01a.jpg,,,,,,,,,,,,,,,,,,,,,,,,,,,,,,,,,,,,,,,,,,,,,,,,,,,,,,,,,,,,,,,,,,,,,,,
,,,,,5f0bb0a18bf36931d16e58cc,6682b41eeb79ab8215dff63d,6682ba745525b47afe887ad4,31,Female,English,2024-07-01_15h19.17.004,ABmemTask3,2023.2.3,Win32,59.88023952,,,,,,,,,,,,,,,,,,,,,,,,,,,,,,,,,387.9375,599,388.4369,,,,,,,,,,,,,,,,,,,,,,,,,,0,,,,,,,,,prac_MEM,new,,,,,,,,,,,10,,,,,,,,,,,,,,,,,,,,,,,,,,,,,,,,,,,388.437,389.9869,18,1,1.5344,,389.9884,390.9864,0,5,5,10,1,999,999,pics/tomato01.jpg,,,,,,,,,,,,,,,,,,,,,,,,,,,,,,,,,,,,,,,,,,,,,,,,,,,,,,,,,,,,,,,,,,,,,,,
,,,,,5f0bb0a18bf36931d16e58cc,6682b41eeb79ab8215dff63d,6682ba745525b47afe887ad4,31,Female,English,2024-07-01_15h19.17.004,ABmemTask3,2023.2.3,Win32,59.88023952,,,,,,,,,,,,,,,,,,,,,,,,,,,,,,,,,390.9871,599,391.4862,,,,,,,,,,,,,,,,,,,,,,,,,,0,,,,,,,,,prac_MEM,new,,,,,,,,,,,10,,,,,,,,,,,,,,,,,,,,,,,,,,,,,,,,,,,391.4863,392.5529,9,6,1.0433,,392.5532,393.5526,0,6,6,9,1,999,999,pics/moth.jpg,,,,,,,,,,,,,,,,,,,,,,,,,,,,,,,,,,,,,,,,,,,,,,,,,,,,,,,,,,,,,,,,,,,,,,,
,,,,,5f0bb0a18bf36931d16e58cc,6682b41eeb79ab8215dff63d,6682ba745525b47afe887ad4,31,Female,English,2024-07-01_15h19.17.004,ABmemTask3,2023.2.3,Win32,59.88023952,,,,,,,,,,,,,,,,,,,,,,,,,,,,,,,,,393.5534,599,394.0529,,,,,,,,,,,,,,,,,,,,,,,,,,0,,,,,,,,,prac_MEM,old,,,,,,,,,,,10,,,,,,,,,,,,,,,,,,,,,,,,,,,,,,,,,,,394.0529,396.0191,11,5,1.9442,,396.0204,397.0189,0,7,7,1,1,2,1,pics/pants.jpg,,,,,,,,,,,,,,,,,,,,,,,,,,,,,,,,,,,,,,,,,,,,,,,,,,,,,,,,,,,,,,,,,,,,,,,
,,,,,5f0bb0a18bf36931d16e58cc,6682b41eeb79ab8215dff63d,6682ba745525b47afe887ad4,31,Female,English,2024-07-01_15h19.17.004,ABmemTask3,2023.2.3,Win32,59.88023952,,,,,,,,,,,,,,,,,,,,,,,,,,,,,,,,,397.0196,599,397.5188,,,,,,,,,,,,,,,,,,,,,,,,,,0,,,,,,,,,prac_MEM,new,,,,,,,,,,,10,,,,,,,,,,,,,,,,,,,,,,,,,,,,,,,,,,,397.5189,398.4688,14,1,0.9247,,398.4693,399.468,0,8,8,8,1,999,999,pics/thread02.jpg,,,,,,,,,,,,,,,,,,,,,,,,,,,,,,,,,,,,,,,,,,,,,,,,,,,,,,,,,,,,,,,,,,,,,,,
,,,,,5f0bb0a18bf36931d16e58cc,6682b41eeb79ab8215dff63d,6682ba745525b47afe887ad4,31,Female,English,2024-07-01_15h19.17.004,ABmemTask3,2023.2.3,Win32,59.88023952,,,,,,,,,,,,,,,,,,,,,,,,,,,,,,,,,399.4683,599,399.9686,,,,,,,,,,,,,,,,,,,,,,,,,,0,,,,,,,,,prac_MEM,old,,,,,,,,,,,10,,,,,,,,,,,,,,,,,,,,,,,,,,,,,,,,,,,399.9686,401.5682,17,6,1.5816,,401.5685,402.5685,0,9,9,6,1,12,5,pics/humanskull.jpg,,,,,,,,,,,,,,,,,,,,,,,,,,,,,,,,,,,,,,,,,,,,,,,,,,,,,,,,,,,,,,,,,,,,,,,
,,,,,5f0bb0a18bf36931d16e58cc,6682b41eeb79ab8215dff63d,6682ba745525b47afe887ad4,31,Female,English,2024-07-01_15h19.17.004,ABmemTask3,2023.2.3,Win32,59.88023952,,,,,,,,,,,,,,,,,,,,,,,,,,,,,,,,,402.5693,599,403.0682,,,,,,,,,,,,,,,,,,,,,,,,,,0,,,,,,,,,prac_MEM,old,,,,,,,,,,,10,,,,,,,,,,,,,,,,,,,,,,,,,,,,,,,,,,,403.0682,403.8508,20,6,0.7648,,403.8514,404.8507,0,10,10,4,1,5,1,pics/tongs01b.jpg,,,,,,,,,,,,,,,,,,,,,,,,,,,,,,,,,,,,,,,,,,,,,,,,,,,,,,,,,,,,,,,,,,,,,,,
,,,,,5f0bb0a18bf36931d16e58cc,6682b41eeb79ab8215dff63d,6682ba745525b47afe887ad4,31,Female,English,2024-07-01_15h19.17.004,ABmemTask3,2023.2.3,Win32,59.88023952,,,,,,,,,,,,,,,,,,,,,,,,,,,,,,,,,,,,,,,,,,,,,,,,,,,,,,,,,,,,,,,,,,,,,,,,,,,,,,,,,,,,,,,,,,,,,,,,,,,,,,,,,,,,,,,,,,,,,,,,,,,,,,,,,,,,,404.8509,406.6842,406.6843,406.6847,,,,,,,,,,,,,,,,,,,,,,,,,,,,,,,,,,,,,,,,,,,,,,,,,,,,,,,,,,,,,,,,,,,
,,,,,5f0bb0a18bf36931d16e58cc,6682b41eeb79ab8215dff63d,6682ba745525b47afe887ad4,31,Female,English,2024-07-01_15h19.17.004,ABmemTask3,2023.2.3,Win32,59.88023952,,,,,,,,,,,,,,,,,,space,15.1757,,,,,,,,,,,,,,,,,,,,,,,,,,,,,,,,,,,,,,,,,,,,,,,,,,,,,,,,,,,,,,,,,,,,,,,,,,,,,,,,,,,,,,,,,,,,,,,,,,,,,,,,,,,,,,,,,,,,,,406.6851,421.918,,,,,,,,,,,,,,,,,,,,,,,,,,,,,,,,,,,,,,,,,,,,,,,,,,,,,,,,,,,,,,,,,
,,,,,5f0bb0a18bf36931d16e58cc,6682b41eeb79ab8215dff63d,6682ba745525b47afe887ad4,31,Female,English,2024-07-01_15h19.17.004,ABmemTask3,2023.2.3,Win32,59.88023952,,,,,,,,,,,,,,,,,,,,,,,,,,,,,,,,,,,,,,,,,,,,,,,,,,,,,,,,,,,,,,,,,,,,,,,,,,,,,,,,,,,,,,,,,,,,,,,,,,,,,,,,,,,,,,,,,,,,,,,,,,,,,,,,,,,,,,,,,,,421.9182,432.068,space,10.1131,,,,,,,,,,,,,,,,,,,,,,,,,,,,,,,,,,,,,,,,,,,,,,,,,,,,,,,,,,,,,
,,,,,5f0bb0a18bf36931d16e58cc,6682b41eeb79ab8215dff63d,6682ba745525b47afe887ad4,31,Female,English,2024-07-01_15h19.17.004,ABmemTask3,2023.2.3,Win32,59.88023952,,,,,,,,,,,,,,,,,,,,,,,,,,,,,,,432.0874,433.0867,433.0868,7,433.5845,434.6322,0.003,434.748,0.114,0.1198,0.1163,0.1113,0.1161,0.1182,0.1164,0.1166,0.1168,,,434.7487,436.1308,left,1.3533,,436.131,437.0809,left,0.9253,,-2,0,2,437.0813,438.0809,,,,,,1_AB,L1_T1P_T2P,1,1,1,4,5,3,5,10,flute,Did you see the flute,0.12,0,resources/,pics/peach01.jpg,pics/seaturtle.jpg,pics/dromedary.jpg,pics/recorder01.jpg,pics/stapler08.jpg,pics/giraffe.jpg,pics/blender.jpg,pics/necklace.jpg,pics/sink.jpg,pics/dustpan.jpg,blankImage,blankImage,blankImage,blankImage,blankImage,blankImage,blankImage,recorder01,7,,,,,,,,,,,,,,,,,,,,,,,,,,,,,,,,,,,,,,,,,0,0,0,6,1,,,,,,,,,,,,,,,,,,,,,,,,,,,,,,,,,,,,,,,,,,,,,,,,,,,,,,,
,,,,,5f0bb0a18bf36931d16e58cc,6682b41eeb79ab8215dff63d,6682ba745525b47afe887ad4,31,Female,English,2024-07-01_15h19.17.004,ABmemTask3,2023.2.3,Win32,59.88023952,,,,,,,,,,,,,,,,,,,,,,,,,,,,,,,438.1123,439.1134,439.1135,7,439.6139,441.1306,0.002,441.2464,0.1153,0.1162,0.117,0.1163,0.1161,0.1172,0.1169,0.1169,0.1161,0.1159,0.1179,441.2465,442.0633,right,0.7994,,442.0634,442.4126,left,0.3293,,0,0,4,442.4127,443.4125,,,,,,1_AB,L5_T1P_T2A,5,1,0,4,9,3,5,14,Frisbee,Did you see the Frisbee,0.12,0,resources/,pics/giraffe.jpg,pics/christmaslights.jpg,pics/bowtie.jpg,pics/frisbee.jpg,pics/banjo.jpg,pics/calendar.jpg,pics/butterfly.jpg,pics/onion.jpg,pics/starfish01.jpg,pics/footballhelmet.jpg,pics/blender.jpg,pics/candleholder01.jpg,pics/hairdryer02a.jpg,pics/dromedary.jpg,blankImage,blankImage,blankImage,frisbee,58,0.1173,0.1159,,,,,,,,,,,,,,,,,,,,,,,,,,,,,,,,,,,,,,,0,1,1,57,1,,,,,,,,,,,,,,,,,,,,,,,,,,,,,,,,,,,,,,,,,,,,,,,,,,,,,,,
,,,,,5f0bb0a18bf36931d16e58cc,6682b41eeb79ab8215dff63d,6682ba745525b47afe887ad4,31,Female,English,2024-07-01_15h19.17.004,ABmemTask3,2023.2.3,Win32,59.88023952,,,,,,,,,,,,,,,,,,,,,,,,,,,,,,,443.4128,444.4127,444.4128,7,444.9125,446.3131,0.0014,446.4295,0.1156,0.1175,0.1159,0.1172,0.1168,0.1167,0.1165,0.1165,0.117,0.1166,0.1155,446.4296,447.7128,left,1.2631,,447.7129,448.029,right,0.3065,,2,0,6,448.0291,449.0291,,,,,,1_AB,L1_T1A_T2P,1,0,1,7,8,6,5,13,statue,Did you see the statue,0.12,0,resources/,pics/giraffe.jpg,pics/seaturtle.jpg,pics/peach01.jpg,pics/boot02b.jpg,pics/backpack01a.jpg,pics/sandbarshark.jpg,pics/microscope.jpg,pics/stapler07.jpg,pics/snowshoe.jpg,pics/laptop01a.jpg,pics/necklace.jpg,pics/zebra.jpg,pics/carrot01.jpg,blankImage,blankImage,blankImage,blankImage,statue,27,0.1179,,,,,,,,,,,,,,,,,,,,,,,,,,,,,,,,,,,,,,,,0,2,2,26,1,,,,,,,,,,,,,,,,,,,,,,,,,,,,,,,,,,,,,,,,,,,,,,,,,,,,,,,
,,,,,5f0bb0a18bf36931d16e58cc,6682b41eeb79ab8215dff63d,6682ba745525b47afe887ad4,31,Female,English,2024-07-01_15h19.17.004,ABmemTask3,2023.2.3,Win32,59.88023952,,,,,,,,,,,,,,,,,,,,,,,,,,,,,,,449.0299,450.0289,450.029,7,450.5291,451.8126,0.002,451.9284,0.1155,0.1165,0.1168,0.1165,0.1167,0.1159,0.1172,0.1168,0.1166,0.1164,0.1171,451.9285,452.7951,right,0.8421,,452.7953,453.9283,left,1.1255,,4,0,8,453.9284,454.9284,,,,,,1_AB,L1_T1P_T2A,1,1,0,7,8,6,4,12,Tennis racket,Did you see the Tennis racket,0.12,0,resources/,pics/banjo.jpg,pics/leaf02a.jpg,pics/shovel01.jpg,pics/microscope.jpg,pics/cork02.jpg,pics/seagull.jpg,pics/tennisracket.jpg,pics/binder03b.jpg,pics/floortile02.jpg,pics/carrot01.jpg,pics/candle01.jpg,pics/siamesecat.jpg,blankImage,blankImage,blankImage,blankImage,blankImage,tennisracket,38,,,,,,,,,,,,,,,,,,,,,,,,,,,,,,,,,,,,,,,,,0,3,3,37,1,,,,,,,,,,,,,,,,,,,,,,,,,,,,,,,,,,,,,,,,,,,,,,,,,,,,,,,
,,,,,5f0bb0a18bf36931d16e58cc,6682b41eeb79ab8215dff63d,6682ba745525b47afe887ad4,31,Female,English,2024-07-01_15h19.17.004,ABmemTask3,2023.2.3,Win32,59.88023952,,,,,,,,,,,,,,,,,,,,,,,,,,,,,,,454.9498,455.9454,455.9455,7,456.4452,457.6129,0.0021,457.733,0.121,0.1121,0.1165,0.1167,0.1168,0.1167,0.1167,0.116,0.1171,0.1166,,457.7331,459.1949,left,1.4367,,459.1952,459.6293,left,0.4097,,4,0,10,459.6294,460.6282,,,,,,1_AB,L1_T1P_T2A,1,1,0,7,8,6,3,11,Spear,Did you see the Spear,0.12,0,resources/,pics/butterfly.jpg,pics/banjo.jpg,pics/chainsaw.jpg,pics/christmaslights.jpg,pics/dustpan.jpg,pics/shovel01.jpg,pics/spear02.jpg,pics/table01.jpg,pics/starfish01.jpg,pics/bowlingpin.jpg,pics/carrot01.jpg,blankImage,blankImage,blankImage,blankImage,blankImage,blankImage,spear02,39,,,,,,,,,,,,,,,,,,,,,,,,,,,,,,,,,,,,,,,,,0,4,4,38,1,,,,,,,,,,,,,,,,,,,,,,,,,,,,,,,,,,,,,,,,,,,,,,,,,,,,,,,
,,,,,5f0bb0a18bf36931d16e58cc,6682b41eeb79ab8215dff63d,6682ba745525b47afe887ad4,31,Female,English,2024-07-01_15h19.17.004,ABmemTask3,2023.2.3,Win32,59.88023952,,,,,,,,,,,,,,,,,,,,,,,,,,,,,,,460.6541,461.6442,461.6443,7,462.1439,463.3116,0.0016,463.4267,0.1158,0.1158,0.1176,0.1169,0.1168,0.1164,0.1154,0.1178,0.1166,0.1175,,463.4267,464.9103,left,1.4692,,464.9104,465.1937,right,0.2645,,6,0,12,465.1939,466.1938,,,,,,1_AB,L1_T1A_T2P,1,0,1,7,8,6,3,11,turkey,Did you see the turkey,0.12,0,resources/,pics/proboscismonkey.jpg,pics/blender.jpg,pics/sealion.jpg,pics/snowshoe.jpg,pics/carrot01.jpg,pics/microscope.jpg,pics/piggybank.jpg,pics/stapler12.jpg,pics/peanut01.jpg,pics/dustpan.jpg,pics/footballhelmet.jpg,blankImage,blankImage,blankImage,blankImage,blankImage,blankImage,turkey,26,,,,,,,,,,,,,,,,,,,,,,,,,,,,,,,,,,,,,,,,,0,5,5,25,1,,,,,,,,,,,,,,,,,,,,,,,,,,,,,,,,,,,,,,,,,,,,,,,,,,,,,,,
,,,,,5f0bb0a18bf36931d16e58cc,6682b41eeb79ab8215dff63d,6682ba745525b47afe887ad4,31,Female,English,2024-07-01_15h19.17.004,ABmemTask3,2023.2.3,Win32,59.88023952,,,,,,,,,,,,,,,,,,,,,,,,,,,,,,,466.2157,467.2154,467.2155,7,467.7105,468.8779,0.0028,468.9934,0.1156,0.1168,0.121,0.1123,0.1168,0.1163,0.1162,0.1168,0.117,0.1167,,468.9935,470.7766,left,1.7593,,470.7769,471.1611,right,0.3542,,2,0,14,471.1612,472.1599,,,,,,1_AB,L1_T1P_T2A,1,1,0,7,8,6,3,11,garlic,Did you see the garlic,0.12,0,resources/,pics/zebra.jpg,pics/banjo.jpg,pics/pencilsharpener02a.jpg,pics/football.jpg,pics/candle01.jpg,pics/footballhelmet.jpg,pics/garlic01a.jpg,pics/birdhouse.jpg,pics/peach01.jpg,pics/pictureframe04.jpg,pics/binder03b.jpg,blankImage,blankImage,blankImage,blankImage,blankImage,blankImage,garlic01a,33,,,,,,,,,,,,,,,,,,,,,,,,,,,,,,,,,,,,,,,,,0,6,6,32,1,,,,,,,,,,,,,,,,,,,,,,,,,,,,,,,,,,,,,,,,,,,,,,,,,,,,,,,
,,,,,5f0bb0a18bf36931d16e58cc,6682b41eeb79ab8215dff63d,6682ba745525b47afe887ad4,31,Female,English,2024-07-01_15h19.17.004,ABmemTask3,2023.2.3,Win32,59.88023952,,,,,,,,,,,,,,,,,,,,,,,,,,,,,,,472.1864,473.1755,473.1756,7,473.6748,475.3094,0.0007,475.4253,0.1169,0.1178,0.1163,0.117,0.1157,0.1174,0.1154,0.118,0.1163,0.1173,0.1166,475.4253,479.825,right,4.3751,,479.8251,480.2087,right,0.3738,,4,0,16,480.2089,481.2081,,,,,,1_AB,L5_T1P_T2P,5,1,1,5,10,4,5,15,ribbon,Did you see the ribbon,0.12,0,resources/,pics/giraffe.jpg,pics/boot02b.jpg,pics/cymbal.jpg,pics/leaf02a.jpg,pics/ribbon04.jpg,pics/lightswitch01.jpg,pics/necklace.jpg,pics/calendar.jpg,pics/kangaroo.jpg,pics/stapler12.jpg,pics/hose.jpg,pics/carrot01.jpg,pics/match.jpg,pics/sink.jpg,pics/candleholder01.jpg,blankImage,blankImage,ribbon04,53,0.1164,0.1173,0.1162,,,,,,,,,,,,,,,,,,,,,,,,,,,,,,,,,,,,,,0,7,7,52,1,,,,,,,,,,,,,,,,,,,,,,,,,,,,,,,,,,,,,,,,,,,,,,,,,,,,,,,
,,,,,5f0bb0a18bf36931d16e58cc,6682b41eeb79ab8215dff63d,6682ba745525b47afe887ad4,31,Female,English,2024-07-01_15h19.17.004,ABmemTask3,2023.2.3,Win32,59.88023952,,,,,,,,,,,,,,,,,,,,,,,,,,,,,,,481.231,482.2251,482.2253,7,482.7252,484.0141,0.0026,484.1247,0.1158,0.1168,0.1165,0.1168,0.1165,0.116,0.1173,0.1158,0.1177,0.1209,0.1165,484.1249,484.7416,right,0.586,,484.7419,484.9917,right,0.2257,,6,0,18,484.992,485.9913,,,,,,1_AB,L5_T1P_T2P,5,1,1,4,9,3,3,12,Sheep,Did you see the Sheep,0.12,0,resources/,pics/icecube01.jpg,pics/cymbal.jpg,pics/wheel01.jpg,pics/sheep.jpg,pics/starfish01.jpg,pics/safetypin.jpg,pics/siamesecat.jpg,pics/lock03a.jpg,pics/stapler01.jpg,pics/sink.jpg,pics/fanblades.jpg,pics/bowlingpin.jpg,blankImage,blankImage,blankImage,blankImage,blankImage,sheep,52,,,,,,,,,,,,,,,,,,,,,,,,,,,,,,,,,,,,,,,,,0,8,8,51,1,,,,,,,,,,,,,,,,,,,,,,,,,,,,,,,,,,,,,,,,,,,,,,,,,,,,,,,
,,,,,5f0bb0a18bf36931d16e58cc,6682b41eeb79ab8215dff63d,6682ba745525b47afe887ad4,31,Female,English,2024-07-01_15h19.17.004,ABmemTask3,2023.2.3,Win32,59.88023952,,,,,,,,,,,,,,,,,,,,,,,,,,,,,,,485.9926,486.9914,486.9915,7,487.4914,488.4254,0.0031,488.5412,0.1155,0.1208,0.1178,0.1155,0.1125,0.1169,0.1164,0.1167,,,,488.5415,490.0247,right,1.4563,,490.025,490.3978,left,0.3503,,6,0,20,490.3979,491.3906,,,,,,1_AB,L1_T1P_T2P,1,1,1,5,6,4,3,9,Ant,Did you see the Ant,0.12,0,resources/,pics/kangaroo.jpg,pics/giraffe.jpg,pics/footballhelmet.jpg,pics/onion.jpg,pics/ant.jpg,pics/stapler04b.jpg,pics/banjo.jpg,pics/zebra.jpg,pics/dromedary.jpg,blankImage,blankImage,blankImage,blankImage,blankImage,blankImage,blankImage,blankImage,ant,15,,,,,,,,,,,,,,,,,,,,,,,,,,,,,,,,,,,,,,,,,0,9,9,14,1,,,,,,,,,,,,,,,,,,,,,,,,,,,,,,,,,,,,,,,,,,,,,,,,,,,,,,,
,,,,,5f0bb0a18bf36931d16e58cc,6682b41eeb79ab8215dff63d,6682ba745525b47afe887ad4,31,Female,English,2024-07-01_15h19.17.004,ABmemTask3,2023.2.3,Win32,59.88023952,,,,,,,,,,,,,,,,,,,,,,,,,,,,,,,491.3924,492.3907,492.3908,7,492.8902,493.8235,0.0019,493.9401,0.1173,0.1153,0.1161,0.1174,0.1164,0.1163,0.1163,0.117,,,,493.9403,495.1906,left,1.2224,,495.1909,495.5072,right,0.2859,,6,0,22,495.5074,496.5067,,,,,,1_AB,L1_T1P_T2P,1,1,1,4,5,3,4,9,Chefs hat,Did you see the Chefs hat,0.12,0,resources/,pics/sewingmachine01a.jpg,pics/icecube01.jpg,pics/fanblades.jpg,pics/chefshat.jpg,pics/stapler06.jpg,pics/ashtray01.jpg,pics/blender.jpg,pics/sandbarshark.jpg,pics/lock03a.jpg,blankImage,blankImage,blankImage,blankImage,blankImage,blankImage,blankImage,blankImage,chefshat,12,,,,,,,,,,,,,,,,,,,,,,,,,,,,,,,,,,,,,,,,,0,10,10,11,1,,,,,,,,,,,,,,,,,,,,,,,,,,,,,,,,,,,,,,,,,,,,,,,,,,,,,,,
,,,,,5f0bb0a18bf36931d16e58cc,6682b41eeb79ab8215dff63d,6682ba745525b47afe887ad4,31,Female,English,2024-07-01_15h19.17.004,ABmemTask3,2023.2.3,Win32,59.88023952,,,,,,,,,,,,,,,,,,,,,,,,,,,,,,,496.5331,497.5227,497.5228,7,498.0226,499.5407,0.0022,499.6556,0.1151,0.1176,0.1158,0.1164,0.1167,0.1161,0.1182,0.1161,0.1171,0.1162,0.1168,499.6557,500.0559,right,0.3811,,500.056,500.3058,right,0.2332,,8,0,24,500.306,501.3058,,,,,,1_AB,L5_T1P_T2P,5,1,1,5,10,4,4,14,Fox,Did you see the Fox,0.12,0,resources/,pics/hammerheadshark.jpg,pics/bowlingpin.jpg,pics/pictureframe04.jpg,pics/peanut01.jpg,pics/redfox.jpg,pics/cymbal.jpg,pics/spoon01.jpg,pics/banjo.jpg,pics/butterfly.jpg,pics/stapler11.jpg,pics/football.jpg,pics/safetypin.jpg,pics/triangle.jpg,pics/onion.jpg,blankImage,blankImage,blankImage,redfox,45,0.1167,0.1173,,,,,,,,,,,,,,,,,,,,,,,,,,,,,,,,,,,,,,,0,11,11,44,1,,,,,,,,,,,,,,,,,,,,,,,,,,,,,,,,,,,,,,,,,,,,,,,,,,,,,,,
,,,,,5f0bb0a18bf36931d16e58cc,6682b41eeb79ab8215dff63d,6682ba745525b47afe887ad4,31,Female,English,2024-07-01_15h19.17.004,ABmemTask3,2023.2.3,Win32,59.88023952,,,,,,,,,,,,,,,,,,,,,,,,,,,,,,,501.3065,502.3056,502.3057,7,502.805,504.2056,0.0006,504.3211,0.1177,0.1156,0.1172,0.1168,0.1165,0.1166,0.1168,0.1162,0.1171,0.1171,0.1163,504.3212,504.821,right,0.4794,,504.8211,505.1881,right,0.3598,,10,0,26,505.1882,506.1887,,,,,,1_AB,L5_T1P_T2P,5,1,1,4,9,3,4,13,Forklift,Did you see the Forklift,0.12,0,resources/,pics/dustpan.jpg,pics/table01.jpg,pics/sink.jpg,pics/forklift.jpg,pics/dromedary.jpg,pics/proboscismonkey.jpg,pics/cymbal.jpg,pics/shovel01.jpg,pics/stapler10.jpg,pics/backpack01a.jpg,pics/binder03b.jpg,pics/banjo.jpg,pics/candleholder01.jpg,blankImage,blankImage,blankImage,blankImage,forklift,47,0.1164,,,,,,,,,,,,,,,,,,,,,,,,,,,,,,,,,,,,,,,,0,12,12,46,1,,,,,,,,,,,,,,,,,,,,,,,,,,,,,,,,,,,,,,,,,,,,,,,,,,,,,,,
,,,,,5f0bb0a18bf36931d16e58cc,6682b41eeb79ab8215dff63d,6682ba745525b47afe887ad4,31,Female,English,2024-07-01_15h19.17.004,ABmemTask3,2023.2.3,Win32,59.88023952,,,,,,,,,,,,,,,,,,,,,,,,,,,,,,,506.1897,507.188,507.1881,7,507.6886,509.4382,0.0012,509.5546,0.1147,0.1181,0.1162,0.1169,0.1169,0.1164,0.1161,0.117,0.1165,0.1154,0.1176,509.5547,509.9544,right,0.3852,,509.9545,510.2377,right,0.2752,,12,0,28,510.2378,511.2373,,,,,,1_AB,L5_T1P_T2P,5,1,1,6,11,5,5,16,cruise ship,Did you see the cruise ship,0.12,0,resources/,pics/seaturtle.jpg,pics/ashtray01.jpg,pics/pencil01.jpg,pics/fanblades.jpg,pics/triangle.jpg,pics/cruiseship.jpg,pics/wheel01.jpg,pics/dustpan.jpg,pics/starfish01.jpg,pics/banjo.jpg,pics/stapler12.jpg,pics/match.jpg,pics/cannon.jpg,pics/sandbarshark.jpg,pics/sink.jpg,pics/zebra.jpg,blankImage,cruiseship,51,0.1168,0.1165,0.1168,,,,,,,,,,,,,,,,,,,,,,,,,,,,,,,,,,,,,,0,13,13,50,1,0.1167,,,,,,,,,,,,,,,,,,,,,,,,,,,,,,,,,,,,,,,,,,,,,,,,,,,,,,
,,,,,5f0bb0a18bf36931d16e58cc,6682b41eeb79ab8215dff63d,6682ba745525b47afe887ad4,31,Female,English,2024-07-01_15h19.17.004,ABmemTask3,2023.2.3,Win32,59.88023952,,,,,,,,,,,,,,,,,,,,,,,,,,,,,,,511.2381,512.2371,512.2371,7,512.737,513.9041,0.0015,514.0208,0.115,0.1185,0.1165,0.1164,0.1168,0.1165,0.1164,0.1172,0.1155,0.117,,514.0209,515.4203,right,1.3772,,515.4204,515.7041,left,0.2694,,12,0,30,515.7042,516.7033,,,,,,1_AB,L1_T1P_T2P,1,1,1,7,8,6,3,11,pliers,Did you see the pliers,0.12,0,resources/,pics/mummy.jpg,pics/binder03b.jpg,pics/bowtie.jpg,pics/toiletpaper01a.jpg,pics/football.jpg,pics/blender.jpg,pics/needlenosepliers01.jpg,pics/stapler13.jpg,pics/zebra.jpg,pics/hammerheadshark.jpg,pics/sealion.jpg,blankImage,blankImage,blankImage,blankImage,blankImage,blankImage,needlenosepliers01,6,,,,,,,,,,,,,,,,,,,,,,,,,,,,,,,,,,,,,,,,,0,14,14,5,1,,,,,,,,,,,,,,,,,,,,,,,,,,,,,,,,,,,,,,,,,,,,,,,,,,,,,,,
,,,,,5f0bb0a18bf36931d16e58cc,6682b41eeb79ab8215dff63d,6682ba745525b47afe887ad4,31,Female,English,2024-07-01_15h19.17.004,ABmemTask3,2023.2.3,Win32,59.88023952,,,,,,,,,,,,,,,,,,,,,,,,,,,,,,,516.7241,517.7207,517.7209,7,518.2087,519.4884,0.0019,519.6042,0.1161,0.1124,0.1168,0.1167,0.1165,0.1157,0.1175,0.1167,0.1171,0.1162,0.1167,519.6044,520.5932,left,0.9674,,520.5933,520.9032,right,0.2857,,12,0,32,520.9034,521.9028,,,,,,1_AB,L1_T1P_T2P,1,1,1,7,8,6,4,12,Turnstile,Did you see the Turnstile,0.12,0,resources/,pics/golfball.jpg,pics/hose.jpg,pics/siamesecat.jpg,pics/binoculars01b.jpg,pics/hen.jpg,pics/candleholder01.jpg,pics/turnstile.jpg,pics/stapler03a.jpg,pics/giraffe.jpg,pics/pictureframe04.jpg,pics/sandbarshark.jpg,pics/spoon01.jpg,blankImage,blankImage,blankImage,blankImage,blankImage,turnstile,13,,,,,,,,,,,,,,,,,,,,,,,,,,,,,,,,,,,,,,,,,0,15,15,12,1,,,,,,,,,,,,,,,,,,,,,,,,,,,,,,,,,,,,,,,,,,,,,,,,,,,,,,,
,,,,,5f0bb0a18bf36931d16e58cc,6682b41eeb79ab8215dff63d,6682ba745525b47afe887ad4,31,Female,English,2024-07-01_15h19.17.004,ABmemTask3,2023.2.3,Win32,59.88023952,,,,,,,,,,,,,,,,,,,,,,,,,,,,,,,521.9038,522.9016,522.9017,7,523.4033,524.6875,0.0027,524.8081,0.1158,0.1169,0.1161,0.1177,0.115,0.1168,0.1175,0.1168,0.1164,0.117,0.1162,524.8082,525.903,right,1.0773,,525.9033,526.2872,right,0.3604,,14,0,34,526.2873,527.2862,,,,,,1_AB,L1_T1P_T2P,1,1,1,7,8,6,4,12,hammer,Did you see the hammer,0.12,0,resources/,pics/microscope.jpg,pics/blender.jpg,pics/dustpan.jpg,pics/snowshoe.jpg,pics/mummy.jpg,pics/bowtie.jpg,pics/hammer01.jpg,pics/stapler04b.jpg,pics/seaturtle.jpg,pics/candle01.jpg,pics/necklace.jpg,pics/cannon.jpg,blankImage,blankImage,blankImage,blankImage,blankImage,hammer01,21,,,,,,,,,,,,,,,,,,,,,,,,,,,,,,,,,,,,,,,,,0,16,16,20,1,,,,,,,,,,,,,,,,,,,,,,,,,,,,,,,,,,,,,,,,,,,,,,,,,,,,,,,
,,,,,5f0bb0a18bf36931d16e58cc,6682b41eeb79ab8215dff63d,6682ba745525b47afe887ad4,31,Female,English,2024-07-01_15h19.17.004,ABmemTask3,2023.2.3,Win32,59.88023952,,,,,,,,,,,,,,,,,,,,,,,,,,,,,,,527.2877,528.2758,528.2758,7,528.7745,530.2913,0.0025,530.4075,0.1153,0.1114,0.1175,0.1166,0.1167,0.1161,0.1171,0.1167,0.1162,0.1168,0.1163,530.4076,533.0355,left,2.6001,,533.0357,533.4193,right,0.3531,,16,0,36,533.4196,534.4184,,,,,,1_AB,L5_T1A_T2P,5,0,1,4,9,3,5,14,lemon,Did you see the lemon,0.12,0,resources/,pics/seaturtle.jpg,pics/lightswitch01.jpg,pics/candle01.jpg,pics/cannon.jpg,pics/seagull.jpg,pics/spoon01.jpg,pics/spiderweb.jpg,pics/sewingmachine01a.jpg,pics/stapler05.jpg,pics/binoculars01b.jpg,pics/zebra.jpg,pics/sealion.jpg,pics/shovel01.jpg,pics/wheel01.jpg,blankImage,blankImage,blankImage,lemon02,56,0.1169,0.1208,,,,,,,,,,,,,,,,,,,,,,,,,,,,,,,,,,,,,,,0,17,17,55,1,,,,,,,,,,,,,,,,,,,,,,,,,,,,,,,,,,,,,,,,,,,,,,,,,,,,,,,
,,,,,5f0bb0a18bf36931d16e58cc,6682b41eeb79ab8215dff63d,6682ba745525b47afe887ad4,31,Female,English,2024-07-01_15h19.17.004,ABmemTask3,2023.2.3,Win32,59.88023952,,,,,,,,,,,,,,,,,,,,,,,,,,,,,,,534.445,535.4334,535.4335,7,535.9345,536.8679,0.0017,536.9839,0.1147,0.1179,0.115,0.1168,0.117,0.1165,0.1181,0.1161,,,,536.984,537.8513,right,0.8456,,537.8514,538.3173,left,0.4486,,16,0,38,538.3175,539.3173,,,,,,1_AB,L1_T1P_T2P,1,1,1,4,5,3,4,9,antenna,Did you see the antenna,0.12,0,resources/,pics/microscope.jpg,pics/spoon01.jpg,pics/dromedary.jpg,pics/antenna.jpg,pics/stapler03.jpg,pics/hen.jpg,pics/leaf02a.jpg,pics/candle01.jpg,pics/sealion.jpg,blankImage,blankImage,blankImage,blankImage,blankImage,blankImage,blankImage,blankImage,antenna,9,,,,,,,,,,,,,,,,,,,,,,,,,,,,,,,,,,,,,,,,,0,18,18,8,1,,,,,,,,,,,,,,,,,,,,,,,,,,,,,,,,,,,,,,,,,,,,,,,,,,,,,,,
,,,,,5f0bb0a18bf36931d16e58cc,6682b41eeb79ab8215dff63d,6682ba745525b47afe887ad4,31,Female,English,2024-07-01_15h19.17.004,ABmemTask3,2023.2.3,Win32,59.88023952,,,,,,,,,,,,,,,,,,,,,,,,,,,,,,,539.3182,540.3172,540.3173,7,540.8171,542.1001,0.0017,542.2169,0.1158,0.1182,0.1143,0.1174,0.1171,0.1163,0.1165,0.1169,0.1164,0.1164,0.1159,542.217,543.4838,left,1.2475,,543.4839,544.0831,right,0.5865,,18,0,40,544.0833,545.0832,,,,,,1_AB,L5_T1A_T2P,5,0,1,4,9,3,3,12,rooster,Did you see the rooster,0.12,0,resources/,pics/table01.jpg,pics/icecube01.jpg,pics/dustpan.jpg,pics/lock03a.jpg,pics/sailboat.jpg,pics/salmon.jpg,pics/banjo.jpg,pics/zebra.jpg,pics/stapler09.jpg,pics/peach01.jpg,pics/chainsaw.jpg,pics/football.jpg,blankImage,blankImage,blankImage,blankImage,blankImage,rooster,55,,,,,,,,,,,,,,,,,,,,,,,,,,,,,,,,,,,,,,,,,0,19,19,54,1,,,,,,,,,,,,,,,,,,,,,,,,,,,,,,,,,,,,,,,,,,,,,,,,,,,,,,,
,,,,,5f0bb0a18bf36931d16e58cc,6682b41eeb79ab8215dff63d,6682ba745525b47afe887ad4,31,Female,English,2024-07-01_15h19.17.004,ABmemTask3,2023.2.3,Win32,59.88023952,,,,,,,,,,,,,,,,,,,,,,,,,,,,,,,545.1075,546.0995,546.0996,7,546.5994,547.6502,0.0009,547.7664,0.1172,0.1165,0.1164,0.117,0.1166,0.1162,0.1165,0.1163,0.1176,,,547.7664,548.2337,right,0.4449,,548.2338,548.4666,right,0.2235,,20,0,42,548.4668,549.465,,,,,,1_AB,L1_T1P_T2P,1,1,1,4,5,3,5,10,vacuum,Did you see the vacuum,0.12,0,resources/,pics/birdhouse.jpg,pics/floortile02.jpg,pics/toiletpaper01a.jpg,pics/vacuumcleaner01.jpg,pics/stapler02.jpg,pics/spoon01.jpg,pics/banjo.jpg,pics/binder03b.jpg,pics/leaf02a.jpg,pics/aquarium.jpg,blankImage,blankImage,blankImage,blankImage,blankImage,blankImage,blankImage,vacuumcleaner01,5,,,,,,,,,,,,,,,,,,,,,,,,,,,,,,,,,,,,,,,,,0,20,20,4,1,,,,,,,,,,,,,,,,,,,,,,,,,,,,,,,,,,,,,,,,,,,,,,,,,,,,,,,
,,,,,5f0bb0a18bf36931d16e58cc,6682b41eeb79ab8215dff63d,6682ba745525b47afe887ad4,31,Female,English,2024-07-01_15h19.17.004,ABmemTask3,2023.2.3,Win32,59.88023952,,,,,,,,,,,,,,,,,,,,,,,,,,,,,,,549.4654,550.4661,550.4663,7,550.9656,552.5997,0.0015,552.7155,0.1149,0.1172,0.1181,0.1166,0.117,0.117,0.1159,0.1156,0.1168,0.1173,0.1165,552.7156,553.4662,left,0.7303,,553.4663,553.8325,left,0.3512,,20,0,44,553.8327,554.8321,,,,,,1_AB,L5_T1A_T2P,5,0,1,7,12,6,3,15,scissors,Did you see the scissors,0.12,0,resources/,pics/cannon.jpg,pics/mummy.jpg,pics/shovel01.jpg,pics/christmaslights.jpg,pics/snowshoe.jpg,pics/candle01.jpg,pics/bowtie.jpg,pics/giraffe.jpg,pics/carrot01.jpg,pics/spoon01.jpg,pics/seaturtle.jpg,pics/stapler10.jpg,pics/footballhelmet.jpg,pics/onion.jpg,pics/wheel01.jpg,blankImage,blankImage,scissors01,57,0.1166,0.1169,0.1167,,,,,,,,,,,,,,,,,,,,,,,,,,,,,,,,,,,,,,0,21,21,56,1,,,,,,,,,,,,,,,,,,,,,,,,,,,,,,,,,,,,,,,,,,,,,,,,,,,,,,,
,,,,,5f0bb0a18bf36931d16e58cc,6682b41eeb79ab8215dff63d,6682ba745525b47afe887ad4,31,Female,English,2024-07-01_15h19.17.004,ABmemTask3,2023.2.3,Win32,59.88023952,,,,,,,,,,,,,,,,,,,,,,,,,,,,,,,554.8328,555.832,555.8322,7,556.3327,557.3823,0.0022,557.4983,0.1152,0.1161,0.1168,0.116,0.1169,0.1166,0.1166,0.1159,0.1177,,,557.4985,558.4151,left,0.8972,,558.4152,559.1318,left,0.7014,,20,0,46,559.132,560.1315,,,,,,1_AB,L1_T1A_T2P,1,0,1,5,6,4,4,10,button,Did you see the button,0.12,0,resources/,pics/pencil01.jpg,pics/necklace.jpg,pics/sink.jpg,pics/noparkingsign.jpg,pics/banjo.jpg,pics/stapler03b.jpg,pics/candle01.jpg,pics/icecube01.jpg,pics/shovel01.jpg,pics/pencilsharpener02a.jpg,blankImage,blankImage,blankImage,blankImage,blankImage,blankImage,blankImage,button01,25,,,,,,,,,,,,,,,,,,,,,,,,,,,,,,,,,,,,,,,,,0,22,22,24,1,,,,,,,,,,,,,,,,,,,,,,,,,,,,,,,,,,,,,,,,,,,,,,,,,,,,,,,
,,,,,5f0bb0a18bf36931d16e58cc,6682b41eeb79ab8215dff63d,6682ba745525b47afe887ad4,31,Female,English,2024-07-01_15h19.17.004,ABmemTask3,2023.2.3,Win32,59.88023952,,,,,,,,,,,,,,,,,,,,,,,,,,,,,,,560.1521,561.1479,561.148,7,561.6482,563.5147,0.0014,563.6309,0.1162,0.117,0.1161,0.117,0.1166,0.1155,0.1175,0.117,0.116,0.1167,0.1179,563.6311,564.8971,right,1.2425,,564.8972,565.3133,right,0.4075,,14,0,48,565.3133,566.3131,,,,,,1_AB,L5_T1A_T2A,5,0,0,7,12,6,5,17,Bib,Did you see the Bib,0.12,0,resources/,pics/hammerheadshark.jpg,pics/wheel01.jpg,pics/binder03b.jpg,pics/hairdryer02a.jpg,pics/christmaslights.jpg,pics/sandbarshark.jpg,pics/binoculars01b.jpg,pics/piggybank.jpg,pics/aquarium.jpg,pics/candleholder01.jpg,pics/sink.jpg,pics/calendar.jpg,pics/birdhouse.jpg,pics/bowtie.jpg,pics/onion.jpg,pics/golfball.jpg,pics/sailboat.jpg,bib,62,0.1159,0.1153,0.1177,,,,,,,,,,,,,,,,,,,,,,,,,,,,,,,,,,,,,,0,23,23,61,1,0.1169,0.1164,,,,,,,,,,,,,,,,,,,,,,,,,,,,,,,,,,,,,,,,,,,,,,,,,,,,,
,,,,,5f0bb0a18bf36931d16e58cc,6682b41eeb79ab8215dff63d,6682ba745525b47afe887ad4,31,Female,English,2024-07-01_15h19.17.004,ABmemTask3,2023.2.3,Win32,59.88023952,,,,,,,,,,,,,,,,,,,,,,,,,,,,,,,566.3248,567.3132,567.3132,7,567.814,569.3301,0.002,569.447,0.1147,0.1173,0.1164,0.1167,0.116,0.1169,0.1173,0.1168,0.1162,0.117,0.1165,569.4471,570.346,right,0.8787,,570.346,570.8127,right,0.4514,,12,0,50,570.8128,571.8127,,,,,,1_AB,L5_T1P_T2A,5,1,0,6,11,5,3,14,Kiwi,Did you see the Kiwi,0.12,0,resources/,pics/candleholder01.jpg,pics/kangaroo.jpg,pics/banjo.jpg,pics/binoculars01b.jpg,pics/microscope.jpg,pics/kiwi03.jpg,pics/bowtie.jpg,pics/peanut01.jpg,pics/backpack01a.jpg,pics/zebra.jpg,pics/toiletpaper01a.jpg,pics/hen.jpg,pics/spoon01.jpg,pics/calendar.jpg,blankImage,blankImage,blankImage,kiwi03,59,0.1163,0.1167,,,,,,,,,,,,,,,,,,,,,,,,,,,,,,,,,,,,,,,0,24,24,58,1,,,,,,,,,,,,,,,,,,,,,,,,,,,,,,,,,,,,,,,,,,,,,,,,,,,,,,,
,,,,,5f0bb0a18bf36931d16e58cc,6682b41eeb79ab8215dff63d,6682ba745525b47afe887ad4,31,Female,English,2024-07-01_15h19.17.004,ABmemTask3,2023.2.3,Win32,59.88023952,,,,,,,,,,,,,,,,,,,,,,,,,,,,,,,571.813,572.8134,572.8134,7,573.3132,574.9461,0.0023,575.0629,0.114,0.1174,0.1172,0.1166,0.1162,0.117,0.1163,0.1167,0.1163,0.1162,0.1172,575.063,575.5129,right,0.4287,,575.5131,575.7119,right,0.1822,,14,0,52,575.712,576.7125,,,,,,1_AB,L5_T1P_T2P,5,1,1,5,10,4,5,15,dolphin,Did you see the dolphin,0.12,0,resources/,pics/banjo.jpg,pics/shipinabottle.jpg,pics/laptop01a.jpg,pics/onion.jpg,pics/dolphin01.jpg,pics/sink.jpg,pics/seaturtle.jpg,pics/butterfly.jpg,pics/hen.jpg,pics/stapler10.jpg,pics/proboscismonkey.jpg,pics/starfish01.jpg,pics/salmon.jpg,pics/spiderweb.jpg,pics/cymbal.jpg,blankImage,blankImage,dolphin01,49,0.1163,0.1168,0.1162,,,,,,,,,,,,,,,,,,,,,,,,,,,,,,,,,,,,,,0,25,25,48,1,,,,,,,,,,,,,,,,,,,,,,,,,,,,,,,,,,,,,,,,,,,,,,,,,,,,,,,
,,,,,5f0bb0a18bf36931d16e58cc,6682b41eeb79ab8215dff63d,6682ba745525b47afe887ad4,31,Female,English,2024-07-01_15h19.17.004,ABmemTask3,2023.2.3,Win32,59.88023952,,,,,,,,,,,,,,,,,,,,,,,,,,,,,,,576.7135,577.7127,577.7128,7,578.2128,579.2628,0.0022,579.3791,0.1152,0.1155,0.1173,0.117,0.1165,0.1166,0.1171,0.1163,0.1168,,,579.3792,580.2453,left,0.8463,,580.2453,580.4782,left,0.2202,,14,0,54,580.4784,581.478,,,,,,1_AB,L1_T1A_T2P,1,0,1,5,6,4,4,10,Rabbit,Did you see the Rabbit,0.12,0,resources/,pics/cannon.jpg,pics/proboscismonkey.jpg,pics/salmon.jpg,pics/nutcracker01.jpg,pics/seagull.jpg,pics/stapler02.jpg,pics/table01.jpg,pics/laptop01a.jpg,pics/necklace.jpg,pics/pencilsharpener02a.jpg,blankImage,blankImage,blankImage,blankImage,blankImage,blankImage,blankImage,jackrabbit,31,,,,,,,,,,,,,,,,,,,,,,,,,,,,,,,,,,,,,,,,,0,26,26,30,1,,,,,,,,,,,,,,,,,,,,,,,,,,,,,,,,,,,,,,,,,,,,,,,,,,,,,,,
,,,,,5f0bb0a18bf36931d16e58cc,6682b41eeb79ab8215dff63d,6682ba745525b47afe887ad4,31,Female,English,2024-07-01_15h19.17.004,ABmemTask3,2023.2.3,Win32,59.88023952,,,,,,,,,,,,,,,,,,,,,,,,,,,,,,,581.4783,582.4781,582.4781,7,582.9781,583.9124,0.0007,584.028,0.1175,0.117,0.1153,0.1172,0.1173,0.1167,0.1164,0.1168,,,,584.0282,584.9448,left,0.8976,,584.9449,585.5279,left,0.5692,,16,0,56,585.5279,586.5273,,,,,,1_AB,L1_T1A_T2A,1,0,0,4,5,3,4,9,License Plate,Did you see the License Plate,0.12,0,resources/,pics/snowshoe.jpg,pics/kangaroo.jpg,pics/noparkingsign.jpg,pics/match.jpg,pics/hose.jpg,pics/blender.jpg,pics/ashtray01.jpg,pics/ball02.jpg,pics/sink.jpg,blankImage,blankImage,blankImage,blankImage,blankImage,blankImage,blankImage,blankImage,licenseplate,40,,,,,,,,,,,,,,,,,,,,,,,,,,,,,,,,,,,,,,,,,0,27,27,39,1,,,,,,,,,,,,,,,,,,,,,,,,,,,,,,,,,,,,,,,,,,,,,,,,,,,,,,,
,,,,,5f0bb0a18bf36931d16e58cc,6682b41eeb79ab8215dff63d,6682ba745525b47afe887ad4,31,Female,English,2024-07-01_15h19.17.004,ABmemTask3,2023.2.3,Win32,59.88023952,,,,,,,,,,,,,,,,,,,,,,,,,,,,,,,586.5372,587.5272,587.5272,7,588.028,589.1947,0.0025,589.3108,0.1146,0.1172,0.1168,0.1161,0.1161,0.1177,0.1162,0.1173,0.1162,0.1164,,589.3109,589.9948,right,0.6684,,589.9949,590.3443,left,0.3402,,16,0,58,590.3444,591.3439,,,,,,1_AB,L1_T1P_T2P,1,1,1,7,8,6,3,11,Eiffel tower,Did you see the Eiffel tower,0.12,0,resources/,pics/seagull.jpg,pics/cymbal.jpg,pics/match.jpg,pics/binoculars01b.jpg,pics/ball02.jpg,pics/onion.jpg,pics/eiffeltower.jpg,pics/stapler11.jpg,pics/peach01.jpg,pics/sandbarshark.jpg,pics/boot02b.jpg,blankImage,blankImage,blankImage,blankImage,blankImage,blankImage,eiffeltower,1,,,,,,,,,,,,,,,,,,,,,,,,,,,,,,,,,,,,,,,,,0,28,28,0,1,,,,,,,,,,,,,,,,,,,,,,,,,,,,,,,,,,,,,,,,,,,,,,,,,,,,,,,
,,,,,5f0bb0a18bf36931d16e58cc,6682b41eeb79ab8215dff63d,6682ba745525b47afe887ad4,31,Female,English,2024-07-01_15h19.17.004,ABmemTask3,2023.2.3,Win32,59.88023952,,,,,,,,,,,,,,,,,,,,,,,,,,,,,,,591.3447,592.3439,592.344,7,592.8438,593.8943,0.0026,594.0109,0.1155,0.1163,0.1167,0.1176,0.1157,0.1162,0.1166,0.1181,0.1155,,,594.011,594.3927,right,0.3683,,594.3927,594.6267,right,0.2177,,18,0,60,594.6268,595.6264,,,,,,1_AB,L1_T1P_T2P,1,1,1,4,5,3,5,10,chair,Did you see the chair,0.12,0,resources/,pics/zebra.jpg,pics/floortile02.jpg,pics/cork02.jpg,pics/chair.jpg,pics/stapler07.jpg,pics/sealion.jpg,pics/shovel01.jpg,pics/piggybank.jpg,pics/candleholder01.jpg,pics/laptop01a.jpg,blankImage,blankImage,blankImage,blankImage,blankImage,blankImage,blankImage,chair,3,,,,,,,,,,,,,,,,,,,,,,,,,,,,,,,,,,,,,,,,,0,29,29,2,1,,,,,,,,,,,,,,,,,,,,,,,,,,,,,,,,,,,,,,,,,,,,,,,,,,,,,,,
,,,,,5f0bb0a18bf36931d16e58cc,6682b41eeb79ab8215dff63d,6682ba745525b47afe887ad4,31,Female,English,2024-07-01_15h19.17.004,ABmemTask3,2023.2.3,Win32,59.88023952,,,,,,,,,,,,,,,,,,,,,,,,,,,,,,,595.6268,596.6261,596.6261,7,597.1266,598.1771,0.0021,598.2932,0.1159,0.1169,0.1164,0.1164,0.1165,0.1169,0.1169,0.1165,0.1163,,,598.2933,598.9429,right,0.6257,,598.9429,599.4101,left,0.4531,,20,0,62,599.4103,600.4093,,,,,,1_AB,L1_T1P_T2A,1,1,0,6,7,5,3,10,Electric toothbrush,Did you see the Electric toothbrush,0.12,0,resources/,pics/football.jpg,pics/sailboat.jpg,pics/cymbal.jpg,pics/hen.jpg,pics/pencil01.jpg,pics/electrictoothbrush01c.jpg,pics/bowlingpin.jpg,pics/wheel01.jpg,pics/birdhouse.jpg,pics/leaf02a.jpg,blankImage,blankImage,blankImage,blankImage,blankImage,blankImage,blankImage,electrictoothbrush01c,34,,,,,,,,,,,,,,,,,,,,,,,,,,,,,,,,,,,,,,,,,0,30,30,33,1,,,,,,,,,,,,,,,,,,,,,,,,,,,,,,,,,,,,,,,,,,,,,,,,,,,,,,,
,,,,,5f0bb0a18bf36931d16e58cc,6682b41eeb79ab8215dff63d,6682ba745525b47afe887ad4,31,Female,English,2024-07-01_15h19.17.004,ABmemTask3,2023.2.3,Win32,59.88023952,,,,,,,,,,,,,,,,,,,,,,,,,,,,,,,600.4101,601.4096,601.4096,7,601.9096,603.0762,0.0023,603.1925,0.1158,0.1152,0.1171,0.1163,0.117,0.117,0.1151,0.1181,0.1158,0.1171,,603.1926,603.8427,right,0.6309,,603.8428,604.0591,right,0.2011,,18,0,64,604.0592,605.0591,,,,,,1_AB,L1_T1P_T2A,1,1,0,7,8,6,3,11,eggplant,Did you see the eggplant,0.12,0,resources/,pics/salmon.jpg,pics/fanblades.jpg,pics/hammerheadshark.jpg,pics/wheel01.jpg,pics/snowshoe.jpg,pics/birdhouse.jpg,pics/eggplant.jpg,pics/spiderweb.jpg,pics/zebra.jpg,pics/pencilsharpener02a.jpg,pics/backpack01a.jpg,blankImage,blankImage,blankImage,blankImage,blankImage,blankImage,eggplant,32,,,,,,,,,,,,,,,,,,,,,,,,,,,,,,,,,,,,,,,,,0,31,31,31,1,,,,,,,,,,,,,,,,,,,,,,,,,,,,,,,,,,,,,,,,,,,,,,,,,,,,,,,
,,,,,5f0bb0a18bf36931d16e58cc,6682b41eeb79ab8215dff63d,6682ba745525b47afe887ad4,31,Female,English,2024-07-01_15h19.17.004,ABmemTask3,2023.2.3,Win32,59.88023952,,,,,,,,,,,,,,,,,,,,,,,,,,,,,,,605.06,606.0584,606.0585,7,606.5588,607.7249,0.0018,607.8418,0.1159,0.117,0.116,0.1165,0.1172,0.1164,0.1168,0.1159,0.117,0.1156,,607.8419,608.3419,left,0.4832,,608.3421,608.6253,left,0.2701,,20,0,66,608.6255,609.6254,,,,,,1_AB,L1_T1A_T2A,1,0,0,7,8,6,3,11,Poker chips,Did you see the Poker chips,0.12,0,resources/,pics/candle01.jpg,pics/proboscismonkey.jpg,pics/fanblades.jpg,pics/dromedary.jpg,pics/aquarium.jpg,pics/salmon.jpg,pics/hose.jpg,pics/kangaroo.jpg,pics/noparkingsign.jpg,pics/carrot01.jpg,pics/leaf02a.jpg,blankImage,blankImage,blankImage,blankImage,blankImage,blankImage,pokerchips,41,,,,,,,,,,,,,,,,,,,,,,,,,,,,,,,,,,,,,,,,,0,32,32,40,1,,,,,,,,,,,,,,,,,,,,,,,,,,,,,,,,,,,,,,,,,,,,,,,,,,,,,,,
,,,,,5f0bb0a18bf36931d16e58cc,6682b41eeb79ab8215dff63d,6682ba745525b47afe887ad4,31,Female,English,2024-07-01_15h19.17.004,ABmemTask3,2023.2.3,Win32,59.88023952,,,,,,,,,,,,,,,,,,,,,,,,,,,,,,,609.6265,610.6245,610.6245,7,611.1249,612.5255,0.0019,612.6415,0.1158,0.1167,0.1162,0.117,0.1163,0.1158,0.1179,0.1168,0.1175,0.1159,0.1165,612.6416,613.0582,right,0.3933,,613.0582,613.2415,right,0.1674,,22,0,68,613.2416,614.2411,,,,,,1_AB,L1_T1P_T2P,1,1,1,7,8,6,5,13,strawberry,Did you see the strawberry,0.12,0,resources/,pics/sealion.jpg,pics/backpack01a.jpg,pics/binoculars01b.jpg,pics/ball02.jpg,pics/proboscismonkey.jpg,pics/pictureframe04.jpg,pics/strawberry.jpg,pics/stapler12.jpg,pics/seaturtle.jpg,pics/dustpan.jpg,pics/bowlingpin.jpg,pics/hammerheadshark.jpg,pics/hen.jpg,blankImage,blankImage,blankImage,blankImage,strawberry,10,0.1168,,,,,,,,,,,,,,,,,,,,,,,,,,,,,,,,,,,,,,,,0,33,33,9,1,,,,,,,,,,,,,,,,,,,,,,,,,,,,,,,,,,,,,,,,,,,,,,,,,,,,,,,
,,,,,5f0bb0a18bf36931d16e58cc,6682b41eeb79ab8215dff63d,6682ba745525b47afe887ad4,31,Female,English,2024-07-01_15h19.17.004,ABmemTask3,2023.2.3,Win32,59.88023952,,,,,,,,,,,,,,,,,,,,,,,,,,,,,,,614.242,615.2411,615.2412,7,615.7409,616.6747,0.0027,616.79,0.1139,0.1166,0.1181,0.1156,0.1167,0.1174,0.1164,0.1167,,,,616.7901,618.0407,right,1.2378,,618.0409,618.3407,left,0.292,,24,0,70,618.3408,619.3407,,,,,,1_AB,L1_T1P_T2A,1,1,0,4,5,3,4,9,blueberry,Did you see the blueberry,0.12,0,resources/,pics/sealion.jpg,pics/piggybank.jpg,pics/sink.jpg,pics/blueberry01.jpg,pics/onion.jpg,pics/sailboat.jpg,pics/seaturtle.jpg,pics/hen.jpg,pics/fanblades.jpg,blankImage,blankImage,blankImage,blankImage,blankImage,blankImage,blankImage,blankImage,blueberry01,35,,,,,,,,,,,,,,,,,,,,,,,,,,,,,,,,,,,,,,,,,0,34,34,34,1,,,,,,,,,,,,,,,,,,,,,,,,,,,,,,,,,,,,,,,,,,,,,,,,,,,,,,,
,,,,,5f0bb0a18bf36931d16e58cc,6682b41eeb79ab8215dff63d,6682ba745525b47afe887ad4,31,Female,English,2024-07-01_15h19.17.004,ABmemTask3,2023.2.3,Win32,59.88023952,,,,,,,,,,,,,,,,,,,,,,,,,,,,,,,619.3416,620.3406,620.3406,7,620.8398,622.1242,0.0008,622.2402,0.1176,0.1164,0.1167,0.1165,0.1166,0.1168,0.1168,0.1173,0.1151,0.117,0.1178,622.2403,622.607,right,0.349,,622.607,622.8392,right,0.2189,,26,0,72,622.8393,623.8401,,,,,,1_AB,L1_T1P_T2P,1,1,1,6,7,5,5,12,Bear,Did you see the Bear,0.12,0,resources/,pics/necklace.jpg,pics/hen.jpg,pics/dromedary.jpg,pics/piggybank.jpg,pics/sandbarshark.jpg,pics/grizzly.jpg,pics/stapler12.jpg,pics/bowlingpin.jpg,pics/christmaslights.jpg,pics/icecube01.jpg,pics/match.jpg,pics/lock03a.jpg,blankImage,blankImage,blankImage,blankImage,blankImage,grizzly,18,,,,,,,,,,,,,,,,,,,,,,,,,,,,,,,,,,,,,,,,,0,35,35,17,1,,,,,,,,,,,,,,,,,,,,,,,,,,,,,,,,,,,,,,,,,,,,,,,,,,,,,,,
,,,,,5f0bb0a18bf36931d16e58cc,6682b41eeb79ab8215dff63d,6682ba745525b47afe887ad4,31,Female,English,2024-07-01_15h19.17.004,ABmemTask3,2023.2.3,Win32,59.88023952,,,,,,,,,,,,,,,,,,,,,,,,,,,,,,,623.8411,624.84,624.8401,7,625.3404,626.7392,0.0022,626.8561,0.1154,0.1161,0.1162,0.1171,0.1154,0.1171,0.1171,0.1172,0.1162,0.1169,0.1159,626.8563,627.6564,left,0.7766,,627.6566,628.006,right,0.3343,,26,0,74,628.0061,629.0061,,,,,,1_AB,L1_T1P_T2P,1,1,1,7,8,6,5,13,Totem Pole,Did you see the Totem Pole,0.12,0,resources/,pics/laptop01a.jpg,pics/carrot01.jpg,pics/wheel01.jpg,pics/icecube01.jpg,pics/ashtray01.jpg,pics/lock03a.jpg,pics/totempole.jpg,pics/stapler08.jpg,pics/golfball.jpg,pics/pencil01.jpg,pics/banjo.jpg,pics/sandbarshark.jpg,pics/shipinabottle.jpg,blankImage,blankImage,blankImage,blankImage,totempole,22,0.116,,,,,,,,,,,,,,,,,,,,,,,,,,,,,,,,,,,,,,,,0,36,36,21,1,,,,,,,,,,,,,,,,,,,,,,,,,,,,,,,,,,,,,,,,,,,,,,,,,,,,,,,
,,,,,5f0bb0a18bf36931d16e58cc,6682b41eeb79ab8215dff63d,6682ba745525b47afe887ad4,31,Female,English,2024-07-01_15h19.17.004,ABmemTask3,2023.2.3,Win32,59.88023952,,,,,,,,,,,,,,,,,,,,,,,,,,,,,,,629.0071,630.0057,630.0057,7,630.506,631.6731,0.0026,631.7894,0.1154,0.1164,0.1172,0.1148,0.1181,0.1163,0.1168,0.1166,0.116,0.1177,,631.7895,632.3557,right,0.5449,,632.3559,632.5556,right,0.1844,,28,0,76,632.5556,633.5554,,,,,,1_AB,L1_T1P_T2P,1,1,1,7,8,6,3,11,toothpick,Did you see the toothpick,0.12,0,resources/,pics/candleholder01.jpg,pics/blender.jpg,pics/siamesecat.jpg,pics/peanut01.jpg,pics/spiderweb.jpg,pics/football.jpg,pics/toothpick02.jpg,pics/stapler04b.jpg,pics/seagull.jpg,pics/pictureframe04.jpg,pics/shipinabottle.jpg,blankImage,blankImage,blankImage,blankImage,blankImage,blankImage,toothpick02,17,,,,,,,,,,,,,,,,,,,,,,,,,,,,,,,,,,,,,,,,,0,37,37,16,1,,,,,,,,,,,,,,,,,,,,,,,,,,,,,,,,,,,,,,,,,,,,,,,,,,,,,,,
,,,,,5f0bb0a18bf36931d16e58cc,6682b41eeb79ab8215dff63d,6682ba745525b47afe887ad4,31,Female,English,2024-07-01_15h19.17.004,ABmemTask3,2023.2.3,Win32,59.88023952,,,,,,,,,,,,,,,,,,,,,,,,,,,,,,,633.5562,634.5553,634.5555,7,635.0548,636.4551,0.0014,636.5718,0.1168,0.1177,0.1154,0.116,0.1172,0.1159,0.1165,0.1165,0.1177,0.1175,0.1159,636.5718,637.354,left,0.7596,,637.354,637.5719,left,0.2042,,30,0,78,637.572,638.5714,,,,,,1_AB,L1_T1A_T2A,1,0,0,7,8,6,5,13,fan,Did you see the fan,0.12,0,resources/,pics/leaf02a.jpg,pics/dustpan.jpg,pics/pencil01.jpg,pics/kangaroo.jpg,pics/golfball.jpg,pics/lightswitch01.jpg,pics/nutcracker01.jpg,pics/calendar.jpg,pics/hose.jpg,pics/starfish01.jpg,pics/siamesecat.jpg,pics/bowlingpin.jpg,pics/necklace.jpg,blankImage,blankImage,blankImage,blankImage,fan,42,0.116,,,,,,,,,,,,,,,,,,,,,,,,,,,,,,,,,,,,,,,,0,38,38,41,1,,,,,,,,,,,,,,,,,,,,,,,,,,,,,,,,,,,,,,,,,,,,,,,,,,,,,,,
,,,,,5f0bb0a18bf36931d16e58cc,6682b41eeb79ab8215dff63d,6682ba745525b47afe887ad4,31,Female,English,2024-07-01_15h19.17.004,ABmemTask3,2023.2.3,Win32,59.88023952,,,,,,,,,,,,,,,,,,,,,,,,,,,,,,,638.5722,639.5714,639.5715,7,640.0709,640.8883,0.0008,641.004,0.1166,0.1174,0.1161,0.1165,0.1174,0.1164,0.1166,,,,,641.0041,641.8041,left,0.7803,,641.8041,642.2545,right,0.4423,,32,0,80,642.2546,643.2543,,,,,,1_AB,L1_T1A_T2P,1,0,1,4,5,3,3,8,Parking meter,Did you see the Parking meter,0.12,0,resources/,pics/leaf02a.jpg,pics/carrot01.jpg,pics/sink.jpg,pics/butterfly.jpg,pics/stapler10.jpg,pics/pictureframe04.jpg,pics/spiderweb.jpg,pics/icecube01.jpg,blankImage,blankImage,blankImage,blankImage,blankImage,blankImage,blankImage,blankImage,blankImage,parkingmeter,30,,,,,,,,,,,,,,,,,,,,,,,,,,,,,,,,,,,,,,,,,0,39,39,29,1,,,,,,,,,,,,,,,,,,,,,,,,,,,,,,,,,,,,,,,,,,,,,,,,,,,,,,,
,,,,,5f0bb0a18bf36931d16e58cc,6682b41eeb79ab8215dff63d,6682ba745525b47afe887ad4,31,Female,English,2024-07-01_15h19.17.004,ABmemTask3,2023.2.3,Win32,59.88023952,,,,,,,,,,,,,,,,,,,,,,,,,,,,,,,643.2554,644.2541,644.2541,7,644.7539,645.6883,0.0024,645.8037,0.1153,0.1167,0.1152,0.1179,0.1165,0.1155,0.1169,0.1184,,,,645.8039,646.4375,left,0.6153,,646.4376,646.9709,right,0.5191,,34,0,82,646.9711,647.9701,,,,,,1_AB,L1_T1A_T2P,1,0,1,5,6,4,3,9,Trailer,Did you see the Trailer,0.12,0,resources/,pics/pencil01.jpg,pics/football.jpg,pics/hairdryer02a.jpg,pics/wheel01.jpg,pics/chainsaw.jpg,pics/stapler10.jpg,pics/peanut01.jpg,pics/triangle.jpg,pics/sink.jpg,blankImage,blankImage,blankImage,blankImage,blankImage,blankImage,blankImage,blankImage,boxtrailer,29,,,,,,,,,,,,,,,,,,,,,,,,,,,,,,,,,,,,,,,,,0,40,40,28,1,,,,,,,,,,,,,,,,,,,,,,,,,,,,,,,,,,,,,,,,,,,,,,,,,,,,,,,
,,,,,5f0bb0a18bf36931d16e58cc,6682b41eeb79ab8215dff63d,6682ba745525b47afe887ad4,31,Female,English,2024-07-01_15h19.17.004,ABmemTask3,2023.2.3,Win32,59.88023952,,,,,,,,,,,,,,,,,,,,,,,,,,,,,,,647.9711,648.9702,648.9703,7,649.4701,650.6371,0.0024,650.753,0.1152,0.1169,0.1165,0.1167,0.1169,0.1154,0.1172,0.1165,0.1166,0.1171,,650.753,651.6024,right,0.8358,,651.6024,651.8692,left,0.2526,,34,0,84,651.8693,652.8692,,,,,,1_AB,L1_T1P_T2P,1,1,1,7,8,6,3,11,medal,Did you see the medal,0.12,0,resources/,pics/hen.jpg,pics/starfish01.jpg,pics/nutcracker01.jpg,pics/ball02.jpg,pics/fanblades.jpg,pics/christmaslights.jpg,pics/medal02b.jpg,pics/stapler09.jpg,pics/carrot01.jpg,pics/hammerheadshark.jpg,pics/sailboat.jpg,blankImage,blankImage,blankImage,blankImage,blankImage,blankImage,medal02b,19,,,,,,,,,,,,,,,,,,,,,,,,,,,,,,,,,,,,,,,,,0,41,41,18,1,,,,,,,,,,,,,,,,,,,,,,,,,,,,,,,,,,,,,,,,,,,,,,,,,,,,,,,
,,,,,5f0bb0a18bf36931d16e58cc,6682b41eeb79ab8215dff63d,6682ba745525b47afe887ad4,31,Female,English,2024-07-01_15h19.17.004,ABmemTask3,2023.2.3,Win32,59.88023952,,,,,,,,,,,,,,,,,,,,,,,,,,,,,,,652.8699,653.869,653.8691,7,654.369,655.8861,0.0014,656.0026,0.1163,0.1156,0.1162,0.1171,0.1168,0.1176,0.1155,0.1182,0.1167,0.1155,0.1174,656.0028,656.402,right,0.3805,,656.402,656.5691,right,0.1511,,36,0,86,656.5693,657.5689,,,,,,1_AB,L5_T1P_T2P,5,1,1,6,11,5,3,14,mail box,Did you see the mail box,0.12,0,resources/,pics/pictureframe04.jpg,pics/seaturtle.jpg,pics/blender.jpg,pics/carrot01.jpg,pics/nutcracker01.jpg,pics/mailbox02.jpg,pics/seagull.jpg,pics/sink.jpg,pics/siamesecat.jpg,pics/spiderweb.jpg,pics/stapler08.jpg,pics/safetypin.jpg,pics/candle01.jpg,pics/mummy.jpg,blankImage,blankImage,blankImage,mailbox02,43,0.1166,0.1165,,,,,,,,,,,,,,,,,,,,,,,,,,,,,,,,,,,,,,,0,42,42,42,1,,,,,,,,,,,,,,,,,,,,,,,,,,,,,,,,,,,,,,,,,,,,,,,,,,,,,,,
,,,,,5f0bb0a18bf36931d16e58cc,6682b41eeb79ab8215dff63d,6682ba745525b47afe887ad4,31,Female,English,2024-07-01_15h19.17.004,ABmemTask3,2023.2.3,Win32,59.88023952,,,,,,,,,,,,,,,,,,,,,,,,,,,,,,,657.5699,658.5678,658.5678,7,659.0685,660.1193,0.002,660.2348,0.1154,0.117,0.1168,0.1164,0.1163,0.1166,0.1172,0.1166,0.117,,,660.2348,660.8683,right,0.6226,,660.8685,661.0515,right,0.1734,,38,0,88,661.0517,662.0518,,,,,,1_AB,L1_T1P_T2P,1,1,1,5,6,4,4,10,thermometer,Did you see the thermometer,0.12,0,resources/,pics/triangle.jpg,pics/shovel01.jpg,pics/mummy.jpg,pics/noparkingsign.jpg,pics/thermometer02b.jpg,pics/stapler04.jpg,pics/piggybank.jpg,pics/golfball.jpg,pics/laptop01a.jpg,pics/aquarium.jpg,blankImage,blankImage,blankImage,blankImage,blankImage,blankImage,blankImage,thermometer02b,8,,,,,,,,,,,,,,,,,,,,,,,,,,,,,,,,,,,,,,,,,0,43,43,7,1,,,,,,,,,,,,,,,,,,,,,,,,,,,,,,,,,,,,,,,,,,,,,,,,,,,,,,,
,,,,,5f0bb0a18bf36931d16e58cc,6682b41eeb79ab8215dff63d,6682ba745525b47afe887ad4,31,Female,English,2024-07-01_15h19.17.004,ABmemTask3,2023.2.3,Win32,59.88023952,,,,,,,,,,,,,,,,,,,,,,,,,,,,,,,662.0527,663.0514,663.0515,7,663.5512,665.0684,0.0021,665.1845,0.1156,0.1166,0.1165,0.1166,0.1165,0.117,0.117,0.1162,0.1168,0.1162,0.1169,665.1845,665.5508,right,0.351,,665.5509,665.7181,right,0.152,,40,0,90,665.7183,666.7175,,,,,,1_AB,L5_T1P_T2P,5,1,1,6,11,5,3,14,truck,Did you see the truck,0.12,0,resources/,pics/calendar.jpg,pics/mummy.jpg,pics/ashtray01.jpg,pics/pencilsharpener02a.jpg,pics/dustpan.jpg,pics/boxtruck.jpg,pics/lightswitch01.jpg,pics/pictureframe04.jpg,pics/starfish01.jpg,pics/zebra.jpg,pics/stapler12.jpg,pics/bowtie.jpg,pics/candleholder01.jpg,pics/candle01.jpg,blankImage,blankImage,blankImage,boxtruck,50,0.117,0.1167,,,,,,,,,,,,,,,,,,,,,,,,,,,,,,,,,,,,,,,0,44,44,49,1,,,,,,,,,,,,,,,,,,,,,,,,,,,,,,,,,,,,,,,,,,,,,,,,,,,,,,,
