consent1.started,consent1.stopped,key_resp_8.keys,key_resp_8.rt,key_resp_8.duration,PROLIFIC_PID,STUDY_ID,SESSION_ID,age,sex,native language,date,expName,psychopyVersion,OS,frameRate,consent2.started,consent2.stopped,key_resp_9.keys,key_resp_9.rt,key_resp_9.duration,consent3.started,consent3.stopped,key_resp_10.keys,key_resp_10.rt,key_resp_10.duration,consent4.started,consent4.stopped,key_resp_11.keys,key_resp_11.rt,key_resp_11.duration,consent5.started,consent5.stopped,key_resp_12.keys,key_resp_12.rt,key_resp_12.duration,bonusInstruct.started,bonusInstruct.stopped,key_resp_14.keys,key_resp_14.rt,key_resp_14.duration,practiceInstruct.started,practiceInstruct.stopped,key_resp.keys,key_resp.rt,key_resp.duration,cueWord_2.started,cueWord_2.stopped,fix.started,frameTarget,fix.stopped,trial.started,img1Add,trial.stopped,img2Add,img3Add,img4Add,img5Add,img6Add,img7Add,img8Add,img9Add,img10Add,img11Add,img12Add,prompt1.started,prompt1.stopped,key_resp_2.keys,key_resp_2.rt,key_resp_2.duration,prompt2.started,prompt2.stopped,key_resp_3.keys,key_resp_3.rt,key_resp_3.duration,runningAcc_AB,runningTotal,runningCount_AB,feedback.started,feedback.stopped,trials.thisRepN,trials.thisTrialN,trials.thisN,trials.thisIndex,trials.ran,TrialType,CondType,Lag,T1_PA,T2_PA,T1Loc,T2Loc,PreDistractor,PostDistractor,TotalImg,cueWord,T1cue,StimLength,isi,PicFolder,Img1,Img2,Img3,Img4,Img5,Img6,Img7,Img8,Img9,Img10,Img11,Img12,Img13,Img14,Img15,Img16,Img17,T1_Identity,trialID,img13Add,img14Add,img15Add,ABfeedback.started,ABfeedback.stopped,key_resp_13.keys,key_resp_13.rt,key_resp_13.duration,MemPracticeInstruction.started,MemPracticeInstruction.stopped,key_resp_5.keys,key_resp_5.rt,key_resp_5.duration,memTrial.started,memTrial.stopped,Mem_runningPoints,key_resp_4.keys,key_resp_4.rt,key_resp_4.duration,memTrialFeedback.started,memTrialFeedback.stopped,trials_2.thisRepN,trials_2.thisTrialN,trials_2.thisN,trials_2.thisIndex,trials_2.ran,ABtrialID,priorLag,image,memFeedback.started,memFeedback.frame,memFeedback.ended,memFeedback.stopped,bonus.started,bonus.stopped,memoryBlockABInstruct.started,memoryBlockABInstruct.stopped,key_resp_6.keys,key_resp_6.rt,key_resp_6.duration,AB_block_1.thisRepN,AB_block_1.thisTrialN,AB_block_1.thisN,AB_block_1.thisIndex,AB_block_1.ran,img16Add,img17Add,AB_break1.started,AB_break1.stopped,PerceiveBlockABInstruct.started,PerceiveBlockABInstruct.stopped,key_resp_7.keys,key_resp_7.rt,key_resp_7.duration,AB_block_2.thisRepN,AB_block_2.thisTrialN,AB_block_2.thisN,AB_block_2.thisIndex,AB_block_2.ran,AB_break2.started,AB_break2.stopped,AB_block_3.thisRepN,AB_block_3.thisTrialN,AB_block_3.thisN,AB_block_3.thisIndex,AB_block_3.ran,AB_break3.started,AB_break3.stopped,AB_block_4.thisRepN,AB_block_4.thisTrialN,AB_block_4.thisN,AB_block_4.thisIndex,AB_block_4.ran,AB_break4.started,AB_break4.stopped,AB_block_5.thisRepN,AB_block_5.thisTrialN,AB_block_5.thisN,AB_block_5.thisIndex,AB_block_5.ran,AB_break5.started,AB_break5.stopped,AB_block_6.thisRepN,AB_block_6.thisTrialN,AB_block_6.thisN,AB_block_6.thisIndex,AB_block_6.ran,AB_break6.started,AB_break6.stopped,MemInstructionSURPRISE.started,MemInstructionSURPRISE.stopped,MemInstruction.started,MemInstruction.stopped,memBreak.started,memBreak.stopped,Mem_block_1.thisRepN,Mem_block_1.thisTrialN,Mem_block_1.thisN,Mem_block_1.thisIndex,Mem_block_1.ran
0.0004,8.0474,space,8.0194,,5f12749ec1ac141c20bf38ab,6669d216483b4754e2264ff7,6669dd04cc691848d195ec38,22,Female,English,2024-06-12_10h40.23.438,ABmemTask3,2023.2.3,MacIntel,60.24096386,,,,,,,,,,,,,,,,,,,,,,,,,,,,,,,,,,,,,,,,,,,,,,,,,,,,,,,,,,,,,,,,,,,,,,,,,,,,,,,,,,,,,,,,,,,,,,,,,,,,,,,,,,,,,,,,,,,,,,,,,,,,,,,,,,,,,,,,,,,,,,,,,,,,,,,,,,,,,,,,,,,,,,,,,,,,,,,,,,,,,,,,,,,,,,,,,,,,,,,,,,,
,,,,,5f12749ec1ac141c20bf38ab,6669d216483b4754e2264ff7,6669dd04cc691848d195ec38,22,Female,English,2024-06-12_10h40.23.438,ABmemTask3,2023.2.3,MacIntel,60.24096386,8.0477,17.4804,space,9.3917,,,,,,,,,,,,,,,,,,,,,,,,,,,,,,,,,,,,,,,,,,,,,,,,,,,,,,,,,,,,,,,,,,,,,,,,,,,,,,,,,,,,,,,,,,,,,,,,,,,,,,,,,,,,,,,,,,,,,,,,,,,,,,,,,,,,,,,,,,,,,,,,,,,,,,,,,,,,,,,,,,,,,,,,,,,,,,,,,,,,,,,,,,,,,,,,,,,,,,,
,,,,,5f12749ec1ac141c20bf38ab,6669d216483b4754e2264ff7,6669dd04cc691848d195ec38,22,Female,English,2024-06-12_10h40.23.438,ABmemTask3,2023.2.3,MacIntel,60.24096386,,,,,,17.4804,23.3134,space,5.8068,,,,,,,,,,,,,,,,,,,,,,,,,,,,,,,,,,,,,,,,,,,,,,,,,,,,,,,,,,,,,,,,,,,,,,,,,,,,,,,,,,,,,,,,,,,,,,,,,,,,,,,,,,,,,,,,,,,,,,,,,,,,,,,,,,,,,,,,,,,,,,,,,,,,,,,,,,,,,,,,,,,,,,,,,,,,,,,,,,,,,,,,,,,,,,,,,,
,,,,,5f12749ec1ac141c20bf38ab,6669d216483b4754e2264ff7,6669dd04cc691848d195ec38,22,Female,English,2024-06-12_10h40.23.438,ABmemTask3,2023.2.3,MacIntel,60.24096386,,,,,,,,,,,23.3135,26.1285,space,2.7948,,,,,,,,,,,,,,,,,,,,,,,,,,,,,,,,,,,,,,,,,,,,,,,,,,,,,,,,,,,,,,,,,,,,,,,,,,,,,,,,,,,,,,,,,,,,,,,,,,,,,,,,,,,,,,,,,,,,,,,,,,,,,,,,,,,,,,,,,,,,,,,,,,,,,,,,,,,,,,,,,,,,,,,,,,,,,,,,,,,,,,,,,,,,,
,,,,,5f12749ec1ac141c20bf38ab,6669d216483b4754e2264ff7,6669dd04cc691848d195ec38,22,Female,English,2024-06-12_10h40.23.438,ABmemTask3,2023.2.3,MacIntel,60.24096386,,,,,,,,,,,,,,,,26.1286,27.262,space,1.111,,,,,,,,,,,,,,,,,,,,,,,,,,,,,,,,,,,,,,,,,,,,,,,,,,,,,,,,,,,,,,,,,,,,,,,,,,,,,,,,,,,,,,,,,,,,,,,,,,,,,,,,,,,,,,,,,,,,,,,,,,,,,,,,,,,,,,,,,,,,,,,,,,,,,,,,,,,,,,,,,,,,,,,,,,,,,,,,,,,,,,,,
,,,,,5f12749ec1ac141c20bf38ab,6669d216483b4754e2264ff7,6669dd04cc691848d195ec38,22,Female,English,2024-06-12_10h40.23.438,ABmemTask3,2023.2.3,MacIntel,60.24096386,,,,,,,,,,,,,,,,,,,,,27.2621,36.9617,space,9.6768,,,,,,,,,,,,,,,,,,,,,,,,,,,,,,,,,,,,,,,,,,,,,,,,,,,,,,,,,,,,,,,,,,,,,,,,,,,,,,,,,,,,,,,,,,,,,,,,,,,,,,,,,,,,,,,,,,,,,,,,,,,,,,,,,,,,,,,,,,,,,,,,,,,,,,,,,,,,,,,,,,,,,,,,,,,,,,,,,,,
,,,,,5f12749ec1ac141c20bf38ab,6669d216483b4754e2264ff7,6669dd04cc691848d195ec38,22,Female,English,2024-06-12_10h40.23.438,ABmemTask3,2023.2.3,MacIntel,60.24096386,,,,,,,,,,,,,,,,,,,,,,,,,,36.9618,54.0784,space,17.097,,,,,,,,,,,,,,,,,,,,,,,,,,,,,,,,,,,,,,,,,,,,,,,,,,,,,,,,,,,,,,,,,,,,,,,,,,,,,,,,,,,,,,,,,,,,,,,,,,,,,,,,,,,,,,,,,,,,,,,,,,,,,,,,,,,,,,,,,,,,,,,,,,,,,,,,,,,,,,,,,,,,,,,,,,,,,,
,,,,,5f12749ec1ac141c20bf38ab,6669d216483b4754e2264ff7,6669dd04cc691848d195ec38,22,Female,English,2024-06-12_10h40.23.438,ABmemTask3,2023.2.3,MacIntel,60.24096386,,,,,,,,,,,,,,,,,,,,,,,,,,,,,,,54.092,55.0965,55.0968,15,55.5954,58.3456,0.0011,58.5954,0.2478,0.2516,0.2487,0.2509,0.2525,0.2463,0.2502,0.2496,0.25,0.2507,0.251,58.5959,61.3436,right,2.735,,61.3436,62.4937,left,1.1396,,2,0,2,62.4938,63.4935,0,0,0,0,1,prac_AB,L1_T1P_T2A,1,1,0,6,7,5,5,12,cat,Did you see the cat,0.25,0,resources/,pics/shipinabottle.jpg,pics/table01.jpg,pics/dustpan.jpg,pics/golfball.jpg,pics/giraffe.jpg,pics/cat.jpg,pics/peanut01.jpg,pics/pictureframe04.jpg,pics/fanblades.jpg,pics/laptop01a.jpg,pics/ball02.jpg,pics/blender.jpg,blankImage,blankImage,blankImage,blankImage,blankImage,cat,8,,,,,,,,,,,,,,,,,,,,,,,,,,,,,,,,,,,,,,,,,,,,,,,,,,,,,,,,,,,,,,,,,,,,,,,,,,,,,,,,,,,,,,,,,,,,,,,,,,,,
,,,,,5f12749ec1ac141c20bf38ab,6669d216483b4754e2264ff7,6669dd04cc691848d195ec38,22,Female,English,2024-06-12_10h40.23.438,ABmemTask3,2023.2.3,MacIntel,60.24096386,,,,,,,,,,,,,,,,,,,,,,,,,,,,,,,63.5004,64.4941,64.4942,14,64.9962,67.094,0.0005,67.3266,0.2333,0.2306,0.2337,0.2333,0.2357,0.2308,0.234,0.2328,0.2333,,,67.3267,68.5134,right,1.1659,,68.5135,68.9774,right,0.4539,,4,0,4,68.9776,69.9778,0,1,1,1,1,prac_AB,L1_T1P_T2P,1,1,1,5,6,4,4,10,tree,Did you see the tree,0.24,0,resources/,pics/carrot01.jpg,pics/hammerheadshark.jpg,pics/kangaroo.jpg,pics/proboscismonkey.jpg,pics/tree.jpg,pics/stapler07.jpg,pics/siamesecat.jpg,pics/ball02.jpg,pics/pictureframe04.jpg,pics/mummy.jpg,blankImage,blankImage,blankImage,blankImage,blankImage,blankImage,blankImage,tree,1,,,,,,,,,,,,,,,,,,,,,,,,,,,,,,,,,,,,,,,,,,,,,,,,,,,,,,,,,,,,,,,,,,,,,,,,,,,,,,,,,,,,,,,,,,,,,,,,,,,,
,,,,,5f12749ec1ac141c20bf38ab,6669d216483b4754e2264ff7,6669dd04cc691848d195ec38,22,Female,English,2024-06-12_10h40.23.438,ABmemTask3,2023.2.3,MacIntel,60.24096386,,,,,,,,,,,,,,,,,,,,,,,,,,,,,,,69.9785,70.9789,70.9789,14,71.4775,74.0457,0.0007,74.279,0.2322,0.2357,0.2351,0.2295,0.2345,0.234,0.2337,0.2333,0.2333,0.2335,0.233,74.279,75.7289,left,1.4289,,75.7289,76.3446,right,0.6069,,6,0,6,76.3447,77.3454,0,2,2,2,1,prac_AB,L1_T1A_T2P,1,0,1,7,8,6,4,12,grapes,Did you see the grapes,0.23,0,resources/,pics/sailboat.jpg,pics/butterfly.jpg,pics/giraffe.jpg,pics/spoon01.jpg,pics/hose.jpg,pics/nutcracker01.jpg,pics/table01.jpg,pics/stapler13.jpg,pics/pencil01.jpg,pics/football.jpg,pics/triangle.jpg,pics/hairdryer02a.jpg,blankImage,blankImage,blankImage,blankImage,blankImage,grape01,6,,,,,,,,,,,,,,,,,,,,,,,,,,,,,,,,,,,,,,,,,,,,,,,,,,,,,,,,,,,,,,,,,,,,,,,,,,,,,,,,,,,,,,,,,,,,,,,,,,,,
,,,,,5f12749ec1ac141c20bf38ab,6669d216483b4754e2264ff7,6669dd04cc691848d195ec38,22,Female,English,2024-06-12_10h40.23.438,ABmemTask3,2023.2.3,MacIntel,60.24096386,,,,,,,,,,,,,,,,,,,,,,,,,,,,,,,77.354,78.346,78.346,13,78.8449,81.8806,0.0011,82.0944,0.2172,0.216,0.2167,0.2162,0.2193,0.2148,0.2164,0.2158,0.2163,0.2177,0.2168,82.0945,83.0791,right,0.9628,,83.0791,83.4606,right,0.3686,,8,0,8,83.4607,84.4616,0,3,3,3,1,prac_AB,L5_T1P_T2P,5,1,1,7,12,6,3,15,Human skull,Did you see the Human skull,0.22,0,resources/,pics/peach01.jpg,pics/proboscismonkey.jpg,pics/hose.jpg,pics/laptop01a.jpg,pics/hammerheadshark.jpg,pics/nutcracker01.jpg,pics/humanskull.jpg,pics/table01.jpg,pics/icecube01.jpg,pics/boot02b.jpg,pics/calendar.jpg,pics/stapler03a.jpg,pics/ashtray01.jpg,pics/giraffe.jpg,pics/dromedary.jpg,blankImage,blankImage,humanskull,12,0.2161,0.2169,0.2187,,,,,,,,,,,,,,,,,,,,,,,,,,,,,,,,,,,,,,,,,,,,,,,,,,,,,,,,,,,,,,,,,,,,,,,,,,,,,,,,,,,,,,,,,,,,,,,,,
,,,,,5f12749ec1ac141c20bf38ab,6669d216483b4754e2264ff7,6669dd04cc691848d195ec38,22,Female,English,2024-06-12_10h40.23.438,ABmemTask3,2023.2.3,MacIntel,60.24096386,,,,,,,,,,,,,,,,,,,,,,,,,,,,,,,84.4715,85.4605,85.4606,13,85.9621,88.1292,0.0011,88.3454,0.2152,0.2171,0.2171,0.2163,0.2187,0.2143,0.2193,0.2145,0.2158,0.2179,,88.3455,89.5957,left,1.2297,,89.5958,90.1954,right,0.5854,,10,0,10,90.1954,91.1947,0,4,4,4,1,prac_AB,L1_T1A_T2P,1,0,1,7,8,6,3,11,dog,Did you see the dog,0.21,0,resources/,pics/ball02.jpg,pics/binder03b.jpg,pics/dromedary.jpg,pics/shipinabottle.jpg,pics/proboscismonkey.jpg,pics/laptop01a.jpg,pics/chainsaw.jpg,pics/stapler13.jpg,pics/nutcracker01.jpg,pics/carrot01.jpg,pics/calendar.jpg,blankImage,blankImage,blankImage,blankImage,blankImage,blankImage,saintbernard,7,,,,,,,,,,,,,,,,,,,,,,,,,,,,,,,,,,,,,,,,,,,,,,,,,,,,,,,,,,,,,,,,,,,,,,,,,,,,,,,,,,,,,,,,,,,,,,,,,,,,
,,,,,5f12749ec1ac141c20bf38ab,6669d216483b4754e2264ff7,6669dd04cc691848d195ec38,22,Female,English,2024-06-12_10h40.23.438,ABmemTask3,2023.2.3,MacIntel,60.24096386,,,,,,,,,,,,,,,,,,,,,,,,,,,,,,,91.1952,92.1937,92.1939,12,92.6948,95.4955,0.001,95.6951,0.1998,0.2,0.2003,0.1998,0.2,0.2003,0.1993,0.1979,0.2019,0.2003,0.2072,95.6951,96.5112,right,0.7965,,96.5112,97.095,right,0.5677,,12,0,12,97.0951,98.0944,0,5,5,5,1,prac_AB,L5_T1P_T2P,5,1,1,5,10,4,5,15,grater,Did you see the grater,0.2,0,resources/,pics/pencil01.jpg,pics/laptop01a.jpg,pics/hammerheadshark.jpg,pics/cork02.jpg,pics/grater01a.jpg,pics/shipinabottle.jpg,pics/binder03b.jpg,pics/dromedary.jpg,pics/pictureframe04.jpg,pics/stapler04b.jpg,pics/fanblades.jpg,pics/aquarium.jpg,pics/hairdryer02a.jpg,pics/lightswitch01.jpg,pics/piggybank.jpg,blankImage,blankImage,grater01a,11,0.1907,0.2014,0.2011,,,,,,,,,,,,,,,,,,,,,,,,,,,,,,,,,,,,,,,,,,,,,,,,,,,,,,,,,,,,,,,,,,,,,,,,,,,,,,,,,,,,,,,,,,,,,,,,,
,,,,,5f12749ec1ac141c20bf38ab,6669d216483b4754e2264ff7,6669dd04cc691848d195ec38,22,Female,English,2024-06-12_10h40.23.438,ABmemTask3,2023.2.3,MacIntel,60.24096386,,,,,,,,,,,,,,,,,,,,,,,,,,,,,,,98.095,99.0952,99.0953,11,99.5971,101.0609,0.0012,101.2448,0.1805,0.1836,0.1847,0.1818,0.1815,0.1832,0.1836,0.1841,,,,101.2449,102.2936,right,1.0352,,102.2937,102.779,left,0.4665,,14,0,14,102.7791,103.7783,0,6,6,6,1,prac_AB,L1_T1P_T2A,1,1,0,4,5,3,4,9,chalk,Did you see the chalk,0.19,0,resources/,pics/necklace.jpg,pics/starfish01.jpg,pics/safetypin.jpg,pics/chalk.jpg,pics/candleholder01.jpg,pics/bowtie.jpg,pics/match.jpg,pics/candle01.jpg,pics/pencilsharpener02a.jpg,blankImage,blankImage,blankImage,blankImage,blankImage,blankImage,blankImage,blankImage,chalk,9,,,,,,,,,,,,,,,,,,,,,,,,,,,,,,,,,,,,,,,,,,,,,,,,,,,,,,,,,,,,,,,,,,,,,,,,,,,,,,,,,,,,,,,,,,,,,,,,,,,,
,,,,,5f12749ec1ac141c20bf38ab,6669d216483b4754e2264ff7,6669dd04cc691848d195ec38,22,Female,English,2024-06-12_10h40.23.438,ABmemTask3,2023.2.3,MacIntel,60.24096386,,,,,,,,,,,,,,,,,,,,,,,,,,,,,,,103.7789,104.778,104.778,11,105.2793,106.9266,0.0011,107.1116,0.181,0.1826,0.185,0.1826,0.1829,0.1841,0.1833,0.1833,0.1816,,,107.1117,107.9969,right,0.8669,,107.9969,108.5778,right,0.5685,,16,0,16,108.5779,109.5779,0,7,7,7,1,prac_AB,L1_T1P_T2P,1,1,1,5,6,4,4,10,pants,Did you see the pants,0.18,0,resources/,pics/kangaroo.jpg,pics/safetypin.jpg,pics/salmon.jpg,pics/sandbarshark.jpg,pics/pants.jpg,pics/stapler03a.jpg,pics/sink.jpg,pics/calendar.jpg,pics/butterfly.jpg,pics/fanblades.jpg,blankImage,blankImage,blankImage,blankImage,blankImage,blankImage,blankImage,pants,2,,,,,,,,,,,,,,,,,,,,,,,,,,,,,,,,,,,,,,,,,,,,,,,,,,,,,,,,,,,,,,,,,,,,,,,,,,,,,,,,,,,,,,,,,,,,,,,,,,,,
,,,,,5f12749ec1ac141c20bf38ab,6669d216483b4754e2264ff7,6669dd04cc691848d195ec38,22,Female,English,2024-06-12_10h40.23.438,ABmemTask3,2023.2.3,MacIntel,60.24096386,,,,,,,,,,,,,,,,,,,,,,,,,,,,,,,109.5785,110.5805,110.5806,10,111.0775,113.4115,0.0006,113.5774,0.1664,0.1672,0.1669,0.1664,0.1668,0.1668,0.1665,0.1663,0.1678,0.1661,0.1666,113.5775,114.9776,left,1.382,,114.9777,115.5768,right,0.5898,,18,0,18,115.5768,116.5781,0,8,8,8,1,prac_AB,L5_T1A_T2P,5,0,1,7,12,6,3,15,shirt,Did you see the shirt,0.17,0,resources/,pics/banjo.jpg,pics/chainsaw.jpg,pics/sailboat.jpg,pics/shipinabottle.jpg,pics/lightswitch01.jpg,pics/starfish01.jpg,pics/hen.jpg,pics/ball02.jpg,pics/bowlingpin.jpg,pics/hammerheadshark.jpg,pics/footballhelmet.jpg,pics/stapler10.jpg,pics/laptop01a.jpg,pics/cannon.jpg,pics/golfball.jpg,blankImage,blankImage,shirt02,13,0.1653,0.1677,0.1668,,,,,,,,,,,,,,,,,,,,,,,,,,,,,,,,,,,,,,,,,,,,,,,,,,,,,,,,,,,,,,,,,,,,,,,,,,,,,,,,,,,,,,,,,,,,,,,,,
,,,,,5f12749ec1ac141c20bf38ab,6669d216483b4754e2264ff7,6669dd04cc691848d195ec38,22,Female,English,2024-06-12_10h40.23.438,ABmemTask3,2023.2.3,MacIntel,60.24096386,,,,,,,,,,,,,,,,,,,,,,,,,,,,,,,116.5885,117.5781,117.5782,10,118.0791,119.7437,0.0012,119.9113,0.1649,0.1655,0.1676,0.1667,0.1669,0.1652,0.1682,0.1678,0.1652,0.1656,,119.9115,120.8099,right,0.882,,120.81,121.2618,right,0.4356,,20,0,20,121.2619,122.2608,0,9,9,9,1,prac_AB,L1_T1P_T2P,1,1,1,7,8,6,3,11,tongs,Did you see the tongs,0.16,0,resources/,pics/sewingmachine01a.jpg,pics/shovel01.jpg,pics/football.jpg,pics/hen.jpg,pics/banjo.jpg,pics/zebra.jpg,pics/tongs01b.jpg,pics/stapler11.jpg,pics/shipinabottle.jpg,pics/match.jpg,pics/candle01.jpg,blankImage,blankImage,blankImage,blankImage,blankImage,blankImage,tongs01b,5,,,,,,,,,,,,,,,,,,,,,,,,,,,,,,,,,,,,,,,,,,,,,,,,,,,,,,,,,,,,,,,,,,,,,,,,,,,,,,,,,,,,,,,,,,,,,,,,,,,,
,,,,,5f12749ec1ac141c20bf38ab,6669d216483b4754e2264ff7,6669dd04cc691848d195ec38,22,Female,English,2024-06-12_10h40.23.438,ABmemTask3,2023.2.3,MacIntel,60.24096386,,,,,,,,,,,,,,,,,,,,,,,,,,,,,,,122.2713,123.2613,123.2614,9,123.7609,125.4112,0.0011,125.5614,0.1496,0.1498,0.1504,0.1501,0.1495,0.1499,0.1495,0.1512,0.1498,0.15,0.1497,125.5615,127.0103,left,1.4355,,127.0104,127.4605,left,0.4364,,22,0,22,127.4606,128.4616,0,10,10,10,1,prac_AB,L1_T1A_T2A,1,0,0,7,8,6,4,12,camera,Did you see the camera,0.15,0,resources/,pics/lightswitch01.jpg,pics/table01.jpg,pics/aquarium.jpg,pics/boot02b.jpg,pics/butterfly.jpg,pics/chainsaw.jpg,pics/binoculars01b.jpg,pics/giraffe.jpg,pics/triangle.jpg,pics/microscope.jpg,pics/mummy.jpg,pics/icecube01.jpg,blankImage,blankImage,blankImage,blankImage,blankImage,camera01a,10,,,,,,,,,,,,,,,,,,,,,,,,,,,,,,,,,,,,,,,,,,,,,,,,,,,,,,,,,,,,,,,,,,,,,,,,,,,,,,,,,,,,,,,,,,,,,,,,,,,,
,,,,,5f12749ec1ac141c20bf38ab,6669d216483b4754e2264ff7,6669dd04cc691848d195ec38,22,Female,English,2024-06-12_10h40.23.438,ABmemTask3,2023.2.3,MacIntel,60.24096386,,,,,,,,,,,,,,,,,,,,,,,,,,,,,,,128.472,129.4627,129.4628,8,129.961,131.1608,0.0011,131.2937,0.1322,0.134,0.1334,0.1323,0.1351,0.1305,0.1348,0.1354,0.1313,,,131.2939,132.1272,right,0.8172,,132.1272,132.5116,right,0.3689,,24,0,24,132.5117,133.5105,0,11,11,11,1,prac_AB,L1_T1P_T2P,1,1,1,6,7,5,3,10,shorts,Did you see the shorts,0.14,0,resources/,pics/snowshoe.jpg,pics/chainsaw.jpg,pics/sailboat.jpg,pics/ball02.jpg,pics/candleholder01.jpg,pics/shorts01.jpg,pics/stapler07.jpg,pics/peach01.jpg,pics/proboscismonkey.jpg,pics/hen.jpg,blankImage,blankImage,blankImage,blankImage,blankImage,blankImage,blankImage,shorts01,4,,,,,,,,,,,,,,,,,,,,,,,,,,,,,,,,,,,,,,,,,,,,,,,,,,,,,,,,,,,,,,,,,,,,,,,,,,,,,,,,,,,,,,,,,,,,,,,,,,,,
,,,,,5f12749ec1ac141c20bf38ab,6669d216483b4754e2264ff7,6669dd04cc691848d195ec38,22,Female,English,2024-06-12_10h40.23.438,ABmemTask3,2023.2.3,MacIntel,60.24096386,,,,,,,,,,,,,,,,,,,,,,,,,,,,,,,133.5111,134.5112,134.5113,8,135.0108,136.6111,0.0011,136.7441,0.1335,0.1318,0.1341,0.1335,0.1338,0.1328,0.1351,0.1318,0.1329,0.1316,0.1353,136.7443,137.6444,right,0.8798,,137.6445,138.0285,left,0.3645,,26,0,26,138.0285,139.0296,0,12,12,12,1,prac_AB,L5_T1P_T2A,5,1,0,5,10,4,3,13,fish,Did you see the fish,0.13,0,resources/,pics/football.jpg,pics/safetypin.jpg,pics/shovel01.jpg,pics/sink.jpg,pics/holdfast.jpg,pics/nutcracker01.jpg,pics/starfish01.jpg,pics/onion.jpg,pics/footballhelmet.jpg,pics/boot02b.jpg,pics/sewingmachine01a.jpg,pics/kangaroo.jpg,pics/banjo.jpg,blankImage,blankImage,blankImage,blankImage,holdfast,14,0.1333,,,,,,,,,,,,,,,,,,,,,,,,,,,,,,,,,,,,,,,,,,,,,,,,,,,,,,,,,,,,,,,,,,,,,,,,,,,,,,,,,,,,,,,,,,,,,,,,,,,
,,,,,5f12749ec1ac141c20bf38ab,6669d216483b4754e2264ff7,6669dd04cc691848d195ec38,22,Female,English,2024-06-12_10h40.23.438,ABmemTask3,2023.2.3,MacIntel,60.24096386,,,,,,,,,,,,,,,,,,,,,,,,,,,,,,,139.0301,140.0262,140.0263,7,140.5273,141.5785,0.0012,141.6938,0.1162,0.1165,0.117,0.1158,0.1175,0.1174,0.1152,0.1178,0.117,,,141.6939,143.0602,right,1.3487,,143.0603,144.3272,left,1.2502,,26,0,28,144.3273,145.3272,0,13,13,13,1,prac_AB,L1_T1P_T2P,1,1,1,5,6,4,4,10,fish,Did you see the fish,0.12,0,resources/,pics/butterfly.jpg,pics/banjo.jpg,pics/leaf02a.jpg,pics/dustpan.jpg,pics/sturgeon.jpg,pics/stapler02.jpg,pics/necklace.jpg,pics/shovel01.jpg,pics/starfish01.jpg,pics/chainsaw.jpg,blankImage,blankImage,blankImage,blankImage,blankImage,blankImage,blankImage,sturgeon,3,,,,,,,,,,,,,,,,,,,,,,,,,,,,,,,,,,,,,,,,,,,,,,,,,,,,,,,,,,,,,,,,,,,,,,,,,,,,,,,,,,,,,,,,,,,,,,,,,,,,
,,,,,5f12749ec1ac141c20bf38ab,6669d216483b4754e2264ff7,6669dd04cc691848d195ec38,22,Female,English,2024-06-12_10h40.23.438,ABmemTask3,2023.2.3,MacIntel,60.24096386,,,,,,,,,,,,,,,,,,,,,,,,,,,,,,,,,,,,,,,,,,,,,,,,,,,,,,,,,,,,,,,,,,,,,,,,,,,,,,,,,,,,,,,,,,,,,,,,,,,,,,,,,,,145.3282,147.5126,space,2.1627,,,,,,,,,,,,,,,,,,,,,,,,,,,,,,,,,,,,,,,,,,,,,,,,,,,,,,,,,,,,,,,,,,,,,,,,,,,,,,,,,,,,,,,,,,,,,
,,,,,5f12749ec1ac141c20bf38ab,6669d216483b4754e2264ff7,6669dd04cc691848d195ec38,22,Female,English,2024-06-12_10h40.23.438,ABmemTask3,2023.2.3,MacIntel,60.24096386,,,,,,,,,,,,,,,,,,,,,,,,,,,,,,,,,,,,,,,,,,,,,,,,,,,,,,,,,,,,,,,,,,,,,,,,,,,,,,,,,,,,,,,,,,,,,,,,,,,,,,,,,,,147.5248,147.5264,,,,,,,,,,,,,,,,,,,,,,,,,,,,,,,,,,,,,,,,,,,,,,,,,,,,,,,,,,,,,,,,,,,,,,,,,,,,,,,,,,,,,,,,,,,,,,,
,,,,,5f12749ec1ac141c20bf38ab,6669d216483b4754e2264ff7,6669dd04cc691848d195ec38,22,Female,English,2024-06-12_10h40.23.438,ABmemTask3,2023.2.3,MacIntel,60.24096386,,,,,,,,,,,,,,,,,,,,,,,,,,,,,,,,,,,,,,,,,,,,,,,,,,,,,,,,,,,,,,,,,,,,,,,,,,,,,,,,,,,,,,,,,,,,,,,,,,,,,,,,,,,147.5291,147.5291,,,,,,,,,,,,,,,,,,,,,,,,,,,,,,,,,,,,,,,,,,,,,,,,,,,,,,,,,,,,,,,,,,,,,,,,,,,,,,,,,,,,,,,,,,,,,,,
,,,,,5f12749ec1ac141c20bf38ab,6669d216483b4754e2264ff7,6669dd04cc691848d195ec38,22,Female,English,2024-06-12_10h40.23.438,ABmemTask3,2023.2.3,MacIntel,60.24096386,,,,,,,,,,,,,,,,,,,,,,,,,,,,,,,,,,,,,,,,,,,,,,,,,,,,,,,,,,,,,,,,,,,,,,,,,,,,,,,,,,,,,,,,,,,,,,,,,,,,,,,,,,,147.5307,147.5307,,,,,,,,,,,,,,,,,,,,,,,,,,,,,,,,,,,,,,,,,,,,,,,,,,,,,,,,,,,,,,,,,,,,,,,,,,,,,,,,,,,,,,,,,,,,,,,
,,,,,5f12749ec1ac141c20bf38ab,6669d216483b4754e2264ff7,6669dd04cc691848d195ec38,22,Female,English,2024-06-12_10h40.23.438,ABmemTask3,2023.2.3,MacIntel,60.24096386,,,,,,,,,,,,,,,,,,,,,,,,,,,,,,,,,,,,,,,,,,,,,,,,,,,,,,,,,,,,,,,,,,,,,,,,,,,,,,,,,,,,,,,,,,,,,,,,,,,,,,,,,,,147.5321,147.5321,,,,,,,,,,,,,,,,,,,,,,,,,,,,,,,,,,,,,,,,,,,,,,,,,,,,,,,,,,,,,,,,,,,,,,,,,,,,,,,,,,,,,,,,,,,,,,,
,,,,,5f12749ec1ac141c20bf38ab,6669d216483b4754e2264ff7,6669dd04cc691848d195ec38,22,Female,English,2024-06-12_10h40.23.438,ABmemTask3,2023.2.3,MacIntel,60.24096386,,,,,,,,,,,,,,,,,,,,,,,,,,,,,,,,,,,,,,,,,,,,,,,,,,,,,,,,,,,,,,,,,,,,,,,,,,,,,,,,,,,,,,,,,,,,,,,,,,,,,,,,,,,147.5338,147.5339,,,,,,,,,,,,,,,,,,,,,,,,,,,,,,,,,,,,,,,,,,,,,,,,,,,,,,,,,,,,,,,,,,,,,,,,,,,,,,,,,,,,,,,,,,,,,,,
,,,,,5f12749ec1ac141c20bf38ab,6669d216483b4754e2264ff7,6669dd04cc691848d195ec38,22,Female,English,2024-06-12_10h40.23.438,ABmemTask3,2023.2.3,MacIntel,60.24096386,,,,,,,,,,,,,,,,,,,,,,,,,,,,,,,,,,,,,,,,,,,,,,,,,,,,,,,,,,,,,,,,,,,,,,,,,,,,,,,,,,,,,,,,,,,,,,,,,,,,,,,,,,,147.535,147.5351,,,,,,,,,,,,,,,,,,,,,,,,,,,,,,,,,,,,,,,,,,,,,,,,,,,,,,,,,,,,,,,,,,,,,,,,,,,,,,,,,,,,,,,,,,,,,,,
,,,,,5f12749ec1ac141c20bf38ab,6669d216483b4754e2264ff7,6669dd04cc691848d195ec38,22,Female,English,2024-06-12_10h40.23.438,ABmemTask3,2023.2.3,MacIntel,60.24096386,,,,,,,,,,,,,,,,,,,,,,,,,,,,,,,,,,,,,,,,,,,,,,,,,,,,,,,,,,,,,,,,,,,,,,,,,,,,,,,,,,,,,,,,,,,,,,,,,,,,,,,,,,,147.5361,147.5362,,,,,,,,,,,,,,,,,,,,,,,,,,,,,,,,,,,,,,,,,,,,,,,,,,,,,,,,,,,,,,,,,,,,,,,,,,,,,,,,,,,,,,,,,,,,,,,
,,,,,5f12749ec1ac141c20bf38ab,6669d216483b4754e2264ff7,6669dd04cc691848d195ec38,22,Female,English,2024-06-12_10h40.23.438,ABmemTask3,2023.2.3,MacIntel,60.24096386,,,,,,,,,,,,,,,,,,,,,,,,,,,,,,,,,,,,,,,,,,,,,,,,,,,,,,,,,,,,,,,,,,,,,,,,,,,,,,,,,,,,,,,,,,,,,,,,,,,,,,,,,,,147.5372,147.5378,,,,,,,,,,,,,,,,,,,,,,,,,,,,,,,,,,,,,,,,,,,,,,,,,,,,,,,,,,,,,,,,,,,,,,,,,,,,,,,,,,,,,,,,,,,,,,,
,,,,,5f12749ec1ac141c20bf38ab,6669d216483b4754e2264ff7,6669dd04cc691848d195ec38,22,Female,English,2024-06-12_10h40.23.438,ABmemTask3,2023.2.3,MacIntel,60.24096386,,,,,,,,,,,,,,,,,,,,,,,,,,,,,,,,,,,,,,,,,,,,,,,,,,,,,,,,,,,,,,,,,,,,,,,,,,,,,,,,,,,,,,,,,,,,,,,,,,,,,,,,,,,147.539,147.539,,,,,,,,,,,,,,,,,,,,,,,,,,,,,,,,,,,,,,,,,,,,,,,,,,,,,,,,,,,,,,,,,,,,,,,,,,,,,,,,,,,,,,,,,,,,,,,
,,,,,5f12749ec1ac141c20bf38ab,6669d216483b4754e2264ff7,6669dd04cc691848d195ec38,22,Female,English,2024-06-12_10h40.23.438,ABmemTask3,2023.2.3,MacIntel,60.24096386,,,,,,,,,,,,,,,,,,,,,,,,,,,,,,,,,,,,,,,,,,,,,,,,,,,,,,,,,,,,,,,,,,,,,,,,,,,,,,,,,,,,,,,,,,,,,,,,,,,,,,,,,,,147.5401,147.5401,,,,,,,,,,,,,,,,,,,,,,,,,,,,,,,,,,,,,,,,,,,,,,,,,,,,,,,,,,,,,,,,,,,,,,,,,,,,,,,,,,,,,,,,,,,,,,,
,,,,,5f12749ec1ac141c20bf38ab,6669d216483b4754e2264ff7,6669dd04cc691848d195ec38,22,Female,English,2024-06-12_10h40.23.438,ABmemTask3,2023.2.3,MacIntel,60.24096386,,,,,,,,,,,,,,,,,,,,,,,,,,,,,,,,,,,,,,,,,,,,,,,,,,,,,,,,,,,,,,,,,,,,,,,,,,,,,,,,,,,,,,,,,,,,,,,,,,,,,,,,,,,147.5412,147.5413,,,,,,,,,,,,,,,,,,,,,,,,,,,,,,,,,,,,,,,,,,,,,,,,,,,,,,,,,,,,,,,,,,,,,,,,,,,,,,,,,,,,,,,,,,,,,,,
,,,,,5f12749ec1ac141c20bf38ab,6669d216483b4754e2264ff7,6669dd04cc691848d195ec38,22,Female,English,2024-06-12_10h40.23.438,ABmemTask3,2023.2.3,MacIntel,60.24096386,,,,,,,,,,,,,,,,,,,,,,,,,,,,,,,,,,,,,,,,,,,,,,,,,,,,,,,,,,,,,,,,,,,,,,,,,,,,,,,,,,,,,,,,,,,,,,,,,,,,,,,,,,,147.5428,147.5429,,,,,,,,,,,,,,,,,,,,,,,,,,,,,,,,,,,,,,,,,,,,,,,,,,,,,,,,,,,,,,,,,,,,,,,,,,,,,,,,,,,,,,,,,,,,,,,
,,,,,5f12749ec1ac141c20bf38ab,6669d216483b4754e2264ff7,6669dd04cc691848d195ec38,22,Female,English,2024-06-12_10h40.23.438,ABmemTask3,2023.2.3,MacIntel,60.24096386,,,,,,,,,,,,,,,,,,,,,,,,,,,,,,,,,,,,,,,,,,,,,,,,,,,,,,,,,,,,,,,,,,,,,,,,,,,,,,,,,,,,,,,,,,,,,,,,,,,,,,,,,,,147.5439,147.544,,,,,,,,,,,,,,,,,,,,,,,,,,,,,,,,,,,,,,,,,,,,,,,,,,,,,,,,,,,,,,,,,,,,,,,,,,,,,,,,,,,,,,,,,,,,,,,
,,,,,5f12749ec1ac141c20bf38ab,6669d216483b4754e2264ff7,6669dd04cc691848d195ec38,22,Female,English,2024-06-12_10h40.23.438,ABmemTask3,2023.2.3,MacIntel,60.24096386,,,,,,,,,,,,,,,,,,,,,,,,,,,,,,,,,,,,,,,,,,,,,,,,,,,,,,,,,,,,,,,,,,,,,,,,,,,,,,,,,,,,,,,,,,,,,,,,,,,,,,,,,,,147.5451,147.5451,,,,,,,,,,,,,,,,,,,,,,,,,,,,,,,,,,,,,,,,,,,,,,,,,,,,,,,,,,,,,,,,,,,,,,,,,,,,,,,,,,,,,,,,,,,,,,,
,,,,,5f12749ec1ac141c20bf38ab,6669d216483b4754e2264ff7,6669dd04cc691848d195ec38,22,Female,English,2024-06-12_10h40.23.438,ABmemTask3,2023.2.3,MacIntel,60.24096386,,,,,,,,,,,,,,,,,,,,,,,,,,,,,,,,,,,,,,,,,,,,,,,,,,,,,,,,,,,,,,,,,,,,,,,,,,,,,,,,,,,,,,,,,,,,,,,,,,,,,,,,,,,147.5465,147.5466,,,,,,,,,,,,,,,,,,,,,,,,,,,,,,,,,,,,,,,,,,,,,,,,,,,,,,,,,,,,,,,,,,,,,,,,,,,,,,,,,,,,,,,,,,,,,,,
,,,,,5f12749ec1ac141c20bf38ab,6669d216483b4754e2264ff7,6669dd04cc691848d195ec38,22,Female,English,2024-06-12_10h40.23.438,ABmemTask3,2023.2.3,MacIntel,60.24096386,,,,,,,,,,,,,,,,,,,,,,,,,,,,,,,,,,,,,,,,,,,,,,,,,,,,,,,,,,,,,,,,,,,,,,,,,,,,,,,,,,,,,,,,,,,,,,,,,,,,,,,,,,,147.5477,147.5478,,,,,,,,,,,,,,,,,,,,,,,,,,,,,,,,,,,,,,,,,,,,,,,,,,,,,,,,,,,,,,,,,,,,,,,,,,,,,,,,,,,,,,,,,,,,,,,
,,,,,5f12749ec1ac141c20bf38ab,6669d216483b4754e2264ff7,6669dd04cc691848d195ec38,22,Female,English,2024-06-12_10h40.23.438,ABmemTask3,2023.2.3,MacIntel,60.24096386,,,,,,,,,,,,,,,,,,,,,,,,,,,,,,,,,,,,,,,,,,,,,,,,,,,,,,,,,,,,,,,,,,,,,,,,,,,,,,,,,,,,,,,,,,,,,,,,,,,,,,,,,,,147.5487,147.5488,,,,,,,,,,,,,,,,,,,,,,,,,,,,,,,,,,,,,,,,,,,,,,,,,,,,,,,,,,,,,,,,,,,,,,,,,,,,,,,,,,,,,,,,,,,,,,,
,,,,,5f12749ec1ac141c20bf38ab,6669d216483b4754e2264ff7,6669dd04cc691848d195ec38,22,Female,English,2024-06-12_10h40.23.438,ABmemTask3,2023.2.3,MacIntel,60.24096386,,,,,,,,,,,,,,,,,,,,,,,,,,,,,,,,,,,,,,,,,,,,,,,,,,,,,,,,,,,,,,,,,,,,,,,,,,,,,,,,,,,,,,,,,,,,,,,,,,,,,,,,,,,147.5498,147.5498,,,,,,,,,,,,,,,,,,,,,,,,,,,,,,,,,,,,,,,,,,,,,,,,,,,,,,,,,,,,,,,,,,,,,,,,,,,,,,,,,,,,,,,,,,,,,,,
,,,,,5f12749ec1ac141c20bf38ab,6669d216483b4754e2264ff7,6669dd04cc691848d195ec38,22,Female,English,2024-06-12_10h40.23.438,ABmemTask3,2023.2.3,MacIntel,60.24096386,,,,,,,,,,,,,,,,,,,,,,,,,,,,,,,,,,,,,,,,,,,,,,,,,,,,,,,,,,,,,,,,,,,,,,,,,,,,,,,,,,,,,,,,,,,,,,,,,,,,,,,,,,,147.5513,147.5513,,,,,,,,,,,,,,,,,,,,,,,,,,,,,,,,,,,,,,,,,,,,,,,,,,,,,,,,,,,,,,,,,,,,,,,,,,,,,,,,,,,,,,,,,,,,,,,
,,,,,5f12749ec1ac141c20bf38ab,6669d216483b4754e2264ff7,6669dd04cc691848d195ec38,22,Female,English,2024-06-12_10h40.23.438,ABmemTask3,2023.2.3,MacIntel,60.24096386,,,,,,,,,,,,,,,,,,,,,,,,,,,,,,,,,,,,,,,,,,,,,,,,,,,,,,,,,,,,,,,,,,,,,,,,,,,,,,,,,,,,,,,,,,,,,,,,,,,,,,,,,,,147.5522,147.5523,,,,,,,,,,,,,,,,,,,,,,,,,,,,,,,,,,,,,,,,,,,,,,,,,,,,,,,,,,,,,,,,,,,,,,,,,,,,,,,,,,,,,,,,,,,,,,,
,,,,,5f12749ec1ac141c20bf38ab,6669d216483b4754e2264ff7,6669dd04cc691848d195ec38,22,Female,English,2024-06-12_10h40.23.438,ABmemTask3,2023.2.3,MacIntel,60.24096386,,,,,,,,,,,,,,,,,,,,,,,,,,,,,,,,,,,,,,,,,,,,,,,,,,,,,,,,,,,,,,,,,,,,,,,,,,,,,,,,,,,,,,,,,,,,,,,,,,,,,,,,,,,147.5531,147.5531,,,,,,,,,,,,,,,,,,,,,,,,,,,,,,,,,,,,,,,,,,,,,,,,,,,,,,,,,,,,,,,,,,,,,,,,,,,,,,,,,,,,,,,,,,,,,,,
,,,,,5f12749ec1ac141c20bf38ab,6669d216483b4754e2264ff7,6669dd04cc691848d195ec38,22,Female,English,2024-06-12_10h40.23.438,ABmemTask3,2023.2.3,MacIntel,60.24096386,,,,,,,,,,,,,,,,,,,,,,,,,,,,,,,,,,,,,,,,,,,,,,,,,,,,,,,,,,,,,,,,,,,,,,,,,,,,,,,,,,,,,,,,,,,,,,,,,,,,,,,,,,,,,,,,147.5532,164.4428,space,16.8636,,,,,,,,,,,,,,,,,,,,,,,,,,,,,,,,,,,,,,,,,,,,,,,,,,,,,,,,,,,,,,,,,,,,,,,,,,,,,,,,,,,,,,,,
,,,,,5f12749ec1ac141c20bf38ab,6669d216483b4754e2264ff7,6669dd04cc691848d195ec38,22,Female,English,2024-06-12_10h40.23.438,ABmemTask3,2023.2.3,MacIntel,60.24096386,,,,,,,,,,,,,,,,,,,,,,,,,,,,,,,,,164.4531,602,164.9443,,,,,,,,,,,,,,,,,,,,,,,,,,0,,,,,,,,,prac_MEM,old,,,,,,,,,,,10,,,,,,,,,,,,,,,,,,,,,,,,,,,,,,,,,,,164.9445,171.8256,-3,1,6.8595,,171.8262,172.8261,0,0,0,3,1,4,1,pics/shorts01.jpg,,,,,,,,,,,,,,,,,,,,,,,,,,,,,,,,,,,,,,,,,,,,,,,,,,,,,,,,,,,,,,,,,,,,,,,
,,,,,5f12749ec1ac141c20bf38ab,6669d216483b4754e2264ff7,6669dd04cc691848d195ec38,22,Female,English,2024-06-12_10h40.23.438,ABmemTask3,2023.2.3,MacIntel,60.24096386,,,,,,,,,,,,,,,,,,,,,,,,,,,,,,,,,172.8352,602,173.3277,,,,,,,,,,,,,,,,,,,,,,,,,,0,,,,,,,,,prac_MEM,old,,,,,,,,,,,10,,,,,,,,,,,,,,,,,,,,,,,,,,,,,,,,,,,173.3277,177.194,0,6,3.8467,,177.1948,178.1939,0,1,1,6,1,12,5,pics/humanskull.jpg,,,,,,,,,,,,,,,,,,,,,,,,,,,,,,,,,,,,,,,,,,,,,,,,,,,,,,,,,,,,,,,,,,,,,,,
,,,,,5f12749ec1ac141c20bf38ab,6669d216483b4754e2264ff7,6669dd04cc691848d195ec38,22,Female,English,2024-06-12_10h40.23.438,ABmemTask3,2023.2.3,MacIntel,60.24096386,,,,,,,,,,,,,,,,,,,,,,,,,,,,,,,,,178.2041,602,178.6928,,,,,,,,,,,,,,,,,,,,,,,,,,0,,,,,,,,,prac_MEM,new,,,,,,,,,,,10,,,,,,,,,,,,,,,,,,,,,,,,,,,,,,,,,,,178.6928,185.3431,1,3,6.6276,,185.3435,186.3418,0,2,2,8,1,999,999,pics/thread02.jpg,,,,,,,,,,,,,,,,,,,,,,,,,,,,,,,,,,,,,,,,,,,,,,,,,,,,,,,,,,,,,,,,,,,,,,,
,,,,,5f12749ec1ac141c20bf38ab,6669d216483b4754e2264ff7,6669dd04cc691848d195ec38,22,Female,English,2024-06-12_10h40.23.438,ABmemTask3,2023.2.3,MacIntel,60.24096386,,,,,,,,,,,,,,,,,,,,,,,,,,,,,,,,,186.3518,602,186.8438,,,,,,,,,,,,,,,,,,,,,,,,,,0,,,,,,,,,prac_MEM,old,,,,,,,,,,,10,,,,,,,,,,,,,,,,,,,,,,,,,,,,,,,,,,,186.8439,188.8261,4,6,1.9615,,188.827,189.8267,0,3,3,2,1,3,1,pics/sturgeon.jpg,,,,,,,,,,,,,,,,,,,,,,,,,,,,,,,,,,,,,,,,,,,,,,,,,,,,,,,,,,,,,,,,,,,,,,,
,,,,,5f12749ec1ac141c20bf38ab,6669d216483b4754e2264ff7,6669dd04cc691848d195ec38,22,Female,English,2024-06-12_10h40.23.438,ABmemTask3,2023.2.3,MacIntel,60.24096386,,,,,,,,,,,,,,,,,,,,,,,,,,,,,,,,,189.8272,602,190.3271,,,,,,,,,,,,,,,,,,,,,,,,,,0,,,,,,,,,prac_MEM,old,,,,,,,,,,,10,,,,,,,,,,,,,,,,,,,,,,,,,,,,,,,,,,,190.3272,191.5428,7,6,1.2017,,191.5428,192.5421,0,4,4,4,1,5,1,pics/tongs01b.jpg,,,,,,,,,,,,,,,,,,,,,,,,,,,,,,,,,,,,,,,,,,,,,,,,,,,,,,,,,,,,,,,,,,,,,,,
,,,,,5f12749ec1ac141c20bf38ab,6669d216483b4754e2264ff7,6669dd04cc691848d195ec38,22,Female,English,2024-06-12_10h40.23.438,ABmemTask3,2023.2.3,MacIntel,60.24096386,,,,,,,,,,,,,,,,,,,,,,,,,,,,,,,,,192.5521,602,193.0441,,,,,,,,,,,,,,,,,,,,,,,,,,0,,,,,,,,,prac_MEM,new,,,,,,,,,,,10,,,,,,,,,,,,,,,,,,,,,,,,,,,,,,,,,,,193.0441,196.5926,8,3,3.5325,,196.5932,197.5938,0,5,5,10,1,999,999,pics/tomato01.jpg,,,,,,,,,,,,,,,,,,,,,,,,,,,,,,,,,,,,,,,,,,,,,,,,,,,,,,,,,,,,,,,,,,,,,,,
,,,,,5f12749ec1ac141c20bf38ab,6669d216483b4754e2264ff7,6669dd04cc691848d195ec38,22,Female,English,2024-06-12_10h40.23.438,ABmemTask3,2023.2.3,MacIntel,60.24096386,,,,,,,,,,,,,,,,,,,,,,,,,,,,,,,,,197.6041,602,198.093,,,,,,,,,,,,,,,,,,,,,,,,,,0,,,,,,,,,prac_MEM,old,,,,,,,,,,,10,,,,,,,,,,,,,,,,,,,,,,,,,,,,,,,,,,,198.0931,200.4953,6,2,2.3786,,200.4961,201.4926,0,6,6,1,1,2,1,pics/pants.jpg,,,,,,,,,,,,,,,,,,,,,,,,,,,,,,,,,,,,,,,,,,,,,,,,,,,,,,,,,,,,,,,,,,,,,,,
,,,,,5f12749ec1ac141c20bf38ab,6669d216483b4754e2264ff7,6669dd04cc691848d195ec38,22,Female,English,2024-06-12_10h40.23.438,ABmemTask3,2023.2.3,MacIntel,60.24096386,,,,,,,,,,,,,,,,,,,,,,,,,,,,,,,,,201.5028,602,201.9942,,,,,,,,,,,,,,,,,,,,,,,,,,0,,,,,,,,,prac_MEM,old,,,,,,,,,,,10,,,,,,,,,,,,,,,,,,,,,,,,,,,,,,,,,,,201.9942,203.5254,9,6,1.5129,,203.5256,204.5267,0,7,7,0,1,1,1,pics/tree.jpg,,,,,,,,,,,,,,,,,,,,,,,,,,,,,,,,,,,,,,,,,,,,,,,,,,,,,,,,,,,,,,,,,,,,,,,
,,,,,5f12749ec1ac141c20bf38ab,6669d216483b4754e2264ff7,6669dd04cc691848d195ec38,22,Female,English,2024-06-12_10h40.23.438,ABmemTask3,2023.2.3,MacIntel,60.24096386,,,,,,,,,,,,,,,,,,,,,,,,,,,,,,,,,204.5369,602,205.0257,,,,,,,,,,,,,,,,,,,,,,,,,,0,,,,,,,,,prac_MEM,new,,,,,,,,,,,10,,,,,,,,,,,,,,,,,,,,,,,,,,,,,,,,,,,205.0257,206.7939,12,1,1.7483,,206.7947,207.7922,0,8,8,7,1,999,999,pics/cherry01.jpg,,,,,,,,,,,,,,,,,,,,,,,,,,,,,,,,,,,,,,,,,,,,,,,,,,,,,,,,,,,,,,,,,,,,,,,
,,,,,5f12749ec1ac141c20bf38ab,6669d216483b4754e2264ff7,6669dd04cc691848d195ec38,22,Female,English,2024-06-12_10h40.23.438,ABmemTask3,2023.2.3,MacIntel,60.24096386,,,,,,,,,,,,,,,,,,,,,,,,,,,,,,,,,207.7924,602,208.2926,,,,,,,,,,,,,,,,,,,,,,,,,,0,,,,,,,,,prac_MEM,old,,,,,,,,,,,10,,,,,,,,,,,,,,,,,,,,,,,,,,,,,,,,,,,208.2927,209.8417,15,6,1.5292,,209.8419,210.8439,0,9,9,5,1,11,5,pics/grater01a.jpg,,,,,,,,,,,,,,,,,,,,,,,,,,,,,,,,,,,,,,,,,,,,,,,,,,,,,,,,,,,,,,,,,,,,,,,
,,,,,5f12749ec1ac141c20bf38ab,6669d216483b4754e2264ff7,6669dd04cc691848d195ec38,22,Female,English,2024-06-12_10h40.23.438,ABmemTask3,2023.2.3,MacIntel,60.24096386,,,,,,,,,,,,,,,,,,,,,,,,,,,,,,,,,210.8542,602,211.3432,,,,,,,,,,,,,,,,,,,,,,,,,,0,,,,,,,,,prac_MEM,new,,,,,,,,,,,10,,,,,,,,,,,,,,,,,,,,,,,,,,,,,,,,,,,211.3433,212.6758,6,6,1.3166,,212.6765,213.6766,0,10,10,9,1,999,999,pics/moth.jpg,,,,,,,,,,,,,,,,,,,,,,,,,,,,,,,,,,,,,,,,,,,,,,,,,,,,,,,,,,,,,,,,,,,,,,,
,,,,,5f12749ec1ac141c20bf38ab,6669d216483b4754e2264ff7,6669dd04cc691848d195ec38,22,Female,English,2024-06-12_10h40.23.438,ABmemTask3,2023.2.3,MacIntel,60.24096386,,,,,,,,,,,,,,,,,,,,,,,,,,,,,,,,,,,,,,,,,,,,,,,,,,,,,,,,,,,,,,,,,,,,,,,,,,,,,,,,,,,,,,,,,,,,,,,,,,,,,,,,,,,,,,,,,,,,,,,,,,,,,,,,,,,,,213.677,215.893,215.8932,215.8934,,,,,,,,,,,,,,,,,,,,,,,,,,,,,,,,,,,,,,,,,,,,,,,,,,,,,,,,,,,,,,,,,,,
,,,,,5f12749ec1ac141c20bf38ab,6669d216483b4754e2264ff7,6669dd04cc691848d195ec38,22,Female,English,2024-06-12_10h40.23.438,ABmemTask3,2023.2.3,MacIntel,60.24096386,,,,,,,,,,,,,,,,,,space,37.8517,,,,,,,,,,,,,,,,,,,,,,,,,,,,,,,,,,,,,,,,,,,,,,,,,,,,,,,,,,,,,,,,,,,,,,,,,,,,,,,,,,,,,,,,,,,,,,,,,,,,,,,,,,,,,,,,,,,,,,215.8936,253.7767,,,,,,,,,,,,,,,,,,,,,,,,,,,,,,,,,,,,,,,,,,,,,,,,,,,,,,,,,,,,,,,,,
,,,,,5f12749ec1ac141c20bf38ab,6669d216483b4754e2264ff7,6669dd04cc691848d195ec38,22,Female,English,2024-06-12_10h40.23.438,ABmemTask3,2023.2.3,MacIntel,60.24096386,,,,,,,,,,,,,,,,,,,,,,,,,,,,,,,,,,,,,,,,,,,,,,,,,,,,,,,,,,,,,,,,,,,,,,,,,,,,,,,,,,,,,,,,,,,,,,,,,,,,,,,,,,,,,,,,,,,,,,,,,,,,,,,,,,,,,,,,,,,253.7768,270.7435,space,16.9294,,,,,,,,,,,,,,,,,,,,,,,,,,,,,,,,,,,,,,,,,,,,,,,,,,,,,,,,,,,,,
,,,,,5f12749ec1ac141c20bf38ab,6669d216483b4754e2264ff7,6669dd04cc691848d195ec38,22,Female,English,2024-06-12_10h40.23.438,ABmemTask3,2023.2.3,MacIntel,60.24096386,,,,,,,,,,,,,,,,,,,,,,,,,,,,,,,270.7516,271.7427,271.7427,7,272.243,273.7597,0.0012,273.8765,0.1151,0.119,0.1137,0.1188,0.1157,0.117,0.1175,0.116,0.1165,0.1176,0.1159,273.8767,275.6931,left,1.7957,,275.6932,276.8765,left,1.1684,,0,0,2,276.8765,277.8765,,,,,,1_AB,L5_T1A_T2P,5,0,1,4,9,3,5,14,lemon,Did you see the lemon,0.12,0,resources/,pics/seaturtle.jpg,pics/lightswitch01.jpg,pics/candle01.jpg,pics/cannon.jpg,pics/seagull.jpg,pics/spoon01.jpg,pics/spiderweb.jpg,pics/sewingmachine01a.jpg,pics/stapler05.jpg,pics/binoculars01b.jpg,pics/zebra.jpg,pics/sealion.jpg,pics/shovel01.jpg,pics/wheel01.jpg,blankImage,blankImage,blankImage,lemon02,56,0.1165,0.1163,,,,,,,,,,,,,,,,,,,,,,,,,,,,,,,,,,,,,,,0,0,0,55,1,,,,,,,,,,,,,,,,,,,,,,,,,,,,,,,,,,,,,,,,,,,,,,,,,,,,,,,
,,,,,5f12749ec1ac141c20bf38ab,6669d216483b4754e2264ff7,6669dd04cc691848d195ec38,22,Female,English,2024-06-12_10h40.23.438,ABmemTask3,2023.2.3,MacIntel,60.24096386,,,,,,,,,,,,,,,,,,,,,,,,,,,,,,,277.8869,278.8765,278.8766,7,279.3743,280.8934,0.0007,281.0074,0.1184,0.1172,0.1168,0.1168,0.1168,0.1168,0.1157,0.1155,0.1163,0.1168,0.119,281.0075,282.3427,right,1.3139,,282.3427,282.8927,left,0.5401,,2,0,4,282.8927,283.8943,,,,,,1_AB,L5_T1P_T2A,5,1,0,4,9,3,5,14,Frisbee,Did you see the Frisbee,0.12,0,resources/,pics/giraffe.jpg,pics/christmaslights.jpg,pics/bowtie.jpg,pics/frisbee.jpg,pics/banjo.jpg,pics/calendar.jpg,pics/butterfly.jpg,pics/onion.jpg,pics/starfish01.jpg,pics/footballhelmet.jpg,pics/blender.jpg,pics/candleholder01.jpg,pics/hairdryer02a.jpg,pics/dromedary.jpg,blankImage,blankImage,blankImage,frisbee,58,0.114,0.1184,,,,,,,,,,,,,,,,,,,,,,,,,,,,,,,,,,,,,,,0,1,1,57,1,,,,,,,,,,,,,,,,,,,,,,,,,,,,,,,,,,,,,,,,,,,,,,,,,,,,,,,
,,,,,5f12749ec1ac141c20bf38ab,6669d216483b4754e2264ff7,6669dd04cc691848d195ec38,22,Female,English,2024-06-12_10h40.23.438,ABmemTask3,2023.2.3,MacIntel,60.24096386,,,,,,,,,,,,,,,,,,,,,,,,,,,,,,,283.9043,284.8929,284.893,7,285.393,286.7933,0.0009,286.9104,0.1152,0.1163,0.1182,0.1167,0.1183,0.1151,0.1144,0.1199,0.1155,0.1165,0.1161,286.9104,288.0102,left,1.0792,,288.0103,288.4422,right,0.4154,,4,0,6,288.4422,289.4446,,,,,,1_AB,L1_T1A_T2P,1,0,1,7,8,6,5,13,statue,Did you see the statue,0.12,0,resources/,pics/giraffe.jpg,pics/seaturtle.jpg,pics/peach01.jpg,pics/boot02b.jpg,pics/backpack01a.jpg,pics/sandbarshark.jpg,pics/microscope.jpg,pics/stapler07.jpg,pics/snowshoe.jpg,pics/laptop01a.jpg,pics/necklace.jpg,pics/zebra.jpg,pics/carrot01.jpg,blankImage,blankImage,blankImage,blankImage,statue,27,0.1174,,,,,,,,,,,,,,,,,,,,,,,,,,,,,,,,,,,,,,,,0,2,2,26,1,,,,,,,,,,,,,,,,,,,,,,,,,,,,,,,,,,,,,,,,,,,,,,,,,,,,,,,
,,,,,5f12749ec1ac141c20bf38ab,6669d216483b4754e2264ff7,6669dd04cc691848d195ec38,22,Female,English,2024-06-12_10h40.23.438,ABmemTask3,2023.2.3,MacIntel,60.24096386,,,,,,,,,,,,,,,,,,,,,,,,,,,,,,,289.4451,290.444,290.444,7,290.9435,292.1108,0.0009,292.2268,0.1167,0.1166,0.1139,0.1159,0.1176,0.1173,0.1177,0.117,0.1172,0.1166,,292.2269,294.5241,left,2.2788,,294.5241,294.9111,right,0.3662,,4,0,8,294.9112,295.9087,,,,,,1_AB,L1_T1P_T2P,1,1,1,7,8,6,3,11,bird,Did you see the bird,0.12,0,resources/,pics/sealion.jpg,pics/backpack01a.jpg,pics/hose.jpg,pics/table01.jpg,pics/wheel01.jpg,pics/seaturtle.jpg,pics/americangoldfinch.jpg,pics/stapler08.jpg,pics/siamesecat.jpg,pics/hammerheadshark.jpg,pics/ashtray01.jpg,blankImage,blankImage,blankImage,blankImage,blankImage,blankImage,americangoldfinch,23,,,,,,,,,,,,,,,,,,,,,,,,,,,,,,,,,,,,,,,,,0,3,3,22,1,,,,,,,,,,,,,,,,,,,,,,,,,,,,,,,,,,,,,,,,,,,,,,,,,,,,,,,
,,,,,5f12749ec1ac141c20bf38ab,6669d216483b4754e2264ff7,6669dd04cc691848d195ec38,22,Female,English,2024-06-12_10h40.23.438,ABmemTask3,2023.2.3,MacIntel,60.24096386,,,,,,,,,,,,,,,,,,,,,,,,,,,,,,,295.9188,296.9102,296.9103,7,297.4113,298.4586,0.0009,298.5752,0.1132,0.1174,0.1177,0.1167,0.1169,0.1163,0.117,0.1139,0.1176,,,298.5752,299.9594,left,1.3723,,299.9595,300.3949,right,0.4162,,6,0,10,300.395,301.3905,,,,,,1_AB,L1_T1A_T2P,1,0,1,5,6,4,4,10,Rabbit,Did you see the Rabbit,0.12,0,resources/,pics/cannon.jpg,pics/proboscismonkey.jpg,pics/salmon.jpg,pics/nutcracker01.jpg,pics/seagull.jpg,pics/stapler02.jpg,pics/table01.jpg,pics/laptop01a.jpg,pics/necklace.jpg,pics/pencilsharpener02a.jpg,blankImage,blankImage,blankImage,blankImage,blankImage,blankImage,blankImage,jackrabbit,31,,,,,,,,,,,,,,,,,,,,,,,,,,,,,,,,,,,,,,,,,0,4,4,30,1,,,,,,,,,,,,,,,,,,,,,,,,,,,,,,,,,,,,,,,,,,,,,,,,,,,,,,,
,,,,,5f12749ec1ac141c20bf38ab,6669d216483b4754e2264ff7,6669dd04cc691848d195ec38,22,Female,English,2024-06-12_10h40.23.438,ABmemTask3,2023.2.3,MacIntel,60.24096386,,,,,,,,,,,,,,,,,,,,,,,,,,,,,,,301.3908,302.3918,302.3919,7,302.894,304.0581,0.001,304.1771,0.1137,0.1165,0.1173,0.1159,0.1195,0.1145,0.1159,0.1197,0.1165,0.1138,,304.1771,305.2079,right,1.0087,,305.208,305.5407,right,0.3192,,8,0,12,305.5407,306.544,,,,,,1_AB,L1_T1P_T2P,1,1,1,7,8,6,3,11,pliers,Did you see the pliers,0.12,0,resources/,pics/mummy.jpg,pics/binder03b.jpg,pics/bowtie.jpg,pics/toiletpaper01a.jpg,pics/football.jpg,pics/blender.jpg,pics/needlenosepliers01.jpg,pics/stapler13.jpg,pics/zebra.jpg,pics/hammerheadshark.jpg,pics/sealion.jpg,blankImage,blankImage,blankImage,blankImage,blankImage,blankImage,needlenosepliers01,6,,,,,,,,,,,,,,,,,,,,,,,,,,,,,,,,,,,,,,,,,0,5,5,5,1,,,,,,,,,,,,,,,,,,,,,,,,,,,,,,,,,,,,,,,,,,,,,,,,,,,,,,,
,,,,,5f12749ec1ac141c20bf38ab,6669d216483b4754e2264ff7,6669dd04cc691848d195ec38,22,Female,English,2024-06-12_10h40.23.438,ABmemTask3,2023.2.3,MacIntel,60.24096386,,,,,,,,,,,,,,,,,,,,,,,,,,,,,,,306.5447,307.5446,307.5446,7,308.0447,309.2103,0.0009,309.3271,0.1131,0.1191,0.1164,0.115,0.1149,0.1171,0.1189,0.1149,0.1181,0.1173,,309.3272,310.4746,left,1.134,,310.4747,311.3584,left,0.8659,,10,0,14,311.3585,312.3613,,,,,,1_AB,L1_T1A_T2A,1,0,0,7,8,6,3,11,Poker chips,Did you see the Poker chips,0.12,0,resources/,pics/candle01.jpg,pics/proboscismonkey.jpg,pics/fanblades.jpg,pics/dromedary.jpg,pics/aquarium.jpg,pics/salmon.jpg,pics/hose.jpg,pics/kangaroo.jpg,pics/noparkingsign.jpg,pics/carrot01.jpg,pics/leaf02a.jpg,blankImage,blankImage,blankImage,blankImage,blankImage,blankImage,pokerchips,41,,,,,,,,,,,,,,,,,,,,,,,,,,,,,,,,,,,,,,,,,0,6,6,40,1,,,,,,,,,,,,,,,,,,,,,,,,,,,,,,,,,,,,,,,,,,,,,,,,,,,,,,,
,,,,,5f12749ec1ac141c20bf38ab,6669d216483b4754e2264ff7,6669dd04cc691848d195ec38,22,Female,English,2024-06-12_10h40.23.438,ABmemTask3,2023.2.3,MacIntel,60.24096386,,,,,,,,,,,,,,,,,,,,,,,,,,,,,,,312.3712,313.3601,313.3601,7,313.8597,314.7934,0.0009,314.9084,0.1172,0.1158,0.1157,0.116,0.1172,0.1173,0.1176,0.1163,,,,314.9084,316.1757,left,1.2457,,316.1758,316.7937,right,0.5982,,10,0,16,316.7939,317.7912,,,,,,1_AB,L1_T1P_T2P,1,1,1,4,5,3,4,9,Chefs hat,Did you see the Chefs hat,0.12,0,resources/,pics/sewingmachine01a.jpg,pics/icecube01.jpg,pics/fanblades.jpg,pics/chefshat.jpg,pics/stapler06.jpg,pics/ashtray01.jpg,pics/blender.jpg,pics/sandbarshark.jpg,pics/lock03a.jpg,blankImage,blankImage,blankImage,blankImage,blankImage,blankImage,blankImage,blankImage,chefshat,12,,,,,,,,,,,,,,,,,,,,,,,,,,,,,,,,,,,,,,,,,0,7,7,11,1,,,,,,,,,,,,,,,,,,,,,,,,,,,,,,,,,,,,,,,,,,,,,,,,,,,,,,,
,,,,,5f12749ec1ac141c20bf38ab,6669d216483b4754e2264ff7,6669dd04cc691848d195ec38,22,Female,English,2024-06-12_10h40.23.438,ABmemTask3,2023.2.3,MacIntel,60.24096386,,,,,,,,,,,,,,,,,,,,,,,,,,,,,,,317.7918,318.793,318.7931,7,319.2901,320.9268,0.001,321.0411,0.1158,0.1186,0.1168,0.1175,0.1162,0.1165,0.1185,0.1169,0.1128,0.1206,0.1146,321.0413,321.8761,right,0.8173,,321.8762,322.2584,right,0.3674,,12,0,18,322.2585,323.2579,,,,,,1_AB,L5_T1P_T2P,5,1,1,6,11,5,4,15,toast,Did you see the toast,0.12,0,resources/,pics/piggybank.jpg,pics/leaf02a.jpg,pics/carrot01.jpg,pics/birdhouse.jpg,pics/bowlingpin.jpg,pics/toast.jpg,pics/spiderweb.jpg,pics/cork02.jpg,pics/sink.jpg,pics/nutcracker01.jpg,pics/stapler02.jpg,pics/ashtray01.jpg,pics/fanblades.jpg,pics/pencil01.jpg,pics/lightswitch01.jpg,blankImage,blankImage,toast,46,0.1173,0.1176,0.1161,,,,,,,,,,,,,,,,,,,,,,,,,,,,,,,,,,,,,,0,8,8,45,1,,,,,,,,,,,,,,,,,,,,,,,,,,,,,,,,,,,,,,,,,,,,,,,,,,,,,,,
,,,,,5f12749ec1ac141c20bf38ab,6669d216483b4754e2264ff7,6669dd04cc691848d195ec38,22,Female,English,2024-06-12_10h40.23.438,ABmemTask3,2023.2.3,MacIntel,60.24096386,,,,,,,,,,,,,,,,,,,,,,,,,,,,,,,323.2586,324.2597,324.2598,7,324.7601,326.2766,0.0013,326.393,0.1131,0.1165,0.1182,0.1176,0.1164,0.1164,0.1166,0.1142,0.12,0.1135,0.1185,326.393,327.4278,left,1.0113,,327.4279,327.8607,right,0.4134,,12,0,20,327.8608,328.8597,,,,,,1_AB,L5_T1P_T2P,5,1,1,6,11,5,3,14,mail box,Did you see the mail box,0.12,0,resources/,pics/pictureframe04.jpg,pics/seaturtle.jpg,pics/blender.jpg,pics/carrot01.jpg,pics/nutcracker01.jpg,pics/mailbox02.jpg,pics/seagull.jpg,pics/sink.jpg,pics/siamesecat.jpg,pics/spiderweb.jpg,pics/stapler08.jpg,pics/safetypin.jpg,pics/candle01.jpg,pics/mummy.jpg,blankImage,blankImage,blankImage,mailbox02,43,0.1176,0.1167,,,,,,,,,,,,,,,,,,,,,,,,,,,,,,,,,,,,,,,0,9,9,42,1,,,,,,,,,,,,,,,,,,,,,,,,,,,,,,,,,,,,,,,,,,,,,,,,,,,,,,,
,,,,,5f12749ec1ac141c20bf38ab,6669d216483b4754e2264ff7,6669dd04cc691848d195ec38,22,Female,English,2024-06-12_10h40.23.438,ABmemTask3,2023.2.3,MacIntel,60.24096386,,,,,,,,,,,,,,,,,,,,,,,,,,,,,,,328.8602,329.8598,329.8598,7,330.3607,332.1104,0.0009,332.227,0.1122,0.1182,0.1162,0.1184,0.1174,0.1166,0.1158,0.118,0.1166,0.1126,0.1195,332.2271,332.7611,right,0.5138,,332.7612,334.4233,right,1.6511,,10,0,22,334.4233,335.4232,,,,,,1_AB,L5_T1P_T2A,5,1,0,6,11,5,5,16,belt,Did you see the belt,0.12,0,resources/,pics/banjo.jpg,pics/birdhouse.jpg,pics/spoon01.jpg,pics/table01.jpg,pics/candle01.jpg,pics/belt02a.jpg,pics/peach01.jpg,pics/chainsaw.jpg,pics/toiletpaper01a.jpg,pics/proboscismonkey.jpg,pics/cymbal.jpg,pics/binoculars01b.jpg,pics/cannon.jpg,pics/noparkingsign.jpg,pics/sailboat.jpg,pics/carrot01.jpg,blankImage,belt02a,61,0.1167,0.1174,0.1164,,,,,,,,,,,,,,,,,,,,,,,,,,,,,,,,,,,,,,0,10,10,60,1,0.1171,,,,,,,,,,,,,,,,,,,,,,,,,,,,,,,,,,,,,,,,,,,,,,,,,,,,,,
,,,,,5f12749ec1ac141c20bf38ab,6669d216483b4754e2264ff7,6669dd04cc691848d195ec38,22,Female,English,2024-06-12_10h40.23.438,ABmemTask3,2023.2.3,MacIntel,60.24096386,,,,,,,,,,,,,,,,,,,,,,,,,,,,,,,335.4238,336.426,336.4261,7,336.9265,337.9771,0.001,338.0943,0.1162,0.1134,0.1174,0.1176,0.1187,0.1158,0.1171,0.1171,0.1166,,,338.0943,339.7565,left,1.6484,,339.7565,340.2072,right,0.4373,,12,0,24,340.2072,341.2092,,,,,,1_AB,L1_T1A_T2P,1,0,1,5,6,4,4,10,button,Did you see the button,0.12,0,resources/,pics/pencil01.jpg,pics/necklace.jpg,pics/sink.jpg,pics/noparkingsign.jpg,pics/banjo.jpg,pics/stapler03b.jpg,pics/candle01.jpg,pics/icecube01.jpg,pics/shovel01.jpg,pics/pencilsharpener02a.jpg,blankImage,blankImage,blankImage,blankImage,blankImage,blankImage,blankImage,button01,25,,,,,,,,,,,,,,,,,,,,,,,,,,,,,,,,,,,,,,,,,0,11,11,24,1,,,,,,,,,,,,,,,,,,,,,,,,,,,,,,,,,,,,,,,,,,,,,,,,,,,,,,,
,,,,,5f12749ec1ac141c20bf38ab,6669d216483b4754e2264ff7,6669dd04cc691848d195ec38,22,Female,English,2024-06-12_10h40.23.438,ABmemTask3,2023.2.3,MacIntel,60.24096386,,,,,,,,,,,,,,,,,,,,,,,,,,,,,,,341.2096,342.2103,342.2104,7,342.7101,343.876,0.001,343.9933,0.1164,0.116,0.1136,0.1204,0.1129,0.1174,0.1174,0.1195,0.1153,0.1163,,343.9933,344.9264,right,0.9165,,344.9265,345.2414,right,0.3061,,14,0,26,345.2415,346.2433,,,,,,1_AB,L1_T1P_T2P,1,1,1,7,8,6,3,11,medal,Did you see the medal,0.12,0,resources/,pics/hen.jpg,pics/starfish01.jpg,pics/nutcracker01.jpg,pics/ball02.jpg,pics/fanblades.jpg,pics/christmaslights.jpg,pics/medal02b.jpg,pics/stapler09.jpg,pics/carrot01.jpg,pics/hammerheadshark.jpg,pics/sailboat.jpg,blankImage,blankImage,blankImage,blankImage,blankImage,blankImage,medal02b,19,,,,,,,,,,,,,,,,,,,,,,,,,,,,,,,,,,,,,,,,,0,12,12,18,1,,,,,,,,,,,,,,,,,,,,,,,,,,,,,,,,,,,,,,,,,,,,,,,,,,,,,,,
,,,,,5f12749ec1ac141c20bf38ab,6669d216483b4754e2264ff7,6669dd04cc691848d195ec38,22,Female,English,2024-06-12_10h40.23.438,ABmemTask3,2023.2.3,MacIntel,60.24096386,,,,,,,,,,,,,,,,,,,,,,,,,,,,,,,346.2533,347.2433,347.2434,7,347.7432,348.6758,0.0012,348.7933,0.1159,0.1164,0.114,0.1176,0.1172,0.117,0.1175,0.1159,,,,348.7935,350.5264,left,1.7129,,350.5266,350.8737,left,0.3383,,16,0,28,350.8738,351.8765,,,,,,1_AB,L1_T1A_T2A,1,0,0,4,5,3,4,9,License Plate,Did you see the License Plate,0.12,0,resources/,pics/snowshoe.jpg,pics/kangaroo.jpg,pics/noparkingsign.jpg,pics/match.jpg,pics/hose.jpg,pics/blender.jpg,pics/ashtray01.jpg,pics/ball02.jpg,pics/sink.jpg,blankImage,blankImage,blankImage,blankImage,blankImage,blankImage,blankImage,blankImage,licenseplate,40,,,,,,,,,,,,,,,,,,,,,,,,,,,,,,,,,,,,,,,,,0,13,13,39,1,,,,,,,,,,,,,,,,,,,,,,,,,,,,,,,,,,,,,,,,,,,,,,,,,,,,,,,
,,,,,5f12749ec1ac141c20bf38ab,6669d216483b4754e2264ff7,6669dd04cc691848d195ec38,22,Female,English,2024-06-12_10h40.23.438,ABmemTask3,2023.2.3,MacIntel,60.24096386,,,,,,,,,,,,,,,,,,,,,,,,,,,,,,,351.877,352.8769,352.8769,7,353.3754,354.4259,0.0008,354.5425,0.117,0.1162,0.1183,0.1123,0.1171,0.1173,0.1177,0.1174,0.1166,,,354.5425,355.2772,right,0.7098,,355.2772,355.7066,right,0.415,,18,0,30,355.7067,356.7087,,,,,,1_AB,L1_T1P_T2P,1,1,1,5,6,4,4,10,thermometer,Did you see the thermometer,0.12,0,resources/,pics/triangle.jpg,pics/shovel01.jpg,pics/mummy.jpg,pics/noparkingsign.jpg,pics/thermometer02b.jpg,pics/stapler04.jpg,pics/piggybank.jpg,pics/golfball.jpg,pics/laptop01a.jpg,pics/aquarium.jpg,blankImage,blankImage,blankImage,blankImage,blankImage,blankImage,blankImage,thermometer02b,8,,,,,,,,,,,,,,,,,,,,,,,,,,,,,,,,,,,,,,,,,0,14,14,7,1,,,,,,,,,,,,,,,,,,,,,,,,,,,,,,,,,,,,,,,,,,,,,,,,,,,,,,,
,,,,,5f12749ec1ac141c20bf38ab,6669d216483b4754e2264ff7,6669dd04cc691848d195ec38,22,Female,English,2024-06-12_10h40.23.438,ABmemTask3,2023.2.3,MacIntel,60.24096386,,,,,,,,,,,,,,,,,,,,,,,,,,,,,,,356.7093,357.7069,357.707,7,358.2072,359.4929,0.001,359.6078,0.1184,0.1161,0.1172,0.1171,0.1135,0.1196,0.1151,0.1177,0.1174,0.1157,0.1172,359.6078,363.5599,right,3.9278,,363.56,365.1928,left,1.6183,,20,0,32,365.1928,366.1912,,,,,,1_AB,L1_T1P_T2A,1,1,0,7,8,6,4,12,Tennis racket,Did you see the Tennis racket,0.12,0,resources/,pics/banjo.jpg,pics/leaf02a.jpg,pics/shovel01.jpg,pics/microscope.jpg,pics/cork02.jpg,pics/seagull.jpg,pics/tennisracket.jpg,pics/binder03b.jpg,pics/floortile02.jpg,pics/carrot01.jpg,pics/candle01.jpg,pics/siamesecat.jpg,blankImage,blankImage,blankImage,blankImage,blankImage,tennisracket,38,,,,,,,,,,,,,,,,,,,,,,,,,,,,,,,,,,,,,,,,,0,15,15,37,1,,,,,,,,,,,,,,,,,,,,,,,,,,,,,,,,,,,,,,,,,,,,,,,,,,,,,,,
,,,,,5f12749ec1ac141c20bf38ab,6669d216483b4754e2264ff7,6669dd04cc691848d195ec38,22,Female,English,2024-06-12_10h40.23.438,ABmemTask3,2023.2.3,MacIntel,60.24096386,,,,,,,,,,,,,,,,,,,,,,,,,,,,,,,366.2016,367.1916,367.1917,7,367.69,368.8596,0.0009,368.9753,0.1171,0.1187,0.1148,0.119,0.1156,0.1165,0.114,0.1172,0.1175,0.1188,,368.9753,369.9901,right,1.0023,,369.9901,370.3409,right,0.3358,,22,0,34,370.3409,371.3423,,,,,,1_AB,L1_T1P_T2P,1,1,1,7,8,6,3,11,toothpick,Did you see the toothpick,0.12,0,resources/,pics/candleholder01.jpg,pics/blender.jpg,pics/siamesecat.jpg,pics/peanut01.jpg,pics/spiderweb.jpg,pics/football.jpg,pics/toothpick02.jpg,pics/stapler04b.jpg,pics/seagull.jpg,pics/pictureframe04.jpg,pics/shipinabottle.jpg,blankImage,blankImage,blankImage,blankImage,blankImage,blankImage,toothpick02,17,,,,,,,,,,,,,,,,,,,,,,,,,,,,,,,,,,,,,,,,,0,16,16,16,1,,,,,,,,,,,,,,,,,,,,,,,,,,,,,,,,,,,,,,,,,,,,,,,,,,,,,,,
,,,,,5f12749ec1ac141c20bf38ab,6669d216483b4754e2264ff7,6669dd04cc691848d195ec38,22,Female,English,2024-06-12_10h40.23.438,ABmemTask3,2023.2.3,MacIntel,60.24096386,,,,,,,,,,,,,,,,,,,,,,,,,,,,,,,371.3428,372.3408,372.3408,7,372.842,373.7755,0.001,373.8923,0.1168,0.1159,0.1176,0.1158,0.1146,0.1177,0.1183,0.1159,,,,373.8924,375.6094,right,1.6945,,375.6094,378.0411,left,2.4167,,24,0,36,378.0411,379.0434,,,,,,1_AB,L1_T1P_T2A,1,1,0,4,5,3,4,9,blueberry,Did you see the blueberry,0.12,0,resources/,pics/sealion.jpg,pics/piggybank.jpg,pics/sink.jpg,pics/blueberry01.jpg,pics/onion.jpg,pics/sailboat.jpg,pics/seaturtle.jpg,pics/hen.jpg,pics/fanblades.jpg,blankImage,blankImage,blankImage,blankImage,blankImage,blankImage,blankImage,blankImage,blueberry01,35,,,,,,,,,,,,,,,,,,,,,,,,,,,,,,,,,,,,,,,,,0,17,17,34,1,,,,,,,,,,,,,,,,,,,,,,,,,,,,,,,,,,,,,,,,,,,,,,,,,,,,,,,
,,,,,5f12749ec1ac141c20bf38ab,6669d216483b4754e2264ff7,6669dd04cc691848d195ec38,22,Female,English,2024-06-12_10h40.23.438,ABmemTask3,2023.2.3,MacIntel,60.24096386,,,,,,,,,,,,,,,,,,,,,,,,,,,,,,,379.0533,380.042,380.0421,7,380.5429,382.0582,0.001,382.1754,0.1165,0.1132,0.1168,0.1176,0.1173,0.1184,0.1159,0.1161,0.1153,0.1195,0.1161,382.1756,382.7263,right,0.5262,,382.7264,383.0595,right,0.3153,,26,0,38,383.0595,384.0583,,,,,,1_AB,L5_T1P_T2P,5,1,1,6,11,5,3,14,truck,Did you see the truck,0.12,0,resources/,pics/calendar.jpg,pics/mummy.jpg,pics/ashtray01.jpg,pics/pencilsharpener02a.jpg,pics/dustpan.jpg,pics/boxtruck.jpg,pics/lightswitch01.jpg,pics/pictureframe04.jpg,pics/starfish01.jpg,pics/zebra.jpg,pics/stapler12.jpg,pics/bowtie.jpg,pics/candleholder01.jpg,pics/candle01.jpg,blankImage,blankImage,blankImage,boxtruck,50,0.1177,0.1142,,,,,,,,,,,,,,,,,,,,,,,,,,,,,,,,,,,,,,,0,18,18,49,1,,,,,,,,,,,,,,,,,,,,,,,,,,,,,,,,,,,,,,,,,,,,,,,,,,,,,,,
,,,,,5f12749ec1ac141c20bf38ab,6669d216483b4754e2264ff7,6669dd04cc691848d195ec38,22,Female,English,2024-06-12_10h40.23.438,ABmemTask3,2023.2.3,MacIntel,60.24096386,,,,,,,,,,,,,,,,,,,,,,,,,,,,,,,384.0589,385.0595,385.0595,7,385.5566,386.373,0.001,386.493,0.1173,0.117,0.1172,0.1145,0.1194,0.113,0.1172,,,,,386.4931,387.941,left,1.4293,,387.9411,388.7096,right,0.7512,,28,0,40,388.7097,389.7099,,,,,,1_AB,L1_T1A_T2P,1,0,1,4,5,3,3,8,Parking meter,Did you see the Parking meter,0.12,0,resources/,pics/leaf02a.jpg,pics/carrot01.jpg,pics/sink.jpg,pics/butterfly.jpg,pics/stapler10.jpg,pics/pictureframe04.jpg,pics/spiderweb.jpg,pics/icecube01.jpg,blankImage,blankImage,blankImage,blankImage,blankImage,blankImage,blankImage,blankImage,blankImage,parkingmeter,30,,,,,,,,,,,,,,,,,,,,,,,,,,,,,,,,,,,,,,,,,0,19,19,29,1,,,,,,,,,,,,,,,,,,,,,,,,,,,,,,,,,,,,,,,,,,,,,,,,,,,,,,,
,,,,,5f12749ec1ac141c20bf38ab,6669d216483b4754e2264ff7,6669dd04cc691848d195ec38,22,Female,English,2024-06-12_10h40.23.438,ABmemTask3,2023.2.3,MacIntel,60.24096386,,,,,,,,,,,,,,,,,,,,,,,,,,,,,,,389.7103,390.706,390.706,7,391.2091,392.4903,0.001,392.6073,0.1157,0.1181,0.1125,0.1181,0.1153,0.1199,0.1168,0.1166,0.1167,0.1136,0.1172,392.6074,395.474,left,2.853,,395.4741,395.9598,left,0.4647,,26,0,42,395.9598,396.958,,,,,,1_AB,L1_T1P_T2P,1,1,1,7,8,6,4,12,Turnstile,Did you see the Turnstile,0.12,0,resources/,pics/golfball.jpg,pics/hose.jpg,pics/siamesecat.jpg,pics/binoculars01b.jpg,pics/hen.jpg,pics/candleholder01.jpg,pics/turnstile.jpg,pics/stapler03a.jpg,pics/giraffe.jpg,pics/pictureframe04.jpg,pics/sandbarshark.jpg,pics/spoon01.jpg,blankImage,blankImage,blankImage,blankImage,blankImage,turnstile,13,,,,,,,,,,,,,,,,,,,,,,,,,,,,,,,,,,,,,,,,,0,20,20,12,1,,,,,,,,,,,,,,,,,,,,,,,,,,,,,,,,,,,,,,,,,,,,,,,,,,,,,,,
,,,,,5f12749ec1ac141c20bf38ab,6669d216483b4754e2264ff7,6669dd04cc691848d195ec38,22,Female,English,2024-06-12_10h40.23.438,ABmemTask3,2023.2.3,MacIntel,60.24096386,,,,,,,,,,,,,,,,,,,,,,,,,,,,,,,396.9681,397.9566,397.9566,7,398.4595,399.391,0.0011,399.5085,0.1135,0.1187,0.1163,0.1151,0.1188,0.1141,0.1176,0.1165,,,,399.5085,400.5429,right,1.0106,,400.5429,400.8262,left,0.2651,,26,0,44,400.8263,401.8233,,,,,,1_AB,L1_T1P_T2P,1,1,1,5,6,4,3,9,Ant,Did you see the Ant,0.12,0,resources/,pics/kangaroo.jpg,pics/giraffe.jpg,pics/footballhelmet.jpg,pics/onion.jpg,pics/ant.jpg,pics/stapler04b.jpg,pics/banjo.jpg,pics/zebra.jpg,pics/dromedary.jpg,blankImage,blankImage,blankImage,blankImage,blankImage,blankImage,blankImage,blankImage,ant,15,,,,,,,,,,,,,,,,,,,,,,,,,,,,,,,,,,,,,,,,,0,21,21,14,1,,,,,,,,,,,,,,,,,,,,,,,,,,,,,,,,,,,,,,,,,,,,,,,,,,,,,,,
,,,,,5f12749ec1ac141c20bf38ab,6669d216483b4754e2264ff7,6669dd04cc691848d195ec38,22,Female,English,2024-06-12_10h40.23.438,ABmemTask3,2023.2.3,MacIntel,60.24096386,,,,,,,,,,,,,,,,,,,,,,,,,,,,,,,401.8236,402.8253,402.8253,7,403.3256,404.6089,0.0009,404.7238,0.1133,0.1201,0.1163,0.1155,0.1173,0.1168,0.117,0.1143,0.1188,0.1173,0.1159,404.7239,405.8074,right,1.0629,,405.8075,406.0905,left,0.2648,,26,0,46,406.0905,407.0897,,,,,,1_AB,L1_T1P_T2P,1,1,1,7,8,6,4,12,hammer,Did you see the hammer,0.12,0,resources/,pics/microscope.jpg,pics/blender.jpg,pics/dustpan.jpg,pics/snowshoe.jpg,pics/mummy.jpg,pics/bowtie.jpg,pics/hammer01.jpg,pics/stapler04b.jpg,pics/seaturtle.jpg,pics/candle01.jpg,pics/necklace.jpg,pics/cannon.jpg,blankImage,blankImage,blankImage,blankImage,blankImage,hammer01,21,,,,,,,,,,,,,,,,,,,,,,,,,,,,,,,,,,,,,,,,,0,22,22,20,1,,,,,,,,,,,,,,,,,,,,,,,,,,,,,,,,,,,,,,,,,,,,,,,,,,,,,,,
,,,,,5f12749ec1ac141c20bf38ab,6669d216483b4754e2264ff7,6669dd04cc691848d195ec38,22,Female,English,2024-06-12_10h40.23.438,ABmemTask3,2023.2.3,MacIntel,60.24096386,,,,,,,,,,,,,,,,,,,,,,,,,,,,,,,407.0899,408.0922,408.0922,7,408.5921,410.1065,0.0009,410.2231,0.1161,0.1198,0.1123,0.1186,0.1164,0.1162,0.1165,0.1162,0.1175,0.1147,0.1189,410.2231,410.6917,right,0.4524,,410.6919,410.9422,right,0.2348,,28,0,48,410.9423,411.9409,,,,,,1_AB,L5_T1P_T2P,5,1,1,4,9,3,5,14,pliers,Did you see the pliers,0.12,0,resources/,pics/calendar.jpg,pics/footballhelmet.jpg,pics/seaturtle.jpg,pics/pliers02b.jpg,pics/wheel01.jpg,pics/cannon.jpg,pics/proboscismonkey.jpg,pics/shovel01.jpg,pics/stapler06.jpg,pics/football.jpg,pics/hose.jpg,pics/dustpan.jpg,pics/spiderweb.jpg,pics/golfball.jpg,blankImage,blankImage,blankImage,pliers02b,48,0.1131,0.1174,,,,,,,,,,,,,,,,,,,,,,,,,,,,,,,,,,,,,,,0,23,23,47,1,,,,,,,,,,,,,,,,,,,,,,,,,,,,,,,,,,,,,,,,,,,,,,,,,,,,,,,
,,,,,5f12749ec1ac141c20bf38ab,6669d216483b4754e2264ff7,6669dd04cc691848d195ec38,22,Female,English,2024-06-12_10h40.23.438,ABmemTask3,2023.2.3,MacIntel,60.24096386,,,,,,,,,,,,,,,,,,,,,,,,,,,,,,,411.9413,412.9429,412.943,7,413.4392,414.608,0.001,414.7237,0.1198,0.1162,0.1157,0.1146,0.1192,0.117,0.117,0.1168,0.114,0.1177,,414.7238,415.6416,right,0.8961,,415.6417,415.8919,left,0.2345,,28,0,50,415.8919,416.8922,,,,,,1_AB,L1_T1P_T2P,1,1,1,7,8,6,3,11,Eiffel tower,Did you see the Eiffel tower,0.12,0,resources/,pics/seagull.jpg,pics/cymbal.jpg,pics/match.jpg,pics/binoculars01b.jpg,pics/ball02.jpg,pics/onion.jpg,pics/eiffeltower.jpg,pics/stapler11.jpg,pics/peach01.jpg,pics/sandbarshark.jpg,pics/boot02b.jpg,blankImage,blankImage,blankImage,blankImage,blankImage,blankImage,eiffeltower,1,,,,,,,,,,,,,,,,,,,,,,,,,,,,,,,,,,,,,,,,,0,24,24,0,1,,,,,,,,,,,,,,,,,,,,,,,,,,,,,,,,,,,,,,,,,,,,,,,,,,,,,,,
,,,,,5f12749ec1ac141c20bf38ab,6669d216483b4754e2264ff7,6669dd04cc691848d195ec38,22,Female,English,2024-06-12_10h40.23.438,ABmemTask3,2023.2.3,MacIntel,60.24096386,,,,,,,,,,,,,,,,,,,,,,,,,,,,,,,416.8928,417.8896,417.8897,7,418.3921,419.326,0.0008,419.4392,0.1136,0.1172,0.1176,0.1183,0.116,0.1165,0.1145,0.1197,,,,419.4393,421.7223,left,2.2598,,421.7224,421.9568,right,0.2187,,30,0,52,421.9569,422.9583,,,,,,1_AB,L1_T1A_T2P,1,0,1,5,6,4,3,9,Trailer,Did you see the Trailer,0.12,0,resources/,pics/pencil01.jpg,pics/football.jpg,pics/hairdryer02a.jpg,pics/wheel01.jpg,pics/chainsaw.jpg,pics/stapler10.jpg,pics/peanut01.jpg,pics/triangle.jpg,pics/sink.jpg,blankImage,blankImage,blankImage,blankImage,blankImage,blankImage,blankImage,blankImage,boxtrailer,29,,,,,,,,,,,,,,,,,,,,,,,,,,,,,,,,,,,,,,,,,0,25,25,28,1,,,,,,,,,,,,,,,,,,,,,,,,,,,,,,,,,,,,,,,,,,,,,,,,,,,,,,,
,,,,,5f12749ec1ac141c20bf38ab,6669d216483b4754e2264ff7,6669dd04cc691848d195ec38,22,Female,English,2024-06-12_10h40.23.438,ABmemTask3,2023.2.3,MacIntel,60.24096386,,,,,,,,,,,,,,,,,,,,,,,,,,,,,,,422.9685,423.9586,423.9587,7,424.4549,425.7423,0.0006,425.855,0.1166,0.1202,0.1167,0.1165,0.1142,0.1193,0.1171,0.1156,0.1174,0.114,0.1194,425.8551,426.2925,right,0.4206,,426.2925,426.5219,right,0.2156,,32,0,54,426.522,427.5293,,,,,,1_AB,L5_T1P_T2P,5,1,1,4,9,3,3,12,Sheep,Did you see the Sheep,0.12,0,resources/,pics/icecube01.jpg,pics/cymbal.jpg,pics/wheel01.jpg,pics/sheep.jpg,pics/starfish01.jpg,pics/safetypin.jpg,pics/siamesecat.jpg,pics/lock03a.jpg,pics/stapler01.jpg,pics/sink.jpg,pics/fanblades.jpg,pics/bowlingpin.jpg,blankImage,blankImage,blankImage,blankImage,blankImage,sheep,52,,,,,,,,,,,,,,,,,,,,,,,,,,,,,,,,,,,,,,,,,0,26,26,51,1,,,,,,,,,,,,,,,,,,,,,,,,,,,,,,,,,,,,,,,,,,,,,,,,,,,,,,,
,,,,,5f12749ec1ac141c20bf38ab,6669d216483b4754e2264ff7,6669dd04cc691848d195ec38,22,Female,English,2024-06-12_10h40.23.438,ABmemTask3,2023.2.3,MacIntel,60.24096386,,,,,,,,,,,,,,,,,,,,,,,,,,,,,,,427.5296,428.5219,428.522,7,429.0233,430.0745,0.0009,430.1922,0.1173,0.1171,0.117,0.1156,0.1181,0.1166,0.114,0.1179,0.1169,,,430.1923,430.89,right,0.6801,,430.8901,431.0891,right,0.1901,,34,0,56,431.0891,432.0898,,,,,,1_AB,L1_T1P_T2P,1,1,1,4,5,3,5,10,chair,Did you see the chair,0.12,0,resources/,pics/zebra.jpg,pics/floortile02.jpg,pics/cork02.jpg,pics/chair.jpg,pics/stapler07.jpg,pics/sealion.jpg,pics/shovel01.jpg,pics/piggybank.jpg,pics/candleholder01.jpg,pics/laptop01a.jpg,blankImage,blankImage,blankImage,blankImage,blankImage,blankImage,blankImage,chair,3,,,,,,,,,,,,,,,,,,,,,,,,,,,,,,,,,,,,,,,,,0,27,27,2,1,,,,,,,,,,,,,,,,,,,,,,,,,,,,,,,,,,,,,,,,,,,,,,,,,,,,,,,
,,,,,5f12749ec1ac141c20bf38ab,6669d216483b4754e2264ff7,6669dd04cc691848d195ec38,22,Female,English,2024-06-12_10h40.23.438,ABmemTask3,2023.2.3,MacIntel,60.24096386,,,,,,,,,,,,,,,,,,,,,,,,,,,,,,,432.0904,433.0916,433.0917,7,433.5887,434.9916,0.001,435.1085,0.1188,0.1155,0.1182,0.1163,0.1158,0.1176,0.1174,0.1167,0.1166,0.1145,0.1176,435.1087,435.7891,right,0.6661,,435.7892,436.0232,right,0.2239,,36,0,58,436.0233,437.0235,,,,,,1_AB,L1_T1P_T2P,1,1,1,7,8,6,5,13,Totem Pole,Did you see the Totem Pole,0.12,0,resources/,pics/laptop01a.jpg,pics/carrot01.jpg,pics/wheel01.jpg,pics/icecube01.jpg,pics/ashtray01.jpg,pics/lock03a.jpg,pics/totempole.jpg,pics/stapler08.jpg,pics/golfball.jpg,pics/pencil01.jpg,pics/banjo.jpg,pics/sandbarshark.jpg,pics/shipinabottle.jpg,blankImage,blankImage,blankImage,blankImage,totempole,22,0.1172,,,,,,,,,,,,,,,,,,,,,,,,,,,,,,,,,,,,,,,,0,28,28,21,1,,,,,,,,,,,,,,,,,,,,,,,,,,,,,,,,,,,,,,,,,,,,,,,,,,,,,,,
,,,,,5f12749ec1ac141c20bf38ab,6669d216483b4754e2264ff7,6669dd04cc691848d195ec38,22,Female,English,2024-06-12_10h40.23.438,ABmemTask3,2023.2.3,MacIntel,60.24096386,,,,,,,,,,,,,,,,,,,,,,,,,,,,,,,437.0241,438.0223,438.0223,7,438.5221,440.1592,0.0009,440.2752,0.1197,0.1148,0.1174,0.1149,0.1197,0.1165,0.117,0.1128,0.1163,0.1201,0.1172,440.2752,440.6739,right,0.3804,,440.6739,440.9233,right,0.2402,,38,0,60,440.9233,441.9244,,,,,,1_AB,L5_T1P_T2P,5,1,1,5,10,4,5,15,dolphin,Did you see the dolphin,0.12,0,resources/,pics/banjo.jpg,pics/shipinabottle.jpg,pics/laptop01a.jpg,pics/onion.jpg,pics/dolphin01.jpg,pics/sink.jpg,pics/seaturtle.jpg,pics/butterfly.jpg,pics/hen.jpg,pics/stapler10.jpg,pics/proboscismonkey.jpg,pics/starfish01.jpg,pics/salmon.jpg,pics/spiderweb.jpg,pics/cymbal.jpg,blankImage,blankImage,dolphin01,49,0.116,0.1165,0.1175,,,,,,,,,,,,,,,,,,,,,,,,,,,,,,,,,,,,,,0,29,29,48,1,,,,,,,,,,,,,,,,,,,,,,,,,,,,,,,,,,,,,,,,,,,,,,,,,,,,,,,
,,,,,5f12749ec1ac141c20bf38ab,6669d216483b4754e2264ff7,6669dd04cc691848d195ec38,22,Female,English,2024-06-12_10h40.23.438,ABmemTask3,2023.2.3,MacIntel,60.24096386,,,,,,,,,,,,,,,,,,,,,,,,,,,,,,,441.925,442.9247,442.9248,7,443.4249,444.3586,0.0008,444.4742,0.1157,0.1146,0.1192,0.1167,0.1172,0.1134,0.1177,0.1187,,,,444.4743,445.4919,right,0.9925,,445.492,445.8076,right,0.2956,,40,0,62,445.8077,446.8084,,,,,,1_AB,L1_T1P_T2P,1,1,1,5,6,4,3,9,paint brush,Did you see the paint brush,0.12,0,resources/,pics/nutcracker01.jpg,pics/piggybank.jpg,pics/spiderweb.jpg,pics/table01.jpg,pics/paintbrush01.jpg,pics/stapler09.jpg,pics/hose.jpg,pics/cannon.jpg,pics/mummy.jpg,blankImage,blankImage,blankImage,blankImage,blankImage,blankImage,blankImage,blankImage,paintbrush01,20,,,,,,,,,,,,,,,,,,,,,,,,,,,,,,,,,,,,,,,,,0,30,30,19,1,,,,,,,,,,,,,,,,,,,,,,,,,,,,,,,,,,,,,,,,,,,,,,,,,,,,,,,
,,,,,5f12749ec1ac141c20bf38ab,6669d216483b4754e2264ff7,6669dd04cc691848d195ec38,22,Female,English,2024-06-12_10h40.23.438,ABmemTask3,2023.2.3,MacIntel,60.24096386,,,,,,,,,,,,,,,,,,,,,,,,,,,,,,,446.8089,447.8075,447.8076,7,448.3078,450.1748,0.001,450.2911,0.1136,0.1198,0.1137,0.1173,0.1177,0.117,0.1175,0.1165,0.1169,0.1161,0.1142,450.2912,451.4228,left,1.1166,,451.4228,452.6075,left,1.1696,,42,0,64,452.6076,453.6048,,,,,,1_AB,L5_T1A_T2A,5,0,0,7,12,6,5,17,Bib,Did you see the Bib,0.12,0,resources/,pics/hammerheadshark.jpg,pics/wheel01.jpg,pics/binder03b.jpg,pics/hairdryer02a.jpg,pics/christmaslights.jpg,pics/sandbarshark.jpg,pics/binoculars01b.jpg,pics/piggybank.jpg,pics/aquarium.jpg,pics/candleholder01.jpg,pics/sink.jpg,pics/calendar.jpg,pics/birdhouse.jpg,pics/bowtie.jpg,pics/onion.jpg,pics/golfball.jpg,pics/sailboat.jpg,bib,62,0.1194,0.1172,0.1157,,,,,,,,,,,,,,,,,,,,,,,,,,,,,,,,,,,,,,0,31,31,61,1,0.1168,0.1168,,,,,,,,,,,,,,,,,,,,,,,,,,,,,,,,,,,,,,,,,,,,,,,,,,,,,
,,,,,5f12749ec1ac141c20bf38ab,6669d216483b4754e2264ff7,6669dd04cc691848d195ec38,22,Female,English,2024-06-12_10h40.23.438,ABmemTask3,2023.2.3,MacIntel,60.24096386,,,,,,,,,,,,,,,,,,,,,,,,,,,,,,,453.6053,454.6076,454.6077,7,455.1082,456.5084,0.0009,456.6235,0.1162,0.1132,0.1173,0.1163,0.1185,0.1145,0.1199,0.1165,0.1169,0.1169,0.1165,456.6235,457.8548,left,1.21,,457.8548,458.2398,right,0.3706,,44,0,66,458.2399,459.2388,,,,,,1_AB,L1_T1A_T2P,1,0,1,7,8,6,5,13,Basketball,Did you see the Basketball,0.12,0,resources/,pics/cork02.jpg,pics/table01.jpg,pics/christmaslights.jpg,pics/nutcracker01.jpg,pics/golfball.jpg,pics/hammerheadshark.jpg,pics/seaturtle.jpg,pics/stapler04b.jpg,pics/lock03a.jpg,pics/snowshoe.jpg,pics/sewingmachine01a.jpg,pics/peach01.jpg,pics/hose.jpg,blankImage,blankImage,blankImage,blankImage,basketball01,24,0.1166,,,,,,,,,,,,,,,,,,,,,,,,,,,,,,,,,,,,,,,,0,32,32,23,1,,,,,,,,,,,,,,,,,,,,,,,,,,,,,,,,,,,,,,,,,,,,,,,,,,,,,,,
,,,,,5f12749ec1ac141c20bf38ab,6669d216483b4754e2264ff7,6669dd04cc691848d195ec38,22,Female,English,2024-06-12_10h40.23.438,ABmemTask3,2023.2.3,MacIntel,60.24096386,,,,,,,,,,,,,,,,,,,,,,,,,,,,,,,459.2393,460.2391,460.2392,7,460.7408,462.3727,0.0009,462.49,0.1146,0.1189,0.1165,0.1171,0.1134,0.1179,0.117,0.1177,0.115,0.1187,0.1166,462.4901,462.9253,right,0.4115,,462.9253,463.2247,right,0.2791,,46,0,68,463.2248,464.2249,,,,,,1_AB,L5_T1P_T2P,5,1,1,5,10,4,5,15,ribbon,Did you see the ribbon,0.12,0,resources/,pics/giraffe.jpg,pics/boot02b.jpg,pics/cymbal.jpg,pics/leaf02a.jpg,pics/ribbon04.jpg,pics/lightswitch01.jpg,pics/necklace.jpg,pics/calendar.jpg,pics/kangaroo.jpg,pics/stapler12.jpg,pics/hose.jpg,pics/carrot01.jpg,pics/match.jpg,pics/sink.jpg,pics/candleholder01.jpg,blankImage,blankImage,ribbon04,53,0.1157,0.115,0.117,,,,,,,,,,,,,,,,,,,,,,,,,,,,,,,,,,,,,,0,33,33,52,1,,,,,,,,,,,,,,,,,,,,,,,,,,,,,,,,,,,,,,,,,,,,,,,,,,,,,,,
,,,,,5f12749ec1ac141c20bf38ab,6669d216483b4754e2264ff7,6669dd04cc691848d195ec38,22,Female,English,2024-06-12_10h40.23.438,ABmemTask3,2023.2.3,MacIntel,60.24096386,,,,,,,,,,,,,,,,,,,,,,,,,,,,,,,464.2255,465.2242,465.2242,7,465.7249,466.5419,0.001,466.6556,0.1162,0.1164,0.1161,0.1141,0.1198,0.1159,0.1177,,,,,466.6556,467.7066,right,1.0341,,467.7066,468.0047,left,0.2832,,46,0,70,468.0047,469.0083,,,,,,1_AB,L1_T1P_T2P,1,1,1,4,5,3,3,8,Recycling bin,Did you see the Recycling bin,0.12,0,resources/,pics/microscope.jpg,pics/dustpan.jpg,pics/seagull.jpg,pics/recyclingbin.jpg,pics/stapler06.jpg,pics/bowtie.jpg,pics/dromedary.jpg,pics/salmon.jpg,blankImage,blankImage,blankImage,blankImage,blankImage,blankImage,blankImage,blankImage,blankImage,recyclingbin,16,,,,,,,,,,,,,,,,,,,,,,,,,,,,,,,,,,,,,,,,,0,34,34,15,1,,,,,,,,,,,,,,,,,,,,,,,,,,,,,,,,,,,,,,,,,,,,,,,,,,,,,,,
,,,,,5f12749ec1ac141c20bf38ab,6669d216483b4754e2264ff7,6669dd04cc691848d195ec38,22,Female,English,2024-06-12_10h40.23.438,ABmemTask3,2023.2.3,MacIntel,60.24096386,,,,,,,,,,,,,,,,,,,,,,,,,,,,,,,469.0088,470.008,470.008,7,470.5061,471.4397,0.0009,471.5581,0.1153,0.119,0.117,0.1135,0.1198,0.1172,0.1134,0.1177,,,,471.5582,472.7079,right,1.1286,,472.7079,472.9583,right,0.2302,,48,0,72,472.9584,473.9561,,,,,,1_AB,L1_T1P_T2P,1,1,1,4,5,3,4,9,antenna,Did you see the antenna,0.12,0,resources/,pics/microscope.jpg,pics/spoon01.jpg,pics/dromedary.jpg,pics/antenna.jpg,pics/stapler03.jpg,pics/hen.jpg,pics/leaf02a.jpg,pics/candle01.jpg,pics/sealion.jpg,blankImage,blankImage,blankImage,blankImage,blankImage,blankImage,blankImage,blankImage,antenna,9,,,,,,,,,,,,,,,,,,,,,,,,,,,,,,,,,,,,,,,,,0,35,35,8,1,,,,,,,,,,,,,,,,,,,,,,,,,,,,,,,,,,,,,,,,,,,,,,,,,,,,,,,
,,,,,5f12749ec1ac141c20bf38ab,6669d216483b4754e2264ff7,6669dd04cc691848d195ec38,22,Female,English,2024-06-12_10h40.23.438,ABmemTask3,2023.2.3,MacIntel,60.24096386,,,,,,,,,,,,,,,,,,,,,,,,,,,,,,,473.9566,474.9573,474.9574,7,475.4552,476.7409,0.0006,476.8577,0.1176,0.1181,0.1164,0.1167,0.1169,0.1131,0.1175,0.1172,0.1188,0.1171,0.116,476.8578,477.7223,right,0.8467,,477.7225,477.9416,right,0.2051,,50,0,74,477.9416,478.9408,,,,,,1_AB,L1_T1P_T2P,1,1,1,6,7,5,5,12,rope,Did you see the rope,0.12,0,resources/,pics/toiletpaper01a.jpg,pics/sewingmachine01a.jpg,pics/birdhouse.jpg,pics/sealion.jpg,pics/safetypin.jpg,pics/rope03.jpg,pics/stapler04.jpg,pics/binder03b.jpg,pics/ashtray01.jpg,pics/sandbarshark.jpg,pics/chainsaw.jpg,pics/nutcracker01.jpg,blankImage,blankImage,blankImage,blankImage,blankImage,rope03,4,,,,,,,,,,,,,,,,,,,,,,,,,,,,,,,,,,,,,,,,,0,36,36,3,1,,,,,,,,,,,,,,,,,,,,,,,,,,,,,,,,,,,,,,,,,,,,,,,,,,,,,,,
,,,,,5f12749ec1ac141c20bf38ab,6669d216483b4754e2264ff7,6669dd04cc691848d195ec38,22,Female,English,2024-06-12_10h40.23.438,ABmemTask3,2023.2.3,MacIntel,60.24096386,,,,,,,,,,,,,,,,,,,,,,,,,,,,,,,478.9414,479.9407,479.9408,7,480.4416,481.6082,0.0011,481.7238,0.1153,0.1138,0.1168,0.1202,0.1152,0.1171,0.1166,0.1174,0.1166,0.1167,,481.7239,482.2914,right,0.544,,482.2915,482.4887,right,0.1889,,52,0,76,482.4888,483.4914,,,,,,1_AB,L1_T1P_T2P,1,1,1,7,8,6,3,11,sock,Did you see the sock,0.12,0,resources/,pics/hen.jpg,pics/christmaslights.jpg,pics/salmon.jpg,pics/sealion.jpg,pics/seaturtle.jpg,pics/giraffe.jpg,pics/athleticsock.jpg,pics/stapler01.jpg,pics/shovel01.jpg,pics/leaf02a.jpg,pics/backpack01a.jpg,blankImage,blankImage,blankImage,blankImage,blankImage,blankImage,athleticsock,11,,,,,,,,,,,,,,,,,,,,,,,,,,,,,,,,,,,,,,,,,0,37,37,10,1,,,,,,,,,,,,,,,,,,,,,,,,,,,,,,,,,,,,,,,,,,,,,,,,,,,,,,,
,,,,,5f12749ec1ac141c20bf38ab,6669d216483b4754e2264ff7,6669dd04cc691848d195ec38,22,Female,English,2024-06-12_10h40.23.438,ABmemTask3,2023.2.3,MacIntel,60.24096386,,,,,,,,,,,,,,,,,,,,,,,,,,,,,,,483.4919,484.4899,484.4899,7,484.9908,486.741,0.0009,486.8581,0.1158,0.1171,0.1139,0.1173,0.1158,0.1189,0.1145,0.1195,0.1166,0.1136,0.1198,486.8582,487.2574,right,0.3766,,487.2575,487.4905,right,0.2126,,54,0,78,487.4905,488.4904,,,,,,1_AB,L5_T1P_T2P,5,1,1,6,11,5,5,16,cruise ship,Did you see the cruise ship,0.12,0,resources/,pics/seaturtle.jpg,pics/ashtray01.jpg,pics/pencil01.jpg,pics/fanblades.jpg,pics/triangle.jpg,pics/cruiseship.jpg,pics/wheel01.jpg,pics/dustpan.jpg,pics/starfish01.jpg,pics/banjo.jpg,pics/stapler12.jpg,pics/match.jpg,pics/cannon.jpg,pics/sandbarshark.jpg,pics/sink.jpg,pics/zebra.jpg,blankImage,cruiseship,51,0.1146,0.1188,0.116,,,,,,,,,,,,,,,,,,,,,,,,,,,,,,,,,,,,,,0,38,38,50,1,0.1172,,,,,,,,,,,,,,,,,,,,,,,,,,,,,,,,,,,,,,,,,,,,,,,,,,,,,,
,,,,,5f12749ec1ac141c20bf38ab,6669d216483b4754e2264ff7,6669dd04cc691848d195ec38,22,Female,English,2024-06-12_10h40.23.438,ABmemTask3,2023.2.3,MacIntel,60.24096386,,,,,,,,,,,,,,,,,,,,,,,,,,,,,,,488.4909,489.4913,489.4914,7,489.9904,491.157,0.001,491.2737,0.1152,0.1175,0.1141,0.1196,0.1142,0.1191,0.1169,0.1146,0.1186,0.1159,,491.2738,492.674,left,1.3779,,492.6741,492.9223,right,0.2302,,56,0,80,492.9224,493.9237,,,,,,1_AB,L1_T1A_T2P,1,0,1,7,8,6,3,11,turkey,Did you see the turkey,0.12,0,resources/,pics/proboscismonkey.jpg,pics/blender.jpg,pics/sealion.jpg,pics/snowshoe.jpg,pics/carrot01.jpg,pics/microscope.jpg,pics/piggybank.jpg,pics/stapler12.jpg,pics/peanut01.jpg,pics/dustpan.jpg,pics/footballhelmet.jpg,blankImage,blankImage,blankImage,blankImage,blankImage,blankImage,turkey,26,,,,,,,,,,,,,,,,,,,,,,,,,,,,,,,,,,,,,,,,,0,39,39,25,1,,,,,,,,,,,,,,,,,,,,,,,,,,,,,,,,,,,,,,,,,,,,,,,,,,,,,,,
,,,,,5f12749ec1ac141c20bf38ab,6669d216483b4754e2264ff7,6669dd04cc691848d195ec38,22,Female,English,2024-06-12_10h40.23.438,ABmemTask3,2023.2.3,MacIntel,60.24096386,,,,,,,,,,,,,,,,,,,,,,,,,,,,,,,493.9243,494.924,494.9241,7,495.4234,496.8212,0.0011,496.9383,0.1168,0.1165,0.1166,0.1171,0.1138,0.1198,0.1149,0.1174,0.1172,0.1168,0.1163,496.9383,497.3409,right,0.3788,,497.3409,497.5237,right,0.1704,,58,0,82,497.5238,498.5243,,,,,,1_AB,L1_T1P_T2P,1,1,1,7,8,6,5,13,strawberry,Did you see the strawberry,0.12,0,resources/,pics/sealion.jpg,pics/backpack01a.jpg,pics/binoculars01b.jpg,pics/ball02.jpg,pics/proboscismonkey.jpg,pics/pictureframe04.jpg,pics/strawberry.jpg,pics/stapler12.jpg,pics/seaturtle.jpg,pics/dustpan.jpg,pics/bowlingpin.jpg,pics/hammerheadshark.jpg,pics/hen.jpg,blankImage,blankImage,blankImage,blankImage,strawberry,10,0.1139,,,,,,,,,,,,,,,,,,,,,,,,,,,,,,,,,,,,,,,,0,40,40,9,1,,,,,,,,,,,,,,,,,,,,,,,,,,,,,,,,,,,,,,,,,,,,,,,,,,,,,,,
,,,,,5f12749ec1ac141c20bf38ab,6669d216483b4754e2264ff7,6669dd04cc691848d195ec38,22,Female,English,2024-06-12_10h40.23.438,ABmemTask3,2023.2.3,MacIntel,60.24096386,,,,,,,,,,,,,,,,,,,,,,,,,,,,,,,498.5248,499.5237,499.5238,7,500.0241,501.0719,0.0008,501.1907,0.1136,0.1176,0.1171,0.1174,0.1168,0.1168,0.1167,0.1168,0.1145,,,501.1907,502.1048,right,0.9026,,502.1049,502.5064,left,0.3843,,58,0,84,502.5065,503.5068,,,,,,1_AB,L1_T1P_T2P,1,1,1,4,5,3,5,10,flute,Did you see the flute,0.12,0,resources/,pics/peach01.jpg,pics/seaturtle.jpg,pics/dromedary.jpg,pics/recorder01.jpg,pics/stapler08.jpg,pics/giraffe.jpg,pics/blender.jpg,pics/necklace.jpg,pics/sink.jpg,pics/dustpan.jpg,blankImage,blankImage,blankImage,blankImage,blankImage,blankImage,blankImage,recorder01,7,,,,,,,,,,,,,,,,,,,,,,,,,,,,,,,,,,,,,,,,,0,41,41,6,1,,,,,,,,,,,,,,,,,,,,,,,,,,,,,,,,,,,,,,,,,,,,,,,,,,,,,,,
,,,,,5f12749ec1ac141c20bf38ab,6669d216483b4754e2264ff7,6669dd04cc691848d195ec38,22,Female,English,2024-06-12_10h40.23.438,ABmemTask3,2023.2.3,MacIntel,60.24096386,,,,,,,,,,,,,,,,,,,,,,,,,,,,,,,503.5074,504.5063,504.5064,7,505.007,506.4071,0.0008,506.5216,0.1163,0.1175,0.1164,0.1151,0.1161,0.1175,0.1172,0.1167,0.1166,0.1172,0.1167,506.5216,508.024,left,1.4865,,508.0241,508.7376,right,0.7026,,56,0,86,508.7377,509.7379,,,,,,1_AB,L1_T1A_T2A,1,0,0,7,8,6,5,13,fan,Did you see the fan,0.12,0,resources/,pics/leaf02a.jpg,pics/dustpan.jpg,pics/pencil01.jpg,pics/kangaroo.jpg,pics/golfball.jpg,pics/lightswitch01.jpg,pics/nutcracker01.jpg,pics/calendar.jpg,pics/hose.jpg,pics/starfish01.jpg,pics/siamesecat.jpg,pics/bowlingpin.jpg,pics/necklace.jpg,blankImage,blankImage,blankImage,blankImage,fan,42,0.1162,,,,,,,,,,,,,,,,,,,,,,,,,,,,,,,,,,,,,,,,0,42,42,41,1,,,,,,,,,,,,,,,,,,,,,,,,,,,,,,,,,,,,,,,,,,,,,,,,,,,,,,,
,,,,,5f12749ec1ac141c20bf38ab,6669d216483b4754e2264ff7,6669dd04cc691848d195ec38,22,Female,English,2024-06-12_10h40.23.438,ABmemTask3,2023.2.3,MacIntel,60.24096386,,,,,,,,,,,,,,,,,,,,,,,,,,,,,,,509.7384,510.7404,510.7404,7,511.2399,512.4052,0.001,512.5222,0.1133,0.1177,0.1188,0.1137,0.1198,0.1165,0.117,0.1163,0.1165,0.1149,,512.5223,513.3073,left,0.764,,513.3074,513.957,right,0.6306,,58,0,88,513.9571,514.9542,,,,,,1_AB,L1_T1A_T2P,1,0,1,5,6,4,5,11,Recorder,Did you see the Recorder,0.12,0,resources/,pics/bowtie.jpg,pics/nutcracker01.jpg,pics/hairdryer02a.jpg,pics/shovel01.jpg,pics/onion.jpg,pics/stapler13.jpg,pics/safetypin.jpg,pics/spiderweb.jpg,pics/seagull.jpg,pics/dustpan.jpg,pics/icecube01.jpg,blankImage,blankImage,blankImage,blankImage,blankImage,blankImage,recorder04,28,,,,,,,,,,,,,,,,,,,,,,,,,,,,,,,,,,,,,,,,,0,43,43,27,1,,,,,,,,,,,,,,,,,,,,,,,,,,,,,,,,,,,,,,,,,,,,,,,,,,,,,,,
,,,,,5f12749ec1ac141c20bf38ab,6669d216483b4754e2264ff7,6669dd04cc691848d195ec38,22,Female,English,2024-06-12_10h40.23.438,ABmemTask3,2023.2.3,MacIntel,60.24096386,,,,,,,,,,,,,,,,,,,,,,,,,,,,,,,514.9547,515.957,515.957,7,516.457,517.6212,0.001,517.7379,0.1141,0.1183,0.114,0.1183,0.1175,0.117,0.1166,0.1174,0.116,0.1142,,517.7381,518.6046,right,0.8466,,518.6046,518.9044,left,0.2867,,60,0,90,518.9044,519.9046,,,,,,1_AB,L1_T1P_T2A,1,1,0,6,7,5,4,11,lamp,Did you see the lamp,0.12,0,resources/,pics/chainsaw.jpg,pics/fanblades.jpg,pics/salmon.jpg,pics/proboscismonkey.jpg,pics/boot02b.jpg,pics/lamp04a.jpg,pics/blender.jpg,pics/sink.jpg,pics/pencil01.jpg,pics/floortile02.jpg,pics/shovel01.jpg,blankImage,blankImage,blankImage,blankImage,blankImage,blankImage,lamp04a,37,,,,,,,,,,,,,,,,,,,,,,,,,,,,,,,,,,,,,,,,,0,44,44,36,1,,,,,,,,,,,,,,,,,,,,,,,,,,,,,,,,,,,,,,,,,,,,,,,,,,,,,,,
,,,,,5f12749ec1ac141c20bf38ab,6669d216483b4754e2264ff7,6669dd04cc691848d195ec38,22,Female,English,2024-06-12_10h40.23.438,ABmemTask3,2023.2.3,MacIntel,60.24096386,,,,,,,,,,,,,,,,,,,,,,,,,,,,,,,519.9052,520.9072,520.9072,7,521.4069,522.6877,0.001,522.8068,0.1162,0.1156,0.1161,0.1186,0.1164,0.117,0.116,0.1168,0.1151,0.1164,0.1158,522.8069,523.7741,right,0.9472,,523.7741,524.4898,left,0.6992,,60,0,92,524.4898,525.4875,,,,,,1_AB,L1_T1P_T2P,1,1,1,6,7,5,5,12,Bear,Did you see the Bear,0.12,0,resources/,pics/necklace.jpg,pics/hen.jpg,pics/dromedary.jpg,pics/piggybank.jpg,pics/sandbarshark.jpg,pics/grizzly.jpg,pics/stapler12.jpg,pics/bowlingpin.jpg,pics/christmaslights.jpg,pics/icecube01.jpg,pics/match.jpg,pics/lock03a.jpg,blankImage,blankImage,blankImage,blankImage,blankImage,grizzly,18,,,,,,,,,,,,,,,,,,,,,,,,,,,,,,,,,,,,,,,,,0,45,45,17,1,,,,,,,,,,,,,,,,,,,,,,,,,,,,,,,,,,,,,,,,,,,,,,,,,,,,,,,
,,,,,5f12749ec1ac141c20bf38ab,6669d216483b4754e2264ff7,6669dd04cc691848d195ec38,22,Female,English,2024-06-12_10h40.23.438,ABmemTask3,2023.2.3,MacIntel,60.24096386,,,,,,,,,,,,,,,,,,,,,,,,,,,,,,,525.488,526.49,526.4901,7,526.9897,528.0395,0.0009,528.1539,0.1163,0.1144,0.1175,0.1172,0.1162,0.1186,0.117,0.1157,0.1162,,,528.1541,528.6232,right,0.4513,,528.6234,528.9037,right,0.2677,,62,0,94,528.9038,529.9046,,,,,,1_AB,L1_T1P_T2P,1,1,1,4,5,3,5,10,vacuum,Did you see the vacuum,0.12,0,resources/,pics/birdhouse.jpg,pics/floortile02.jpg,pics/toiletpaper01a.jpg,pics/vacuumcleaner01.jpg,pics/stapler02.jpg,pics/spoon01.jpg,pics/banjo.jpg,pics/binder03b.jpg,pics/leaf02a.jpg,pics/aquarium.jpg,blankImage,blankImage,blankImage,blankImage,blankImage,blankImage,blankImage,vacuumcleaner01,5,,,,,,,,,,,,,,,,,,,,,,,,,,,,,,,,,,,,,,,,,0,46,46,4,1,,,,,,,,,,,,,,,,,,,,,,,,,,,,,,,,,,,,,,,,,,,,,,,,,,,,,,,
,,,,,5f12749ec1ac141c20bf38ab,6669d216483b4754e2264ff7,6669dd04cc691848d195ec38,22,Female,English,2024-06-12_10h40.23.438,ABmemTask3,2023.2.3,MacIntel,60.24096386,,,,,,,,,,,,,,,,,,,,,,,,,,,,,,,529.9052,530.9071,530.9071,7,531.4063,532.9236,0.0009,533.0394,0.1163,0.1147,0.1177,0.118,0.1167,0.1148,0.1181,0.1167,0.1167,0.1151,0.1184,533.0395,533.6049,right,0.5483,,533.6049,534.4727,right,0.8545,,64,0,96,534.4727,535.4737,,,,,,1_AB,L5_T1P_T2P,5,1,1,5,10,4,4,14,Fox,Did you see the Fox,0.12,0,resources/,pics/hammerheadshark.jpg,pics/bowlingpin.jpg,pics/pictureframe04.jpg,pics/peanut01.jpg,pics/redfox.jpg,pics/cymbal.jpg,pics/spoon01.jpg,pics/banjo.jpg,pics/butterfly.jpg,pics/stapler11.jpg,pics/football.jpg,pics/safetypin.jpg,pics/triangle.jpg,pics/onion.jpg,blankImage,blankImage,blankImage,redfox,45,0.1171,0.1164,,,,,,,,,,,,,,,,,,,,,,,,,,,,,,,,,,,,,,,0,47,47,44,1,,,,,,,,,,,,,,,,,,,,,,,,,,,,,,,,,,,,,,,,,,,,,,,,,,,,,,,
,,,,,5f12749ec1ac141c20bf38ab,6669d216483b4754e2264ff7,6669dd04cc691848d195ec38,22,Female,English,2024-06-12_10h40.23.438,ABmemTask3,2023.2.3,MacIntel,60.24096386,,,,,,,,,,,,,,,,,,,,,,,,,,,,,,,535.4743,536.4736,536.4736,7,536.9732,538.2572,0.0009,538.3732,0.116,0.1151,0.1188,0.1149,0.1182,0.1164,0.1168,0.1147,0.1189,0.1169,0.1164,538.3734,539.5064,right,1.1162,,539.5065,539.9233,right,0.4016,,66,0,98,539.9234,540.923,,,,,,1_AB,L1_T1P_T2P,1,1,1,6,7,5,5,12,jeep,Did you see the jeep,0.12,0,resources/,pics/sandbarshark.jpg,pics/laptop01a.jpg,pics/peach01.jpg,pics/binoculars01b.jpg,pics/giraffe.jpg,pics/jeep.jpg,pics/stapler03b.jpg,pics/fanblades.jpg,pics/cannon.jpg,pics/starfish01.jpg,pics/piggybank.jpg,pics/noparkingsign.jpg,blankImage,blankImage,blankImage,blankImage,blankImage,jeep,2,,,,,,,,,,,,,,,,,,,,,,,,,,,,,,,,,,,,,,,,,0,48,48,1,1,,,,,,,,,,,,,,,,,,,,,,,,,,,,,,,,,,,,,,,,,,,,,,,,,,,,,,,
,,,,,5f12749ec1ac141c20bf38ab,6669d216483b4754e2264ff7,6669dd04cc691848d195ec38,22,Female,English,2024-06-12_10h40.23.438,ABmemTask3,2023.2.3,MacIntel,60.24096386,,,,,,,,,,,,,,,,,,,,,,,,,,,,,,,540.9235,541.923,541.9231,7,542.4234,543.5877,0.0008,543.7059,0.1133,0.1184,0.1177,0.1166,0.1164,0.1167,0.1165,0.1148,0.119,0.1144,,543.706,544.6732,right,0.9501,,544.6733,545.0398,right,0.3503,,64,0,100,545.0398,546.0396,,,,,,1_AB,L1_T1P_T2A,1,1,0,7,8,6,3,11,garlic,Did you see the garlic,0.12,0,resources/,pics/zebra.jpg,pics/banjo.jpg,pics/pencilsharpener02a.jpg,pics/football.jpg,pics/candle01.jpg,pics/footballhelmet.jpg,pics/garlic01a.jpg,pics/birdhouse.jpg,pics/peach01.jpg,pics/pictureframe04.jpg,pics/binder03b.jpg,blankImage,blankImage,blankImage,blankImage,blankImage,blankImage,garlic01a,33,,,,,,,,,,,,,,,,,,,,,,,,,,,,,,,,,,,,,,,,,0,49,49,32,1,,,,,,,,,,,,,,,,,,,,,,,,,,,,,,,,,,,,,,,,,,,,,,,,,,,,,,,
,,,,,5f12749ec1ac141c20bf38ab,6669d216483b4754e2264ff7,6669dd04cc691848d195ec38,22,Female,English,2024-06-12_10h40.23.438,ABmemTask3,2023.2.3,MacIntel,60.24096386,,,,,,,,,,,,,,,,,,,,,,,,,,,,,,,546.0402,547.0392,547.0393,7,547.5395,548.9402,0.0011,549.0553,0.1159,0.117,0.117,0.1156,0.1174,0.117,0.1167,0.1168,0.1167,0.1136,0.1173,549.0554,549.6734,right,0.597,,549.6736,549.9897,right,0.3022,,66,0,102,549.9897,550.9897,,,,,,1_AB,L5_T1P_T2P,5,1,1,4,9,3,4,13,Forklift,Did you see the Forklift,0.12,0,resources/,pics/dustpan.jpg,pics/table01.jpg,pics/sink.jpg,pics/forklift.jpg,pics/dromedary.jpg,pics/proboscismonkey.jpg,pics/cymbal.jpg,pics/shovel01.jpg,pics/stapler10.jpg,pics/backpack01a.jpg,pics/binder03b.jpg,pics/banjo.jpg,pics/candleholder01.jpg,blankImage,blankImage,blankImage,blankImage,forklift,47,0.1187,,,,,,,,,,,,,,,,,,,,,,,,,,,,,,,,,,,,,,,,0,50,50,46,1,,,,,,,,,,,,,,,,,,,,,,,,,,,,,,,,,,,,,,,,,,,,,,,,,,,,,,,
,,,,,5f12749ec1ac141c20bf38ab,6669d216483b4754e2264ff7,6669dd04cc691848d195ec38,22,Female,English,2024-06-12_10h40.23.438,ABmemTask3,2023.2.3,MacIntel,60.24096386,,,,,,,,,,,,,,,,,,,,,,,,,,,,,,,550.9903,551.9895,551.9895,7,552.4891,553.4228,0.001,553.5407,0.1163,0.1167,0.1165,0.1165,0.1176,0.1159,0.1173,0.1162,,,,553.5407,554.4062,right,0.8434,,554.4062,554.6695,right,0.2524,,68,0,104,554.6695,555.673,,,,,,1_AB,L1_T1P_T2P,1,1,1,5,6,4,3,9,cabbage,Did you see the cabbage,0.12,0,resources/,pics/match.jpg,pics/icecube01.jpg,pics/noparkingsign.jpg,pics/christmaslights.jpg,pics/cabbage.jpg,pics/stapler03a.jpg,pics/carrot01.jpg,pics/dustpan.jpg,pics/cannon.jpg,blankImage,blankImage,blankImage,blankImage,blankImage,blankImage,blankImage,blankImage,cabbage,14,,,,,,,,,,,,,,,,,,,,,,,,,,,,,,,,,,,,,,,,,0,51,51,13,1,,,,,,,,,,,,,,,,,,,,,,,,,,,,,,,,,,,,,,,,,,,,,,,,,,,,,,,
,,,,,5f12749ec1ac141c20bf38ab,6669d216483b4754e2264ff7,6669dd04cc691848d195ec38,22,Female,English,2024-06-12_10h40.23.438,ABmemTask3,2023.2.3,MacIntel,60.24096386,,,,,,,,,,,,,,,,,,,,,,,,,,,,,,,555.6735,556.673,556.6731,7,557.1714,558.6901,0.0009,558.8047,0.1172,0.1151,0.1181,0.1148,0.1193,0.1151,0.1173,0.1169,0.1176,0.1165,0.1169,558.8048,559.6366,right,0.8172,,559.6366,560.0224,left,0.3686,,70,0,106,560.0224,561.0222,,,,,,1_AB,L5_T1P_T2A,5,1,0,6,11,5,3,14,Kiwi,Did you see the Kiwi,0.12,0,resources/,pics/candleholder01.jpg,pics/kangaroo.jpg,pics/banjo.jpg,pics/binoculars01b.jpg,pics/microscope.jpg,pics/kiwi03.jpg,pics/bowtie.jpg,pics/peanut01.jpg,pics/backpack01a.jpg,pics/zebra.jpg,pics/toiletpaper01a.jpg,pics/hen.jpg,pics/spoon01.jpg,pics/calendar.jpg,blankImage,blankImage,blankImage,kiwi03,59,0.115,0.1182,,,,,,,,,,,,,,,,,,,,,,,,,,,,,,,,,,,,,,,0,52,52,58,1,,,,,,,,,,,,,,,,,,,,,,,,,,,,,,,,,,,,,,,,,,,,,,,,,,,,,,,
,,,,,5f12749ec1ac141c20bf38ab,6669d216483b4754e2264ff7,6669dd04cc691848d195ec38,22,Female,English,2024-06-12_10h40.23.438,ABmemTask3,2023.2.3,MacIntel,60.24096386,,,,,,,,,,,,,,,,,,,,,,,,,,,,,,,561.0228,562.0231,562.0231,7,562.522,563.6865,0.0009,563.809,0.1164,0.1171,0.1145,0.1185,0.1173,0.1166,0.1153,0.1165,0.1178,0.1138,,563.809,565.5233,right,1.6959,,565.5233,565.7724,right,0.2284,,68,0,108,565.7724,566.7727,,,,,,1_AB,L1_T1P_T2A,1,1,0,7,8,6,3,11,Spear,Did you see the Spear,0.12,0,resources/,pics/butterfly.jpg,pics/banjo.jpg,pics/chainsaw.jpg,pics/christmaslights.jpg,pics/dustpan.jpg,pics/shovel01.jpg,pics/spear02.jpg,pics/table01.jpg,pics/starfish01.jpg,pics/bowlingpin.jpg,pics/carrot01.jpg,blankImage,blankImage,blankImage,blankImage,blankImage,blankImage,spear02,39,,,,,,,,,,,,,,,,,,,,,,,,,,,,,,,,,,,,,,,,,0,53,53,38,1,,,,,,,,,,,,,,,,,,,,,,,,,,,,,,,,,,,,,,,,,,,,,,,,,,,,,,,
,,,,,5f12749ec1ac141c20bf38ab,6669d216483b4754e2264ff7,6669dd04cc691848d195ec38,22,Female,English,2024-06-12_10h40.23.438,ABmemTask3,2023.2.3,MacIntel,60.24096386,,,,,,,,,,,,,,,,,,,,,,,,,,,,,,,566.7827,567.7722,567.7723,7,568.2713,569.9039,0.0011,570.0232,0.117,0.1173,0.1158,0.1173,0.1163,0.1148,0.119,0.1165,0.1157,0.1182,0.1159,570.0233,572.0062,left,1.9635,,572.0063,572.454,right,0.433,,70,0,110,572.454,573.4551,,,,,,1_AB,L5_T1A_T2P,5,0,1,5,10,4,5,15,scorpion,Did you see the scorpion,0.12,0,resources/,pics/pictureframe04.jpg,pics/binder03b.jpg,pics/pencil01.jpg,pics/leaf02a.jpg,pics/icecube01.jpg,pics/dromedary.jpg,pics/toiletpaper01a.jpg,pics/peanut01.jpg,pics/golfball.jpg,pics/stapler03.jpg,pics/carrot01.jpg,pics/peach01.jpg,pics/sealion.jpg,pics/football.jpg,pics/zebra.jpg,blankImage,blankImage,scorpion,54,0.1168,0.1161,0.1149,,,,,,,,,,,,,,,,,,,,,,,,,,,,,,,,,,,,,,0,54,54,53,1,,,,,,,,,,,,,,,,,,,,,,,,,,,,,,,,,,,,,,,,,,,,,,,,,,,,,,,
,,,,,5f12749ec1ac141c20bf38ab,6669d216483b4754e2264ff7,6669dd04cc691848d195ec38,22,Female,English,2024-06-12_10h40.23.438,ABmemTask3,2023.2.3,MacIntel,60.24096386,,,,,,,,,,,,,,,,,,,,,,,,,,,,,,,573.4653,574.456,574.456,7,574.956,576.1223,0.0009,576.2369,0.1151,0.1179,0.1158,0.1166,0.1167,0.1173,0.1165,0.1168,0.1159,0.1171,,576.2369,577.5535,right,1.2987,,577.5536,577.9553,left,0.3843,,72,0,112,577.9554,578.9535,,,,,,1_AB,L1_T1P_T2A,1,1,0,7,8,6,3,11,eggplant,Did you see the eggplant,0.12,0,resources/,pics/salmon.jpg,pics/fanblades.jpg,pics/hammerheadshark.jpg,pics/wheel01.jpg,pics/snowshoe.jpg,pics/birdhouse.jpg,pics/eggplant.jpg,pics/spiderweb.jpg,pics/zebra.jpg,pics/pencilsharpener02a.jpg,pics/backpack01a.jpg,blankImage,blankImage,blankImage,blankImage,blankImage,blankImage,eggplant,32,,,,,,,,,,,,,,,,,,,,,,,,,,,,,,,,,,,,,,,,,0,55,55,31,1,,,,,,,,,,,,,,,,,,,,,,,,,,,,,,,,,,,,,,,,,,,,,,,,,,,,,,,
,,,,,5f12749ec1ac141c20bf38ab,6669d216483b4754e2264ff7,6669dd04cc691848d195ec38,22,Female,English,2024-06-12_10h40.23.438,ABmemTask3,2023.2.3,MacIntel,60.24096386,,,,,,,,,,,,,,,,,,,,,,,,,,,,,,,578.9636,579.9551,579.9551,7,580.4559,581.5057,0.0009,581.6218,0.1131,0.118,0.119,0.1157,0.1171,0.1168,0.1162,0.1163,0.117,,,581.6219,582.7885,left,1.1465,,582.7886,583.0864,left,0.2863,,72,0,114,583.0865,584.0882,,,,,,1_AB,L1_T1P_T2A,1,1,0,6,7,5,3,10,Electric toothbrush,Did you see the Electric toothbrush,0.12,0,resources/,pics/football.jpg,pics/sailboat.jpg,pics/cymbal.jpg,pics/hen.jpg,pics/pencil01.jpg,pics/electrictoothbrush01c.jpg,pics/bowlingpin.jpg,pics/wheel01.jpg,pics/birdhouse.jpg,pics/leaf02a.jpg,blankImage,blankImage,blankImage,blankImage,blankImage,blankImage,blankImage,electrictoothbrush01c,34,,,,,,,,,,,,,,,,,,,,,,,,,,,,,,,,,,,,,,,,,0,56,56,33,1,,,,,,,,,,,,,,,,,,,,,,,,,,,,,,,,,,,,,,,,,,,,,,,,,,,,,,,
,,,,,5f12749ec1ac141c20bf38ab,6669d216483b4754e2264ff7,6669dd04cc691848d195ec38,22,Female,English,2024-06-12_10h40.23.438,ABmemTask3,2023.2.3,MacIntel,60.24096386,,,,,,,,,,,,,,,,,,,,,,,,,,,,,,,584.0887,585.0874,585.0875,7,585.5883,586.6389,0.0008,586.7554,0.1165,0.1172,0.1172,0.1155,0.1171,0.1169,0.1165,0.1166,0.1166,,,586.7555,588.1699,right,1.4007,,588.1699,588.4702,left,0.2847,,74,0,116,588.4704,589.4718,,,,,,1_AB,L1_T1P_T2A,1,1,0,6,7,5,3,10,Duct tape,Did you see the Duct tape,0.12,0,resources/,pics/butterfly.jpg,pics/noparkingsign.jpg,pics/pictureframe04.jpg,pics/cork02.jpg,pics/fanblades.jpg,pics/ducttape.jpg,pics/icecube01.jpg,pics/siamesecat.jpg,pics/sink.jpg,pics/sandbarshark.jpg,blankImage,blankImage,blankImage,blankImage,blankImage,blankImage,blankImage,ducttape,36,,,,,,,,,,,,,,,,,,,,,,,,,,,,,,,,,,,,,,,,,0,57,57,35,1,,,,,,,,,,,,,,,,,,,,,,,,,,,,,,,,,,,,,,,,,,,,,,,,,,,,,,,
,,,,,5f12749ec1ac141c20bf38ab,6669d216483b4754e2264ff7,6669dd04cc691848d195ec38,22,Female,English,2024-06-12_10h40.23.438,ABmemTask3,2023.2.3,MacIntel,60.24096386,,,,,,,,,,,,,,,,,,,,,,,,,,,,,,,589.4725,590.4713,590.4714,7,590.9718,592.256,0.0009,592.3722,0.1168,0.1163,0.117,0.1139,0.1185,0.1176,0.1157,0.1171,0.1155,0.1184,0.1165,592.3723,593.9714,left,1.5793,,593.9715,594.5367,right,0.5531,,76,0,118,594.5367,595.5384,,,,,,1_AB,L5_T1A_T2P,5,0,1,4,9,3,3,12,rooster,Did you see the rooster,0.12,0,resources/,pics/table01.jpg,pics/icecube01.jpg,pics/dustpan.jpg,pics/lock03a.jpg,pics/sailboat.jpg,pics/salmon.jpg,pics/banjo.jpg,pics/zebra.jpg,pics/stapler09.jpg,pics/peach01.jpg,pics/chainsaw.jpg,pics/football.jpg,blankImage,blankImage,blankImage,blankImage,blankImage,rooster,55,,,,,,,,,,,,,,,,,,,,,,,,,,,,,,,,,,,,,,,,,0,58,58,54,1,,,,,,,,,,,,,,,,,,,,,,,,,,,,,,,,,,,,,,,,,,,,,,,,,,,,,,,
,,,,,5f12749ec1ac141c20bf38ab,6669d216483b4754e2264ff7,6669dd04cc691848d195ec38,22,Female,English,2024-06-12_10h40.23.438,ABmemTask3,2023.2.3,MacIntel,60.24096386,,,,,,,,,,,,,,,,,,,,,,,,,,,,,,,595.5389,596.5389,596.5389,7,597.0388,598.6725,0.0008,598.7879,0.116,0.1171,0.1139,0.1193,0.1168,0.1158,0.1175,0.1162,0.1171,0.1159,0.1176,598.788,600.17,left,1.3672,,600.17,600.5886,right,0.4053,,78,0,120,600.5886,601.5887,,,,,,1_AB,L5_T1A_T2P,5,0,1,7,12,6,3,15,scissors,Did you see the scissors,0.12,0,resources/,pics/cannon.jpg,pics/mummy.jpg,pics/shovel01.jpg,pics/christmaslights.jpg,pics/snowshoe.jpg,pics/candle01.jpg,pics/bowtie.jpg,pics/giraffe.jpg,pics/carrot01.jpg,pics/spoon01.jpg,pics/seaturtle.jpg,pics/stapler10.jpg,pics/footballhelmet.jpg,pics/onion.jpg,pics/wheel01.jpg,blankImage,blankImage,scissors01,57,0.1145,0.1182,0.1172,,,,,,,,,,,,,,,,,,,,,,,,,,,,,,,,,,,,,,0,59,59,56,1,,,,,,,,,,,,,,,,,,,,,,,,,,,,,,,,,,,,,,,,,,,,,,,,,,,,,,,
,,,,,5f12749ec1ac141c20bf38ab,6669d216483b4754e2264ff7,6669dd04cc691848d195ec38,22,Female,English,2024-06-12_10h40.23.438,ABmemTask3,2023.2.3,MacIntel,60.24096386,,,,,,,,,,,,,,,,,,,,,,,,,,,,,,,601.5892,602.5885,602.5887,7,603.0883,604.8388,0.0009,604.954,0.1159,0.1166,0.1171,0.1162,0.1162,0.1177,0.1163,0.1161,0.1171,0.1173,0.116,604.954,605.8551,right,0.884,,605.8551,606.2214,left,0.3462,,80,0,122,606.2214,607.2207,,,,,,1_AB,L5_T1P_T2A,5,1,0,7,12,6,4,16,boat,Did you see the boat,0.12,0,resources/,pics/butterfly.jpg,pics/onion.jpg,pics/hose.jpg,pics/ball02.jpg,pics/ashtray01.jpg,pics/bowtie.jpg,pics/boat.jpg,pics/seaturtle.jpg,pics/blender.jpg,pics/zebra.jpg,pics/pictureframe04.jpg,pics/shovel01.jpg,pics/spoon01.jpg,pics/peanut01.jpg,pics/nutcracker01.jpg,pics/aquarium.jpg,blankImage,boat,60,0.1182,0.113,0.1187,,,,,,,,,,,,,,,,,,,,,,,,,,,,,,,,,,,,,,0,60,60,59,1,0.1174,,,,,,,,,,,,,,,,,,,,,,,,,,,,,,,,,,,,,,,,,,,,,,,,,,,,,,
,,,,,5f12749ec1ac141c20bf38ab,6669d216483b4754e2264ff7,6669dd04cc691848d195ec38,22,Female,English,2024-06-12_10h40.23.438,ABmemTask3,2023.2.3,MacIntel,60.24096386,,,,,,,,,,,,,,,,,,,,,,,,,,,,,,,607.2212,608.2218,608.2218,7,608.7196,610.2388,0.0008,610.3552,0.1188,0.1147,0.1176,0.1167,0.1168,0.1166,0.1169,0.1142,0.1199,0.1165,0.1157,610.3554,611.4208,right,1.0447,,611.4208,612.055,left,0.621,,80,0,124,612.055,613.0542,,,,,,1_AB,L5_T1P_T2P,5,1,1,4,9,3,5,14,asparagus,Did you see the asparagus,0.12,0,resources/,pics/siamesecat.jpg,pics/starfish01.jpg,pics/aquarium.jpg,pics/asparagus.jpg,pics/salmon.jpg,pics/binoculars01b.jpg,pics/ball02.jpg,pics/calendar.jpg,pics/stapler10.jpg,pics/giraffe.jpg,pics/dromedary.jpg,pics/seaturtle.jpg,pics/sandbarshark.jpg,pics/shipinabottle.jpg,blankImage,blankImage,blankImage,asparagus,44,0.1171,0.117,,,,,,,,,,,,,,,,,,,,,,,,,,,,,,,,,,,,,,,0,61,61,43,1,,,,,,,,,,,,,,,,,,,,,,,,,,,,,,,,,,,,,,,,,,,,,,,,,,,,,,,
,,,,,5f12749ec1ac141c20bf38ab,6669d216483b4754e2264ff7,6669dd04cc691848d195ec38,22,Female,English,2024-06-12_10h40.23.438,ABmemTask3,2023.2.3,MacIntel,60.24096386,,,,,,,,,,,,,,,,,,,,,,,,,,,,,,,,,,,,,,,,,,,,,,,,,,,,,,,,,,,,,,,,,,,,,,,,,,,,,,,,,,,,,,,,,,,,,,,,,,,,,,,,,,,613.0552,616.4552,space,3.3823,,,,,,,,,,,,,,,,,,,,,,,,,,,,,,,,,,,,,,,,,,,,,,,,,,,,,,,,,,,,,,,,,,,,,,,,,,,,,,,,,,,,,,,,,,,,,
,,,,,5f12749ec1ac141c20bf38ab,6669d216483b4754e2264ff7,6669dd04cc691848d195ec38,22,Female,English,2024-06-12_10h40.23.438,ABmemTask3,2023.2.3,MacIntel,60.24096386,,,space,7.0713,,,,,,,,,,,,,,,,,,,,,,,,,,,,,,,,,,,,,,,,,,,,,,,,,,,,,,,,,,,,,,,,,,,,,,,,,,,,,,,,,,,,,,,,,,,,,,,,,,,,,,,,,,,,,,,,,,,,,,,,,,,,,,,,,,,,,,,,,,,,,,,,,,,616.4554,623.5548,,,,,,,,,,,,,,,,,,,,,,,,,,,,,,,,,,,,,,,,,,,,,,,,,,,
,,,,,5f12749ec1ac141c20bf38ab,6669d216483b4754e2264ff7,6669dd04cc691848d195ec38,22,Female,English,2024-06-12_10h40.23.438,ABmemTask3,2023.2.3,MacIntel,60.24096386,,,,,,,,,,,,,,,,,,,,,,,,,,,,,,,,,,,,,,,,,,,,,,,,,,,,,,,,,,,,,,,,,,,,,,,,,,,,,,,,,,,,,,,,,,,,,,,,,,,,,,,,,,,,,,,,,,,,,,,,,,,,,,,,,,,,,,,,,,,,,,,,,,,,,,,,,623.5549,630.6223,space,7.0352,,,,,,,,,,,,,,,,,,,,,,,,,,,,,,,,,,,,,,,,,,,,,,,
,,,,,5f12749ec1ac141c20bf38ab,6669d216483b4754e2264ff7,6669dd04cc691848d195ec38,22,Female,English,2024-06-12_10h40.23.438,ABmemTask3,2023.2.3,MacIntel,60.24096386,,,,,,,,,,,,,,,,,,,,,,,,,,,,,,,630.6317,631.6221,631.6221,7,632.1224,632.9375,0.001,633.0547,0.1143,0.1162,0.1175,0.1151,0.1186,0.1163,0.116,,,,,633.0549,633.8379,right,0.7658,,,,,,,1,80,2,633.8379,634.8367,,,,,,2_AB,L1_T1P_T2A,1,1,0,4,5,3,3,8,almonds,Did you see the almonds,0.12,0,resources/,pics/shovel01.jpg,pics/icecube01.jpg,pics/candleholder01.jpg,pics/almond.jpg,pics/onion.jpg,pics/lightswitch01.jpg,pics/lock03a.jpg,pics/pencilsharpener02a.jpg,blankImage,blankImage,blankImage,blankImage,blankImage,blankImage,blankImage,blankImage,blankImage,almond,38,,,,,,,,,,,,,,,,,,,,,,,,,,,,,,,,,,,,,,,,,,,,,,,,,,,,,,,0,0,0,37,1,,,,,,,,,,,,,,,,,,,,,,,,,,,,,,,,,,,,,,,,,
,,,,,5f12749ec1ac141c20bf38ab,6669d216483b4754e2264ff7,6669dd04cc691848d195ec38,22,Female,English,2024-06-12_10h40.23.438,ABmemTask3,2023.2.3,MacIntel,60.24096386,,,,,,,,,,,,,,,,,,,,,,,,,,,,,,,634.8375,635.8378,635.838,7,636.3355,637.6207,0.001,637.737,0.1168,0.1186,0.116,0.1171,0.1167,0.1158,0.1171,0.115,0.1188,0.1167,0.1158,637.737,638.187,right,0.4323,,,,,,,2,80,4,638.1871,639.1873,,,,,,2_AB,L5_T1P_T2P,5,1,1,4,9,3,3,12,Skis,Did you see the Skis,0.12,0,resources/,pics/mummy.jpg,pics/microscope.jpg,pics/pencilsharpener02a.jpg,pics/crosscountryski.jpg,pics/butterfly.jpg,pics/chainsaw.jpg,pics/sink.jpg,pics/boot02b.jpg,pics/stapler03b.jpg,pics/spoon01.jpg,pics/necklace.jpg,pics/peach01.jpg,blankImage,blankImage,blankImage,blankImage,blankImage,crosscountryski,52,,,,,,,,,,,,,,,,,,,,,,,,,,,,,,,,,,,,,,,,,,,,,,,,,,,,,,,0,1,1,51,1,,,,,,,,,,,,,,,,,,,,,,,,,,,,,,,,,,,,,,,,,
,,,,,5f12749ec1ac141c20bf38ab,6669d216483b4754e2264ff7,6669dd04cc691848d195ec38,22,Female,English,2024-06-12_10h40.23.438,ABmemTask3,2023.2.3,MacIntel,60.24096386,,,,,,,,,,,,,,,,,,,,,,,,,,,,,,,639.1878,640.1874,640.1874,7,640.6878,642.4381,0.001,642.5544,0.1162,0.1158,0.117,0.1162,0.1171,0.1155,0.1182,0.1158,0.1158,0.1186,0.1165,642.5545,643.0533,right,0.4826,,,,,,,3,80,6,643.0534,644.0544,,,,,,2_AB,L5_T1P_T2P,5,1,1,6,11,5,5,16,Escalator,Did you see the Escalator,0.12,0,resources/,pics/carrot01.jpg,pics/microscope.jpg,pics/peanut01.jpg,pics/chainsaw.jpg,pics/icecube01.jpg,pics/escalator.jpg,pics/piggybank.jpg,pics/table01.jpg,pics/butterfly.jpg,pics/siamesecat.jpg,pics/stapler09.jpg,pics/noparkingsign.jpg,pics/peach01.jpg,pics/cannon.jpg,pics/shipinabottle.jpg,pics/football.jpg,blankImage,escalator,47,0.1163,0.1166,0.1171,,,,,,,,,,,,,,,,,,,,,,,,,,,,,,,,,,,,,,,,,,,0.1167,,,,,,,,,0,2,2,46,1,,,,,,,,,,,,,,,,,,,,,,,,,,,,,,,,,,,,,,,,,
,,,,,5f12749ec1ac141c20bf38ab,6669d216483b4754e2264ff7,6669dd04cc691848d195ec38,22,Female,English,2024-06-12_10h40.23.438,ABmemTask3,2023.2.3,MacIntel,60.24096386,,,,,,,,,,,,,,,,,,,,,,,,,,,,,,,644.0549,645.0535,645.0535,7,645.5534,646.72,0.0009,646.8376,0.1163,0.1171,0.1167,0.1171,0.1159,0.1169,0.1163,0.1159,0.117,0.1168,,646.8377,648.1688,left,1.3163,,,,,,,4,80,8,648.1689,649.1708,,,,,,2_AB,L1_T1A_T2P,1,0,1,5,6,4,5,11,bed,Did you see the bed,0.12,0,resources/,pics/ashtray01.jpg,pics/bowtie.jpg,pics/siamesecat.jpg,pics/microscope.jpg,pics/shovel01.jpg,pics/stapler04.jpg,pics/lightswitch01.jpg,pics/carrot01.jpg,pics/boot02b.jpg,pics/pencilsharpener02a.jpg,pics/nutcracker01.jpg,blankImage,blankImage,blankImage,blankImage,blankImage,blankImage,bed,29,,,,,,,,,,,,,,,,,,,,,,,,,,,,,,,,,,,,,,,,,,,,,,,,,,,,,,,0,3,3,28,1,,,,,,,,,,,,,,,,,,,,,,,,,,,,,,,,,,,,,,,,,
,,,,,5f12749ec1ac141c20bf38ab,6669d216483b4754e2264ff7,6669dd04cc691848d195ec38,22,Female,English,2024-06-12_10h40.23.438,ABmemTask3,2023.2.3,MacIntel,60.24096386,,,,,,,,,,,,,,,,,,,,,,,,,,,,,,,649.1714,650.1702,650.1702,7,650.6704,652.3038,0.0009,652.4206,0.1161,0.1169,0.1166,0.1164,0.1172,0.1162,0.1177,0.1154,0.1161,0.1173,0.1166,652.4207,653.2364,left,0.8001,,,,,,,5,80,10,653.2364,654.2363,,,,,,2_AB,L5_T1A_T2P,5,0,1,7,12,6,3,15,radish,Did you see the radish,0.12,0,resources/,pics/necklace.jpg,pics/peach01.jpg,pics/chainsaw.jpg,pics/giraffe.jpg,pics/blender.jpg,pics/nutcracker01.jpg,pics/seagull.jpg,pics/hairdryer02a.jpg,pics/cannon.jpg,pics/binder03b.jpg,pics/christmaslights.jpg,pics/stapler06.jpg,pics/proboscismonkey.jpg,pics/ball02.jpg,pics/wheel01.jpg,blankImage,blankImage,radish01,55,0.1173,0.1156,0.1173,,,,,,,,,,,,,,,,,,,,,,,,,,,,,,,,,,,,,,,,,,,,,,,,,,,,0,4,4,54,1,,,,,,,,,,,,,,,,,,,,,,,,,,,,,,,,,,,,,,,,,
,,,,,5f12749ec1ac141c20bf38ab,6669d216483b4754e2264ff7,6669dd04cc691848d195ec38,22,Female,English,2024-06-12_10h40.23.438,ABmemTask3,2023.2.3,MacIntel,60.24096386,,,,,,,,,,,,,,,,,,,,,,,,,,,,,,,654.2367,655.2373,655.2374,7,655.7373,656.7869,0.001,656.904,0.1155,0.117,0.1171,0.1165,0.1169,0.1166,0.1158,0.1175,0.1159,,,656.9041,657.5192,left,0.6015,,,,,,,6,80,12,657.5192,658.5198,,,,,,2_AB,L1_T1A_T2P,1,0,1,4,5,3,5,10,spice rack,Did you see the spice rack,0.12,0,resources/,pics/hammerheadshark.jpg,pics/pictureframe04.jpg,pics/boot02b.jpg,pics/starfish01.jpg,pics/stapler12.jpg,pics/leaf02a.jpg,pics/necklace.jpg,pics/hose.jpg,pics/salmon.jpg,pics/cymbal.jpg,blankImage,blankImage,blankImage,blankImage,blankImage,blankImage,blankImage,spicerack,27,,,,,,,,,,,,,,,,,,,,,,,,,,,,,,,,,,,,,,,,,,,,,,,,,,,,,,,0,5,5,26,1,,,,,,,,,,,,,,,,,,,,,,,,,,,,,,,,,,,,,,,,,
,,,,,5f12749ec1ac141c20bf38ab,6669d216483b4754e2264ff7,6669dd04cc691848d195ec38,22,Female,English,2024-06-12_10h40.23.438,ABmemTask3,2023.2.3,MacIntel,60.24096386,,,,,,,,,,,,,,,,,,,,,,,,,,,,,,,658.5203,659.5202,659.5202,7,660.0205,661.0708,0.0008,661.1869,0.116,0.1169,0.1165,0.1167,0.1168,0.116,0.1168,0.1174,0.1165,,,661.1869,662.3868,right,1.1856,,,,,,,7,80,14,662.3869,663.3863,,,,,,2_AB,L1_T1P_T2P,1,1,1,5,6,4,4,10,bottle cap,Did you see the bottle cap,0.12,0,resources/,pics/banjo.jpg,pics/football.jpg,pics/sink.jpg,pics/binoculars01b.jpg,pics/bottlecap.jpg,pics/stapler01.jpg,pics/peach01.jpg,pics/piggybank.jpg,pics/sandbarshark.jpg,pics/table01.jpg,blankImage,blankImage,blankImage,blankImage,blankImage,blankImage,blankImage,bottlecap,19,,,,,,,,,,,,,,,,,,,,,,,,,,,,,,,,,,,,,,,,,,,,,,,,,,,,,,,0,6,6,18,1,,,,,,,,,,,,,,,,,,,,,,,,,,,,,,,,,,,,,,,,,
,,,,,5f12749ec1ac141c20bf38ab,6669d216483b4754e2264ff7,6669dd04cc691848d195ec38,22,Female,English,2024-06-12_10h40.23.438,ABmemTask3,2023.2.3,MacIntel,60.24096386,,,,,,,,,,,,,,,,,,,,,,,,,,,,,,,663.3868,664.3872,664.3872,7,664.8849,666.2871,0.0009,666.4033,0.1186,0.1167,0.1162,0.1165,0.1173,0.1161,0.116,0.119,0.1146,0.1175,0.1158,666.4033,667.3536,right,0.9338,,,,,,,8,80,16,667.3537,668.3511,,,,,,2_AB,L1_T1P_T2A,1,1,0,7,8,6,5,13,Lighthouse,Did you see the Lighthouse,0.12,0,resources/,pics/christmaslights.jpg,pics/backpack01a.jpg,pics/aquarium.jpg,pics/bowtie.jpg,pics/table01.jpg,pics/sandbarshark.jpg,pics/lighthouse.jpg,pics/lock03a.jpg,pics/calendar.jpg,pics/match.jpg,pics/spiderweb.jpg,pics/fanblades.jpg,pics/butterfly.jpg,blankImage,blankImage,blankImage,blankImage,lighthouse,33,0.117,,,,,,,,,,,,,,,,,,,,,,,,,,,,,,,,,,,,,,,,,,,,,,,,,,,,,,0,7,7,32,1,,,,,,,,,,,,,,,,,,,,,,,,,,,,,,,,,,,,,,,,,
,,,,,5f12749ec1ac141c20bf38ab,6669d216483b4754e2264ff7,6669dd04cc691848d195ec38,22,Female,English,2024-06-12_10h40.23.438,ABmemTask3,2023.2.3,MacIntel,60.24096386,,,,,,,,,,,,,,,,,,,,,,,,,,,,,,,668.3514,669.3531,669.3532,7,669.8518,671.4855,0.0005,671.6025,0.1187,0.1156,0.1156,0.1168,0.1168,0.1177,0.1159,0.1166,0.1163,0.1171,0.1191,671.6025,672.4033,right,0.7806,,,,,,,9,80,18,672.4033,673.4029,,,,,,2_AB,L5_T1P_T2A,5,1,0,5,10,4,5,15,wheel barrow,Did you see the wheel barrow,0.12,0,resources/,pics/safetypin.jpg,pics/sealion.jpg,pics/binoculars01b.jpg,pics/bowlingpin.jpg,pics/wheelbarrow01.jpg,pics/pictureframe04.jpg,pics/zebra.jpg,pics/mummy.jpg,pics/cork02.jpg,pics/starfish01.jpg,pics/necklace.jpg,pics/bowtie.jpg,pics/cannon.jpg,pics/siamesecat.jpg,pics/dromedary.jpg,blankImage,blankImage,wheelbarrow01,59,0.1147,0.1162,0.1162,,,,,,,,,,,,,,,,,,,,,,,,,,,,,,,,,,,,,,,,,,,,,,,,,,,,0,8,8,58,1,,,,,,,,,,,,,,,,,,,,,,,,,,,,,,,,,,,,,,,,,
,,,,,5f12749ec1ac141c20bf38ab,6669d216483b4754e2264ff7,6669dd04cc691848d195ec38,22,Female,English,2024-06-12_10h40.23.438,ABmemTask3,2023.2.3,MacIntel,60.24096386,,,,,,,,,,,,,,,,,,,,,,,,,,,,,,,673.4031,674.4025,674.4025,7,674.904,675.9521,0.0005,676.0696,0.1148,0.1171,0.1163,0.1166,0.1171,0.1157,0.1168,0.1177,0.1156,,,676.0696,676.802,right,0.7136,,,,,,,10,80,20,676.8021,677.8015,,,,,,2_AB,L1_T1P_T2P,1,1,1,4,5,3,5,10,buffalo,Did you see the buffalo,0.12,0,resources/,pics/pictureframe04.jpg,pics/lock03a.jpg,pics/birdhouse.jpg,pics/bison.jpg,pics/stapler11.jpg,pics/kangaroo.jpg,pics/mummy.jpg,pics/zebra.jpg,pics/binoculars01b.jpg,pics/microscope.jpg,blankImage,blankImage,blankImage,blankImage,blankImage,blankImage,blankImage,bison,12,,,,,,,,,,,,,,,,,,,,,,,,,,,,,,,,,,,,,,,,,,,,,,,,,,,,,,,0,9,9,11,1,,,,,,,,,,,,,,,,,,,,,,,,,,,,,,,,,,,,,,,,,
