consent1.started,consent1.stopped,key_resp_8.keys,key_resp_8.rt,key_resp_8.duration,PROLIFIC_PID,STUDY_ID,SESSION_ID,age,sex,native language,date,expName,psychopyVersion,OS,frameRate,consent2.started,consent2.stopped,key_resp_9.keys,key_resp_9.rt,key_resp_9.duration,consent3.started,consent3.stopped,key_resp_10.keys,key_resp_10.rt,key_resp_10.duration,consent4.started,consent4.stopped,key_resp_11.keys,key_resp_11.rt,key_resp_11.duration,consent5.started,consent5.stopped,key_resp_12.keys,key_resp_12.rt,key_resp_12.duration,bonusInstruct.started,bonusInstruct.stopped,key_resp_14.keys,key_resp_14.rt,key_resp_14.duration,practiceInstruct.started,practiceInstruct.stopped,key_resp.keys,key_resp.rt,key_resp.duration,cueWord_2.started,cueWord_2.stopped,fix.started,frameTarget,fix.stopped,trial.started,img1Add,trial.stopped,img2Add,img3Add,img4Add,img5Add,img6Add,img7Add,img8Add,img9Add,img10Add,img11Add,img12Add,prompt1.started,prompt1.stopped,key_resp_2.keys,key_resp_2.rt,key_resp_2.duration,prompt2.started,prompt2.stopped,key_resp_3.keys,key_resp_3.rt,key_resp_3.duration,runningAcc_AB,runningTotal,runningCount_AB,feedback.started,feedback.stopped,trials.thisRepN,trials.thisTrialN,trials.thisN,trials.thisIndex,trials.ran,TrialType,CondType,Lag,T1_PA,T2_PA,T1Loc,T2Loc,PreDistractor,PostDistractor,TotalImg,cueWord,T1cue,StimLength,isi,PicFolder,Img1,Img2,Img3,Img4,Img5,Img6,Img7,Img8,Img9,Img10,Img11,Img12,Img13,Img14,Img15,Img16,Img17,T1_Identity,trialID,img13Add,img14Add,img15Add,ABfeedback.started,ABfeedback.stopped,key_resp_13.keys,key_resp_13.rt,key_resp_13.duration,MemPracticeInstruction.started,MemPracticeInstruction.stopped,key_resp_5.keys,key_resp_5.rt,key_resp_5.duration,memTrial.started,memTrial.stopped,Mem_runningPoints,key_resp_4.keys,key_resp_4.rt,key_resp_4.duration,memTrialFeedback.started,memTrialFeedback.stopped,trials_2.thisRepN,trials_2.thisTrialN,trials_2.thisN,trials_2.thisIndex,trials_2.ran,ABtrialID,priorLag,image,memFeedback.started,memFeedback.frame,memFeedback.ended,memFeedback.stopped,bonus.started,bonus.stopped,memoryBlockABInstruct.started,memoryBlockABInstruct.stopped,key_resp_6.keys,key_resp_6.rt,key_resp_6.duration,AB_block_1.thisRepN,AB_block_1.thisTrialN,AB_block_1.thisN,AB_block_1.thisIndex,AB_block_1.ran,img16Add,img17Add,AB_break1.started,AB_break1.stopped,PerceiveBlockABInstruct.started,PerceiveBlockABInstruct.stopped,key_resp_7.keys,key_resp_7.rt,key_resp_7.duration,AB_block_2.thisRepN,AB_block_2.thisTrialN,AB_block_2.thisN,AB_block_2.thisIndex,AB_block_2.ran,AB_break2.started,AB_break2.stopped,AB_block_3.thisRepN,AB_block_3.thisTrialN,AB_block_3.thisN,AB_block_3.thisIndex,AB_block_3.ran,AB_break3.started,AB_break3.stopped,AB_block_4.thisRepN,AB_block_4.thisTrialN,AB_block_4.thisN,AB_block_4.thisIndex,AB_block_4.ran,AB_break4.started,AB_break4.stopped,AB_block_5.thisRepN,AB_block_5.thisTrialN,AB_block_5.thisN,AB_block_5.thisIndex,AB_block_5.ran,AB_break5.started,AB_break5.stopped,AB_block_6.thisRepN,AB_block_6.thisTrialN,AB_block_6.thisN,AB_block_6.thisIndex,AB_block_6.ran,AB_break6.started,AB_break6.stopped,MemInstructionSURPRISE.started,MemInstructionSURPRISE.stopped,MemInstruction.started,MemInstruction.stopped,memBreak.started,memBreak.stopped,Mem_block_1.thisRepN,Mem_block_1.thisTrialN,Mem_block_1.thisN,Mem_block_1.thisIndex,Mem_block_1.ran
0.001,43.7698,space,43.7483,,6501c0a2e788b5556c24569d,6682b41eeb79ab8215dff63d,6682dd168b9d56d5f88882e2,27,m,Polish,2024-07-01_17h47.59.154,ABmemTask3,2023.2.3,Win32,60.24096386,,,,,,,,,,,,,,,,,,,,,,,,,,,,,,,,,,,,,,,,,,,,,,,,,,,,,,,,,,,,,,,,,,,,,,,,,,,,,,,,,,,,,,,,,,,,,,,,,,,,,,,,,,,,,,,,,,,,,,,,,,,,,,,,,,,,,,,,,,,,,,,,,,,,,,,,,,,,,,,,,,,,,,,,,,,,,,,,,,,,,,,,,,,,,,,,,,,,,,,,,,,
,,,,,6501c0a2e788b5556c24569d,6682b41eeb79ab8215dff63d,6682dd168b9d56d5f88882e2,27,m,Polish,2024-07-01_17h47.59.154,ABmemTask3,2023.2.3,Win32,60.24096386,43.7704,49.5411,space,5.7112,,,,,,,,,,,,,,,,,,,,,,,,,,,,,,,,,,,,,,,,,,,,,,,,,,,,,,,,,,,,,,,,,,,,,,,,,,,,,,,,,,,,,,,,,,,,,,,,,,,,,,,,,,,,,,,,,,,,,,,,,,,,,,,,,,,,,,,,,,,,,,,,,,,,,,,,,,,,,,,,,,,,,,,,,,,,,,,,,,,,,,,,,,,,,,,,,,,,,,,
,,,,,6501c0a2e788b5556c24569d,6682b41eeb79ab8215dff63d,6682dd168b9d56d5f88882e2,27,m,Polish,2024-07-01_17h47.59.154,ABmemTask3,2023.2.3,Win32,60.24096386,,,,,,49.5416,87.6513,space,38.0809,,,,,,,,,,,,,,,,,,,,,,,,,,,,,,,,,,,,,,,,,,,,,,,,,,,,,,,,,,,,,,,,,,,,,,,,,,,,,,,,,,,,,,,,,,,,,,,,,,,,,,,,,,,,,,,,,,,,,,,,,,,,,,,,,,,,,,,,,,,,,,,,,,,,,,,,,,,,,,,,,,,,,,,,,,,,,,,,,,,,,,,,,,,,,,,,,,
,,,,,6501c0a2e788b5556c24569d,6682b41eeb79ab8215dff63d,6682dd168b9d56d5f88882e2,27,m,Polish,2024-07-01_17h47.59.154,ABmemTask3,2023.2.3,Win32,60.24096386,,,,,,,,,,,87.6517,91.1101,space,3.4225,,,,,,,,,,,,,,,,,,,,,,,,,,,,,,,,,,,,,,,,,,,,,,,,,,,,,,,,,,,,,,,,,,,,,,,,,,,,,,,,,,,,,,,,,,,,,,,,,,,,,,,,,,,,,,,,,,,,,,,,,,,,,,,,,,,,,,,,,,,,,,,,,,,,,,,,,,,,,,,,,,,,,,,,,,,,,,,,,,,,,,,,,,,,,
,,,,,6501c0a2e788b5556c24569d,6682b41eeb79ab8215dff63d,6682dd168b9d56d5f88882e2,27,m,Polish,2024-07-01_17h47.59.154,ABmemTask3,2023.2.3,Win32,60.24096386,,,,,,,,,,,,,,,,91.1106,92.1742,space,1.0305,,,,,,,,,,,,,,,,,,,,,,,,,,,,,,,,,,,,,,,,,,,,,,,,,,,,,,,,,,,,,,,,,,,,,,,,,,,,,,,,,,,,,,,,,,,,,,,,,,,,,,,,,,,,,,,,,,,,,,,,,,,,,,,,,,,,,,,,,,,,,,,,,,,,,,,,,,,,,,,,,,,,,,,,,,,,,,,,,,,,,,,,
,,,,,6501c0a2e788b5556c24569d,6682b41eeb79ab8215dff63d,6682dd168b9d56d5f88882e2,27,m,Polish,2024-07-01_17h47.59.154,ABmemTask3,2023.2.3,Win32,60.24096386,,,,,,,,,,,,,,,,,,,,,92.1748,186.228,space,94.0007,,,,,,,,,,,,,,,,,,,,,,,,,,,,,,,,,,,,,,,,,,,,,,,,,,,,,,,,,,,,,,,,,,,,,,,,,,,,,,,,,,,,,,,,,,,,,,,,,,,,,,,,,,,,,,,,,,,,,,,,,,,,,,,,,,,,,,,,,,,,,,,,,,,,,,,,,,,,,,,,,,,,,,,,,,,,,,,,,,,
,,,,,6501c0a2e788b5556c24569d,6682b41eeb79ab8215dff63d,6682dd168b9d56d5f88882e2,27,m,Polish,2024-07-01_17h47.59.154,ABmemTask3,2023.2.3,Win32,60.24096386,,,,,,,,,,,,,,,,,,,,,,,,,,186.2283,277.1694,space,90.914,,,,,,,,,,,,,,,,,,,,,,,,,,,,,,,,,,,,,,,,,,,,,,,,,,,,,,,,,,,,,,,,,,,,,,,,,,,,,,,,,,,,,,,,,,,,,,,,,,,,,,,,,,,,,,,,,,,,,,,,,,,,,,,,,,,,,,,,,,,,,,,,,,,,,,,,,,,,,,,,,,,,,,,,,,,,,,
,,,,,6501c0a2e788b5556c24569d,6682b41eeb79ab8215dff63d,6682dd168b9d56d5f88882e2,27,m,Polish,2024-07-01_17h47.59.154,ABmemTask3,2023.2.3,Win32,60.24096386,,,,,,,,,,,,,,,,,,,,,,,,,,,,,,,277.2032,278.2,278.2003,15,278.6988,281.4442,0.0043,281.6923,0.2469,0.2493,0.2492,0.2496,0.2493,0.2498,0.2497,0.2491,0.2492,0.2501,0.2494,281.6944,282.71,right,0.9922,,282.7105,283.8889,left,1.1539,,2,0,2,283.8896,284.8868,0,0,0,0,1,prac_AB,L1_T1P_T2A,1,1,0,6,7,5,5,12,cat,Did you see the cat,0.25,0,resources/,pics/shipinabottle.jpg,pics/table01.jpg,pics/dustpan.jpg,pics/golfball.jpg,pics/giraffe.jpg,pics/cat.jpg,pics/peanut01.jpg,pics/pictureframe04.jpg,pics/fanblades.jpg,pics/laptop01a.jpg,pics/ball02.jpg,pics/blender.jpg,blankImage,blankImage,blankImage,blankImage,blankImage,cat,8,,,,,,,,,,,,,,,,,,,,,,,,,,,,,,,,,,,,,,,,,,,,,,,,,,,,,,,,,,,,,,,,,,,,,,,,,,,,,,,,,,,,,,,,,,,,,,,,,,,,
,,,,,6501c0a2e788b5556c24569d,6682b41eeb79ab8215dff63d,6682dd168b9d56d5f88882e2,27,m,Polish,2024-07-01_17h47.59.154,ABmemTask3,2023.2.3,Win32,60.24096386,,,,,,,,,,,,,,,,,,,,,,,,,,,,,,,284.8883,285.8845,285.8846,14,286.3833,288.4807,0.0037,288.7122,0.2307,0.2329,0.2323,0.2331,0.2326,0.2335,0.2325,0.2324,0.2337,,,288.7124,289.8272,left,1.096,,289.8273,290.8256,right,0.9879,,2,0,4,290.8258,291.823,0,1,1,1,1,prac_AB,L1_T1P_T2P,1,1,1,5,6,4,4,10,tree,Did you see the tree,0.24,0,resources/,pics/carrot01.jpg,pics/hammerheadshark.jpg,pics/kangaroo.jpg,pics/proboscismonkey.jpg,pics/tree.jpg,pics/stapler07.jpg,pics/siamesecat.jpg,pics/ball02.jpg,pics/pictureframe04.jpg,pics/mummy.jpg,blankImage,blankImage,blankImage,blankImage,blankImage,blankImage,blankImage,tree,1,,,,,,,,,,,,,,,,,,,,,,,,,,,,,,,,,,,,,,,,,,,,,,,,,,,,,,,,,,,,,,,,,,,,,,,,,,,,,,,,,,,,,,,,,,,,,,,,,,,,
,,,,,6501c0a2e788b5556c24569d,6682b41eeb79ab8215dff63d,6682dd168b9d56d5f88882e2,27,m,Polish,2024-07-01_17h47.59.154,ABmemTask3,2023.2.3,Win32,60.24096386,,,,,,,,,,,,,,,,,,,,,,,,,,,,,,,291.836,292.8379,292.8379,14,293.3367,295.8994,0.0018,296.1316,0.233,0.2328,0.2325,0.2331,0.2322,0.2337,0.2322,0.233,0.2334,0.2321,0.2336,296.1317,297.7461,left,1.5921,,297.7463,298.7099,right,0.954,,4,0,6,298.7101,299.708,0,2,2,2,1,prac_AB,L1_T1A_T2P,1,0,1,7,8,6,4,12,grapes,Did you see the grapes,0.23,0,resources/,pics/sailboat.jpg,pics/butterfly.jpg,pics/giraffe.jpg,pics/spoon01.jpg,pics/hose.jpg,pics/nutcracker01.jpg,pics/table01.jpg,pics/stapler13.jpg,pics/pencil01.jpg,pics/football.jpg,pics/triangle.jpg,pics/hairdryer02a.jpg,blankImage,blankImage,blankImage,blankImage,blankImage,grape01,6,,,,,,,,,,,,,,,,,,,,,,,,,,,,,,,,,,,,,,,,,,,,,,,,,,,,,,,,,,,,,,,,,,,,,,,,,,,,,,,,,,,,,,,,,,,,,,,,,,,,
,,,,,6501c0a2e788b5556c24569d,6682b41eeb79ab8215dff63d,6682dd168b9d56d5f88882e2,27,m,Polish,2024-07-01_17h47.59.154,ABmemTask3,2023.2.3,Win32,60.24096386,,,,,,,,,,,,,,,,,,,,,,,,,,,,,,,299.7194,300.7227,300.7228,13,301.2217,304.2496,0.0029,304.4653,0.2147,0.2168,0.2154,0.2162,0.2165,0.2167,0.2159,0.2163,0.2154,0.2176,0.2157,304.4655,305.9628,right,1.4782,,305.9629,306.3954,right,0.4162,,6,0,8,306.3956,307.3935,0,3,3,3,1,prac_AB,L5_T1P_T2P,5,1,1,7,12,6,3,15,Human skull,Did you see the Human skull,0.22,0,resources/,pics/peach01.jpg,pics/proboscismonkey.jpg,pics/hose.jpg,pics/laptop01a.jpg,pics/hammerheadshark.jpg,pics/nutcracker01.jpg,pics/humanskull.jpg,pics/table01.jpg,pics/icecube01.jpg,pics/boot02b.jpg,pics/calendar.jpg,pics/stapler03a.jpg,pics/ashtray01.jpg,pics/giraffe.jpg,pics/dromedary.jpg,blankImage,blankImage,humanskull,12,0.2158,0.2167,0.2154,,,,,,,,,,,,,,,,,,,,,,,,,,,,,,,,,,,,,,,,,,,,,,,,,,,,,,,,,,,,,,,,,,,,,,,,,,,,,,,,,,,,,,,,,,,,,,,,,
,,,,,6501c0a2e788b5556c24569d,6682b41eeb79ab8215dff63d,6682dd168b9d56d5f88882e2,27,m,Polish,2024-07-01_17h47.59.154,ABmemTask3,2023.2.3,Win32,60.24096386,,,,,,,,,,,,,,,,,,,,,,,,,,,,,,,307.406,308.4078,308.408,13,308.9069,311.0699,0.0032,311.2856,0.2147,0.2155,0.2168,0.218,0.2146,0.2165,0.2157,0.2167,0.2163,0.2154,,311.2858,312.5832,left,1.2796,,312.5833,313.0491,right,0.4522,,8,0,10,313.0492,314.0469,0,4,4,4,1,prac_AB,L1_T1A_T2P,1,0,1,7,8,6,3,11,dog,Did you see the dog,0.21,0,resources/,pics/ball02.jpg,pics/binder03b.jpg,pics/dromedary.jpg,pics/shipinabottle.jpg,pics/proboscismonkey.jpg,pics/laptop01a.jpg,pics/chainsaw.jpg,pics/stapler13.jpg,pics/nutcracker01.jpg,pics/carrot01.jpg,pics/calendar.jpg,blankImage,blankImage,blankImage,blankImage,blankImage,blankImage,saintbernard,7,,,,,,,,,,,,,,,,,,,,,,,,,,,,,,,,,,,,,,,,,,,,,,,,,,,,,,,,,,,,,,,,,,,,,,,,,,,,,,,,,,,,,,,,,,,,,,,,,,,,
,,,,,6501c0a2e788b5556c24569d,6682b41eeb79ab8215dff63d,6682dd168b9d56d5f88882e2,27,m,Polish,2024-07-01_17h47.59.154,ABmemTask3,2023.2.3,Win32,60.24096386,,,,,,,,,,,,,,,,,,,,,,,,,,,,,,,314.0579,315.0617,315.0619,12,315.5607,318.3557,0.0026,318.5552,0.1986,0.1996,0.1993,0.1999,0.1991,0.2004,0.1992,0.1994,0.2001,0.199,0.2004,318.5554,319.204,right,0.633,,319.204,319.5698,right,0.3503,,10,0,12,319.5699,320.5684,0,5,5,5,1,prac_AB,L5_T1P_T2P,5,1,1,5,10,4,5,15,grater,Did you see the grater,0.2,0,resources/,pics/pencil01.jpg,pics/laptop01a.jpg,pics/hammerheadshark.jpg,pics/cork02.jpg,pics/grater01a.jpg,pics/shipinabottle.jpg,pics/binder03b.jpg,pics/dromedary.jpg,pics/pictureframe04.jpg,pics/stapler04b.jpg,pics/fanblades.jpg,pics/aquarium.jpg,pics/hairdryer02a.jpg,pics/lightswitch01.jpg,pics/piggybank.jpg,blankImage,blankImage,grater01a,11,0.1997,0.1991,0.1994,,,,,,,,,,,,,,,,,,,,,,,,,,,,,,,,,,,,,,,,,,,,,,,,,,,,,,,,,,,,,,,,,,,,,,,,,,,,,,,,,,,,,,,,,,,,,,,,,
,,,,,6501c0a2e788b5556c24569d,6682b41eeb79ab8215dff63d,6682dd168b9d56d5f88882e2,27,m,Polish,2024-07-01_17h47.59.154,ABmemTask3,2023.2.3,Win32,60.24096386,,,,,,,,,,,,,,,,,,,,,,,,,,,,,,,320.5696,321.5658,321.5659,11,322.0648,323.5293,0.0025,323.712,0.1817,0.1832,0.1834,0.1826,0.1826,0.1827,0.1836,0.1831,,,,323.7123,324.9263,right,1.1922,,324.9265,325.2423,left,0.2983,,12,0,14,325.2424,326.2403,0,6,6,6,1,prac_AB,L1_T1P_T2A,1,1,0,4,5,3,4,9,chalk,Did you see the chalk,0.19,0,resources/,pics/necklace.jpg,pics/starfish01.jpg,pics/safetypin.jpg,pics/chalk.jpg,pics/candleholder01.jpg,pics/bowtie.jpg,pics/match.jpg,pics/candle01.jpg,pics/pencilsharpener02a.jpg,blankImage,blankImage,blankImage,blankImage,blankImage,blankImage,blankImage,blankImage,chalk,9,,,,,,,,,,,,,,,,,,,,,,,,,,,,,,,,,,,,,,,,,,,,,,,,,,,,,,,,,,,,,,,,,,,,,,,,,,,,,,,,,,,,,,,,,,,,,,,,,,,,
,,,,,6501c0a2e788b5556c24569d,6682b41eeb79ab8215dff63d,6682dd168b9d56d5f88882e2,27,m,Polish,2024-07-01_17h47.59.154,ABmemTask3,2023.2.3,Win32,60.24096386,,,,,,,,,,,,,,,,,,,,,,,,,,,,,,,326.2411,327.2385,327.2385,11,327.7372,329.3849,0.0025,329.5671,0.1816,0.1838,0.1821,0.1836,0.1829,0.1823,0.1837,0.1826,0.1833,,,329.5673,330.5153,left,0.9342,,330.5155,330.767,right,0.2427,,12,0,16,330.767,331.7631,0,7,7,7,1,prac_AB,L1_T1P_T2P,1,1,1,5,6,4,4,10,pants,Did you see the pants,0.18,0,resources/,pics/kangaroo.jpg,pics/safetypin.jpg,pics/salmon.jpg,pics/sandbarshark.jpg,pics/pants.jpg,pics/stapler03a.jpg,pics/sink.jpg,pics/calendar.jpg,pics/butterfly.jpg,pics/fanblades.jpg,blankImage,blankImage,blankImage,blankImage,blankImage,blankImage,blankImage,pants,2,,,,,,,,,,,,,,,,,,,,,,,,,,,,,,,,,,,,,,,,,,,,,,,,,,,,,,,,,,,,,,,,,,,,,,,,,,,,,,,,,,,,,,,,,,,,,,,,,,,,
,,,,,6501c0a2e788b5556c24569d,6682b41eeb79ab8215dff63d,6682dd168b9d56d5f88882e2,27,m,Polish,2024-07-01_17h47.59.154,ABmemTask3,2023.2.3,Win32,60.24096386,,,,,,,,,,,,,,,,,,,,,,,,,,,,,,,331.7645,332.7617,332.7618,10,333.26,335.5891,0.0024,335.7553,0.165,0.1667,0.1676,0.1647,0.1664,0.1662,0.1662,0.1665,0.1664,0.1665,0.1662,335.7555,336.9531,left,1.1782,,336.9531,337.2028,right,0.2321,,14,0,18,337.2029,338.2006,0,8,8,8,1,prac_AB,L5_T1A_T2P,5,0,1,7,12,6,3,15,shirt,Did you see the shirt,0.17,0,resources/,pics/banjo.jpg,pics/chainsaw.jpg,pics/sailboat.jpg,pics/shipinabottle.jpg,pics/lightswitch01.jpg,pics/starfish01.jpg,pics/hen.jpg,pics/ball02.jpg,pics/bowlingpin.jpg,pics/hammerheadshark.jpg,pics/footballhelmet.jpg,pics/stapler10.jpg,pics/laptop01a.jpg,pics/cannon.jpg,pics/golfball.jpg,blankImage,blankImage,shirt02,13,0.1661,0.1662,0.1663,,,,,,,,,,,,,,,,,,,,,,,,,,,,,,,,,,,,,,,,,,,,,,,,,,,,,,,,,,,,,,,,,,,,,,,,,,,,,,,,,,,,,,,,,,,,,,,,,
,,,,,6501c0a2e788b5556c24569d,6682b41eeb79ab8215dff63d,6682dd168b9d56d5f88882e2,27,m,Polish,2024-07-01_17h47.59.154,ABmemTask3,2023.2.3,Win32,60.24096386,,,,,,,,,,,,,,,,,,,,,,,,,,,,,,,338.2015,339.1987,339.1988,10,339.6994,341.3619,0.0023,341.5276,0.1648,0.1706,0.162,0.1658,0.1661,0.1666,0.166,0.1662,0.1671,0.1658,,341.5279,342.5427,right,0.9933,,342.5428,342.8762,right,0.3178,,16,0,20,342.8764,343.8733,0,9,9,9,1,prac_AB,L1_T1P_T2P,1,1,1,7,8,6,3,11,tongs,Did you see the tongs,0.16,0,resources/,pics/sewingmachine01a.jpg,pics/shovel01.jpg,pics/football.jpg,pics/hen.jpg,pics/banjo.jpg,pics/zebra.jpg,pics/tongs01b.jpg,pics/stapler11.jpg,pics/shipinabottle.jpg,pics/match.jpg,pics/candle01.jpg,blankImage,blankImage,blankImage,blankImage,blankImage,blankImage,tongs01b,5,,,,,,,,,,,,,,,,,,,,,,,,,,,,,,,,,,,,,,,,,,,,,,,,,,,,,,,,,,,,,,,,,,,,,,,,,,,,,,,,,,,,,,,,,,,,,,,,,,,,
,,,,,6501c0a2e788b5556c24569d,6682b41eeb79ab8215dff63d,6682dd168b9d56d5f88882e2,27,m,Polish,2024-07-01_17h47.59.154,ABmemTask3,2023.2.3,Win32,60.24096386,,,,,,,,,,,,,,,,,,,,,,,,,,,,,,,343.8744,344.8713,344.8713,9,345.3705,347.0178,0.0023,347.1667,0.1485,0.1493,0.1503,0.1497,0.1496,0.15,0.1489,0.1506,0.1495,0.1498,0.1494,347.1668,347.9822,left,0.797,,347.9823,348.1985,right,0.2058,,14,0,22,348.1986,349.1966,0,10,10,10,1,prac_AB,L1_T1A_T2A,1,0,0,7,8,6,4,12,camera,Did you see the camera,0.15,0,resources/,pics/lightswitch01.jpg,pics/table01.jpg,pics/aquarium.jpg,pics/boot02b.jpg,pics/butterfly.jpg,pics/chainsaw.jpg,pics/binoculars01b.jpg,pics/giraffe.jpg,pics/triangle.jpg,pics/microscope.jpg,pics/mummy.jpg,pics/icecube01.jpg,blankImage,blankImage,blankImage,blankImage,blankImage,camera01a,10,,,,,,,,,,,,,,,,,,,,,,,,,,,,,,,,,,,,,,,,,,,,,,,,,,,,,,,,,,,,,,,,,,,,,,,,,,,,,,,,,,,,,,,,,,,,,,,,,,,,
,,,,,6501c0a2e788b5556c24569d,6682b41eeb79ab8215dff63d,6682dd168b9d56d5f88882e2,27,m,Polish,2024-07-01_17h47.59.154,ABmemTask3,2023.2.3,Win32,60.24096386,,,,,,,,,,,,,,,,,,,,,,,,,,,,,,,349.1976,350.1955,350.1956,8,350.6945,351.8922,0.0018,352.0244,0.1319,0.133,0.1323,0.1339,0.133,0.1329,0.1333,0.1377,0.1283,,,352.0245,353.9544,left,1.9099,,353.9546,354.3532,right,0.3802,,14,0,24,354.3532,355.3516,0,11,11,11,1,prac_AB,L1_T1P_T2P,1,1,1,6,7,5,3,10,shorts,Did you see the shorts,0.14,0,resources/,pics/snowshoe.jpg,pics/chainsaw.jpg,pics/sailboat.jpg,pics/ball02.jpg,pics/candleholder01.jpg,pics/shorts01.jpg,pics/stapler07.jpg,pics/peach01.jpg,pics/proboscismonkey.jpg,pics/hen.jpg,blankImage,blankImage,blankImage,blankImage,blankImage,blankImage,blankImage,shorts01,4,,,,,,,,,,,,,,,,,,,,,,,,,,,,,,,,,,,,,,,,,,,,,,,,,,,,,,,,,,,,,,,,,,,,,,,,,,,,,,,,,,,,,,,,,,,,,,,,,,,,
,,,,,6501c0a2e788b5556c24569d,6682b41eeb79ab8215dff63d,6682dd168b9d56d5f88882e2,27,m,Polish,2024-07-01_17h47.59.154,ABmemTask3,2023.2.3,Win32,60.24096386,,,,,,,,,,,,,,,,,,,,,,,,,,,,,,,355.3622,356.3665,356.3666,8,356.8649,358.463,0.0022,358.5951,0.1317,0.1339,0.1327,0.1332,0.1335,0.1322,0.1339,0.1326,0.1334,0.1327,0.1325,358.5951,359.5931,right,0.9819,,359.5931,359.91,left,0.3054,,16,0,26,359.9101,360.907,0,12,12,12,1,prac_AB,L5_T1P_T2A,5,1,0,5,10,4,3,13,fish,Did you see the fish,0.13,0,resources/,pics/football.jpg,pics/safetypin.jpg,pics/shovel01.jpg,pics/sink.jpg,pics/holdfast.jpg,pics/nutcracker01.jpg,pics/starfish01.jpg,pics/onion.jpg,pics/footballhelmet.jpg,pics/boot02b.jpg,pics/sewingmachine01a.jpg,pics/kangaroo.jpg,pics/banjo.jpg,blankImage,blankImage,blankImage,blankImage,holdfast,14,0.1344,,,,,,,,,,,,,,,,,,,,,,,,,,,,,,,,,,,,,,,,,,,,,,,,,,,,,,,,,,,,,,,,,,,,,,,,,,,,,,,,,,,,,,,,,,,,,,,,,,,
,,,,,6501c0a2e788b5556c24569d,6682b41eeb79ab8215dff63d,6682dd168b9d56d5f88882e2,27,m,Polish,2024-07-01_17h47.59.154,ABmemTask3,2023.2.3,Win32,60.24096386,,,,,,,,,,,,,,,,,,,,,,,,,,,,,,,360.9083,361.9052,361.9054,7,362.4046,363.4533,0.0017,363.569,0.1158,0.1166,0.1279,0.105,0.1164,0.1164,0.1171,0.1151,0.1172,,,363.5691,364.5171,right,0.9293,,364.5173,364.7341,right,0.2018,,18,0,28,364.7343,365.7316,0,13,13,13,1,prac_AB,L1_T1P_T2P,1,1,1,5,6,4,4,10,fish,Did you see the fish,0.12,0,resources/,pics/butterfly.jpg,pics/banjo.jpg,pics/leaf02a.jpg,pics/dustpan.jpg,pics/sturgeon.jpg,pics/stapler02.jpg,pics/necklace.jpg,pics/shovel01.jpg,pics/starfish01.jpg,pics/chainsaw.jpg,blankImage,blankImage,blankImage,blankImage,blankImage,blankImage,blankImage,sturgeon,3,,,,,,,,,,,,,,,,,,,,,,,,,,,,,,,,,,,,,,,,,,,,,,,,,,,,,,,,,,,,,,,,,,,,,,,,,,,,,,,,,,,,,,,,,,,,,,,,,,,,
,,,,,6501c0a2e788b5556c24569d,6682b41eeb79ab8215dff63d,6682dd168b9d56d5f88882e2,27,m,Polish,2024-07-01_17h47.59.154,ABmemTask3,2023.2.3,Win32,60.24096386,,,,,,,,,,,,,,,,,,,,,,,,,,,,,,,,,,,,,,,,,,,,,,,,,,,,,,,,,,,,,,,,,,,,,,,,,,,,,,,,,,,,,,,,,,,,,,,,,,,,,,,,,,,365.733,625.6655,space,259.9096,,,,,,,,,,,,,,,,,,,,,,,,,,,,,,,,,,,,,,,,,,,,,,,,,,,,,,,,,,,,,,,,,,,,,,,,,,,,,,,,,,,,,,,,,,,,,
,,,,,6501c0a2e788b5556c24569d,6682b41eeb79ab8215dff63d,6682dd168b9d56d5f88882e2,27,m,Polish,2024-07-01_17h47.59.154,ABmemTask3,2023.2.3,Win32,60.24096386,,,,,,,,,,,,,,,,,,,,,,,,,,,,,,,625.6706,626.6621,626.6624,15,627.161,629.9063,0.0019,630.1553,0.2486,0.2496,0.2494,0.2495,0.2499,0.2492,0.2495,0.2494,0.2502,0.249,0.2492,630.1553,631.9354,right,1.7591,,631.9355,632.9835,left,1.0368,,2,0,2,632.9837,633.9814,0,0,0,0,1,prac_AB,L1_T1P_T2A,1,1,0,6,7,5,5,12,cat,Did you see the cat,0.25,0,resources/,pics/shipinabottle.jpg,pics/table01.jpg,pics/dustpan.jpg,pics/golfball.jpg,pics/giraffe.jpg,pics/cat.jpg,pics/peanut01.jpg,pics/pictureframe04.jpg,pics/fanblades.jpg,pics/laptop01a.jpg,pics/ball02.jpg,pics/blender.jpg,blankImage,blankImage,blankImage,blankImage,blankImage,cat,8,,,,,,,,,,,,,,,,,,,,,,,,,,,,,,,,,,,,,,,,,,,,,,,,,,,,,,,,,,,,,,,,,,,,,,,,,,,,,,,,,,,,,,,,,,,,,,,,,,,,
,,,,,6501c0a2e788b5556c24569d,6682b41eeb79ab8215dff63d,6682dd168b9d56d5f88882e2,27,m,Polish,2024-07-01_17h47.59.154,ABmemTask3,2023.2.3,Win32,60.24096386,,,,,,,,,,,,,,,,,,,,,,,,,,,,,,,633.9906,634.9793,634.9794,14,635.4786,637.5749,0.0014,637.8073,0.2323,0.2328,0.2329,0.2328,0.2329,0.2329,0.2328,0.2328,0.233,,,637.8074,639.0389,right,1.2192,,639.039,639.6206,right,0.5635,,4,0,4,639.6208,640.6186,0,1,1,1,1,prac_AB,L1_T1P_T2P,1,1,1,5,6,4,4,10,tree,Did you see the tree,0.24,0,resources/,pics/carrot01.jpg,pics/hammerheadshark.jpg,pics/kangaroo.jpg,pics/proboscismonkey.jpg,pics/tree.jpg,pics/stapler07.jpg,pics/siamesecat.jpg,pics/ball02.jpg,pics/pictureframe04.jpg,pics/mummy.jpg,blankImage,blankImage,blankImage,blankImage,blankImage,blankImage,blankImage,tree,1,,,,,,,,,,,,,,,,,,,,,,,,,,,,,,,,,,,,,,,,,,,,,,,,,,,,,,,,,,,,,,,,,,,,,,,,,,,,,,,,,,,,,,,,,,,,,,,,,,,,
,,,,,6501c0a2e788b5556c24569d,6682b41eeb79ab8215dff63d,6682dd168b9d56d5f88882e2,27,m,Polish,2024-07-01_17h47.59.154,ABmemTask3,2023.2.3,Win32,60.24096386,,,,,,,,,,,,,,,,,,,,,,,,,,,,,,,640.6193,641.6166,641.6167,14,642.1157,644.678,0.0015,644.9103,0.2324,0.233,0.2325,0.233,0.2327,0.2331,0.2331,0.2324,0.233,0.2329,0.233,644.9105,645.7088,left,0.7797,,645.7089,645.9253,right,0.2042,,6,0,6,645.9254,646.9235,0,2,2,2,1,prac_AB,L1_T1A_T2P,1,0,1,7,8,6,4,12,grapes,Did you see the grapes,0.23,0,resources/,pics/sailboat.jpg,pics/butterfly.jpg,pics/giraffe.jpg,pics/spoon01.jpg,pics/hose.jpg,pics/nutcracker01.jpg,pics/table01.jpg,pics/stapler13.jpg,pics/pencil01.jpg,pics/football.jpg,pics/triangle.jpg,pics/hairdryer02a.jpg,blankImage,blankImage,blankImage,blankImage,blankImage,grape01,6,,,,,,,,,,,,,,,,,,,,,,,,,,,,,,,,,,,,,,,,,,,,,,,,,,,,,,,,,,,,,,,,,,,,,,,,,,,,,,,,,,,,,,,,,,,,,,,,,,,,
,,,,,6501c0a2e788b5556c24569d,6682b41eeb79ab8215dff63d,6682dd168b9d56d5f88882e2,27,m,Polish,2024-07-01_17h47.59.154,ABmemTask3,2023.2.3,Win32,60.24096386,,,,,,,,,,,,,,,,,,,,,,,,,,,,,,,646.9241,647.9212,647.9212,13,648.4203,651.4481,0.0018,651.664,0.2154,0.2164,0.2165,0.2158,0.2163,0.2164,0.2161,0.2163,0.2162,0.2162,0.2162,651.6641,652.2296,right,0.5536,,652.2297,652.4625,right,0.2194,,8,0,8,652.4627,653.4606,0,3,3,3,1,prac_AB,L5_T1P_T2P,5,1,1,7,12,6,3,15,Human skull,Did you see the Human skull,0.22,0,resources/,pics/peach01.jpg,pics/proboscismonkey.jpg,pics/hose.jpg,pics/laptop01a.jpg,pics/hammerheadshark.jpg,pics/nutcracker01.jpg,pics/humanskull.jpg,pics/table01.jpg,pics/icecube01.jpg,pics/boot02b.jpg,pics/calendar.jpg,pics/stapler03a.jpg,pics/ashtray01.jpg,pics/giraffe.jpg,pics/dromedary.jpg,blankImage,blankImage,humanskull,12,0.2162,0.2163,0.2162,,,,,,,,,,,,,,,,,,,,,,,,,,,,,,,,,,,,,,,,,,,,,,,,,,,,,,,,,,,,,,,,,,,,,,,,,,,,,,,,,,,,,,,,,,,,,,,,,
,,,,,6501c0a2e788b5556c24569d,6682b41eeb79ab8215dff63d,6682dd168b9d56d5f88882e2,27,m,Polish,2024-07-01_17h47.59.154,ABmemTask3,2023.2.3,Win32,60.24096386,,,,,,,,,,,,,,,,,,,,,,,,,,,,,,,653.4613,654.4586,654.4587,13,654.9577,657.1205,0.0015,657.3364,0.2156,0.2163,0.2163,0.2162,0.2177,0.2148,0.2162,0.2161,0.2161,0.2163,,657.3365,658.0683,left,0.7182,,658.0685,658.2348,right,0.148,,10,0,10,658.2349,659.2329,0,4,4,4,1,prac_AB,L1_T1A_T2P,1,0,1,7,8,6,3,11,dog,Did you see the dog,0.21,0,resources/,pics/ball02.jpg,pics/binder03b.jpg,pics/dromedary.jpg,pics/shipinabottle.jpg,pics/proboscismonkey.jpg,pics/laptop01a.jpg,pics/chainsaw.jpg,pics/stapler13.jpg,pics/nutcracker01.jpg,pics/carrot01.jpg,pics/calendar.jpg,blankImage,blankImage,blankImage,blankImage,blankImage,blankImage,saintbernard,7,,,,,,,,,,,,,,,,,,,,,,,,,,,,,,,,,,,,,,,,,,,,,,,,,,,,,,,,,,,,,,,,,,,,,,,,,,,,,,,,,,,,,,,,,,,,,,,,,,,,
,,,,,6501c0a2e788b5556c24569d,6682b41eeb79ab8215dff63d,6682dd168b9d56d5f88882e2,27,m,Polish,2024-07-01_17h47.59.154,ABmemTask3,2023.2.3,Win32,60.24096386,,,,,,,,,,,,,,,,,,,,,,,,,,,,,,,659.234,660.2308,660.231,12,660.7299,663.525,0.0018,663.7241,0.1988,0.1999,0.1993,0.1993,0.1997,0.1995,0.2001,0.199,0.1997,0.1996,0.1997,663.7243,664.14,right,0.4029,,664.1401,664.3564,right,0.1977,,12,0,12,664.3566,665.3544,0,5,5,5,1,prac_AB,L5_T1P_T2P,5,1,1,5,10,4,5,15,grater,Did you see the grater,0.2,0,resources/,pics/pencil01.jpg,pics/laptop01a.jpg,pics/hammerheadshark.jpg,pics/cork02.jpg,pics/grater01a.jpg,pics/shipinabottle.jpg,pics/binder03b.jpg,pics/dromedary.jpg,pics/pictureframe04.jpg,pics/stapler04b.jpg,pics/fanblades.jpg,pics/aquarium.jpg,pics/hairdryer02a.jpg,pics/lightswitch01.jpg,pics/piggybank.jpg,blankImage,blankImage,grater01a,11,0.1993,0.1995,0.1996,,,,,,,,,,,,,,,,,,,,,,,,,,,,,,,,,,,,,,,,,,,,,,,,,,,,,,,,,,,,,,,,,,,,,,,,,,,,,,,,,,,,,,,,,,,,,,,,,
,,,,,6501c0a2e788b5556c24569d,6682b41eeb79ab8215dff63d,6682dd168b9d56d5f88882e2,27,m,Polish,2024-07-01_17h47.59.154,ABmemTask3,2023.2.3,Win32,60.24096386,,,,,,,,,,,,,,,,,,,,,,,,,,,,,,,665.3552,666.3524,666.3524,11,666.8516,668.3158,0.0013,668.4984,0.1825,0.1834,0.1823,0.183,0.1833,0.1828,0.1828,0.183,,,,668.4984,669.3467,right,0.8268,,669.3468,669.5297,left,0.1712,,14,0,14,669.5298,670.5277,0,6,6,6,1,prac_AB,L1_T1P_T2A,1,1,0,4,5,3,4,9,chalk,Did you see the chalk,0.19,0,resources/,pics/necklace.jpg,pics/starfish01.jpg,pics/safetypin.jpg,pics/chalk.jpg,pics/candleholder01.jpg,pics/bowtie.jpg,pics/match.jpg,pics/candle01.jpg,pics/pencilsharpener02a.jpg,blankImage,blankImage,blankImage,blankImage,blankImage,blankImage,blankImage,blankImage,chalk,9,,,,,,,,,,,,,,,,,,,,,,,,,,,,,,,,,,,,,,,,,,,,,,,,,,,,,,,,,,,,,,,,,,,,,,,,,,,,,,,,,,,,,,,,,,,,,,,,,,,,
,,,,,6501c0a2e788b5556c24569d,6682b41eeb79ab8215dff63d,6682dd168b9d56d5f88882e2,27,m,Polish,2024-07-01_17h47.59.154,ABmemTask3,2023.2.3,Win32,60.24096386,,,,,,,,,,,,,,,,,,,,,,,,,,,,,,,670.5285,671.5258,671.5258,11,672.0247,673.6721,0.0017,673.8545,0.1825,0.1829,0.1832,0.1828,0.1828,0.1831,0.1829,0.1832,0.1828,,,673.8547,674.6699,right,0.8039,,674.67,674.9361,right,0.252,,16,0,16,674.9362,675.9339,0,7,7,7,1,prac_AB,L1_T1P_T2P,1,1,1,5,6,4,4,10,pants,Did you see the pants,0.18,0,resources/,pics/kangaroo.jpg,pics/safetypin.jpg,pics/salmon.jpg,pics/sandbarshark.jpg,pics/pants.jpg,pics/stapler03a.jpg,pics/sink.jpg,pics/calendar.jpg,pics/butterfly.jpg,pics/fanblades.jpg,blankImage,blankImage,blankImage,blankImage,blankImage,blankImage,blankImage,pants,2,,,,,,,,,,,,,,,,,,,,,,,,,,,,,,,,,,,,,,,,,,,,,,,,,,,,,,,,,,,,,,,,,,,,,,,,,,,,,,,,,,,,,,,,,,,,,,,,,,,,
,,,,,6501c0a2e788b5556c24569d,6682b41eeb79ab8215dff63d,6682dd168b9d56d5f88882e2,27,m,Polish,2024-07-01_17h47.59.154,ABmemTask3,2023.2.3,Win32,60.24096386,,,,,,,,,,,,,,,,,,,,,,,,,,,,,,,675.9345,676.932,676.9322,10,677.4311,679.7604,0.0014,679.9262,0.1658,0.1673,0.1657,0.1661,0.1663,0.1662,0.1666,0.1667,0.1658,0.1665,0.1662,679.9263,681.2573,left,1.3177,,681.2573,681.4068,right,0.1371,,18,0,18,681.4069,682.4048,0,8,8,8,1,prac_AB,L5_T1A_T2P,5,0,1,7,12,6,3,15,shirt,Did you see the shirt,0.17,0,resources/,pics/banjo.jpg,pics/chainsaw.jpg,pics/sailboat.jpg,pics/shipinabottle.jpg,pics/lightswitch01.jpg,pics/starfish01.jpg,pics/hen.jpg,pics/ball02.jpg,pics/bowlingpin.jpg,pics/hammerheadshark.jpg,pics/footballhelmet.jpg,pics/stapler10.jpg,pics/laptop01a.jpg,pics/cannon.jpg,pics/golfball.jpg,blankImage,blankImage,shirt02,13,0.1667,0.1664,0.1659,,,,,,,,,,,,,,,,,,,,,,,,,,,,,,,,,,,,,,,,,,,,,,,,,,,,,,,,,,,,,,,,,,,,,,,,,,,,,,,,,,,,,,,,,,,,,,,,,
,,,,,6501c0a2e788b5556c24569d,6682b41eeb79ab8215dff63d,6682dd168b9d56d5f88882e2,27,m,Polish,2024-07-01_17h47.59.154,ABmemTask3,2023.2.3,Win32,60.24096386,,,,,,,,,,,,,,,,,,,,,,,,,,,,,,,682.4055,683.403,683.403,10,683.902,685.5659,0.0016,685.7318,0.1657,0.1663,0.1666,0.166,0.1667,0.1663,0.1662,0.1662,0.1663,0.1665,,685.7319,686.5304,right,0.7803,,686.5305,686.7133,right,0.1735,,20,0,20,686.7134,687.7113,0,9,9,9,1,prac_AB,L1_T1P_T2P,1,1,1,7,8,6,3,11,tongs,Did you see the tongs,0.16,0,resources/,pics/sewingmachine01a.jpg,pics/shovel01.jpg,pics/football.jpg,pics/hen.jpg,pics/banjo.jpg,pics/zebra.jpg,pics/tongs01b.jpg,pics/stapler11.jpg,pics/shipinabottle.jpg,pics/match.jpg,pics/candle01.jpg,blankImage,blankImage,blankImage,blankImage,blankImage,blankImage,tongs01b,5,,,,,,,,,,,,,,,,,,,,,,,,,,,,,,,,,,,,,,,,,,,,,,,,,,,,,,,,,,,,,,,,,,,,,,,,,,,,,,,,,,,,,,,,,,,,,,,,,,,,
,,,,,6501c0a2e788b5556c24569d,6682b41eeb79ab8215dff63d,6682dd168b9d56d5f88882e2,27,m,Polish,2024-07-01_17h47.59.154,ABmemTask3,2023.2.3,Win32,60.24096386,,,,,,,,,,,,,,,,,,,,,,,,,,,,,,,687.7121,688.7095,688.7096,9,689.2083,690.8556,0.0015,691.0049,0.1492,0.1498,0.1498,0.1497,0.1497,0.1494,0.1499,0.1497,0.1496,0.1497,0.1496,691.005,692.1698,left,1.1527,,692.1699,692.3524,right,0.1715,,18,0,22,692.3525,693.3504,0,10,10,10,1,prac_AB,L1_T1A_T2A,1,0,0,7,8,6,4,12,camera,Did you see the camera,0.15,0,resources/,pics/lightswitch01.jpg,pics/table01.jpg,pics/aquarium.jpg,pics/boot02b.jpg,pics/butterfly.jpg,pics/chainsaw.jpg,pics/binoculars01b.jpg,pics/giraffe.jpg,pics/triangle.jpg,pics/microscope.jpg,pics/mummy.jpg,pics/icecube01.jpg,blankImage,blankImage,blankImage,blankImage,blankImage,camera01a,10,,,,,,,,,,,,,,,,,,,,,,,,,,,,,,,,,,,,,,,,,,,,,,,,,,,,,,,,,,,,,,,,,,,,,,,,,,,,,,,,,,,,,,,,,,,,,,,,,,,,
,,,,,6501c0a2e788b5556c24569d,6682b41eeb79ab8215dff63d,6682dd168b9d56d5f88882e2,27,m,Polish,2024-07-01_17h47.59.154,ABmemTask3,2023.2.3,Win32,60.24096386,,,,,,,,,,,,,,,,,,,,,,,,,,,,,,,693.3595,694.3485,694.3486,8,694.8476,696.0456,0.0015,696.1783,0.1325,0.133,0.1331,0.1332,0.133,0.133,0.1334,0.133,0.1328,,,696.1784,696.9937,right,0.8027,,696.9939,697.2097,right,0.2037,,20,0,24,697.2098,698.2078,0,11,11,11,1,prac_AB,L1_T1P_T2P,1,1,1,6,7,5,3,10,shorts,Did you see the shorts,0.14,0,resources/,pics/snowshoe.jpg,pics/chainsaw.jpg,pics/sailboat.jpg,pics/ball02.jpg,pics/candleholder01.jpg,pics/shorts01.jpg,pics/stapler07.jpg,pics/peach01.jpg,pics/proboscismonkey.jpg,pics/hen.jpg,blankImage,blankImage,blankImage,blankImage,blankImage,blankImage,blankImage,shorts01,4,,,,,,,,,,,,,,,,,,,,,,,,,,,,,,,,,,,,,,,,,,,,,,,,,,,,,,,,,,,,,,,,,,,,,,,,,,,,,,,,,,,,,,,,,,,,,,,,,,,,
,,,,,6501c0a2e788b5556c24569d,6682b41eeb79ab8215dff63d,6682dd168b9d56d5f88882e2,27,m,Polish,2024-07-01_17h47.59.154,ABmemTask3,2023.2.3,Win32,60.24096386,,,,,,,,,,,,,,,,,,,,,,,,,,,,,,,698.2084,699.2058,699.206,8,699.7049,701.3022,0.0013,701.4349,0.1328,0.1331,0.133,0.1332,0.1331,0.1329,0.1331,0.1338,0.1326,0.133,0.133,701.4349,701.9362,right,0.4902,,701.9363,702.1669,right,0.2143,,18,0,26,702.1671,703.165,0,12,12,12,1,prac_AB,L5_T1P_T2A,5,1,0,5,10,4,3,13,fish,Did you see the fish,0.13,0,resources/,pics/football.jpg,pics/safetypin.jpg,pics/shovel01.jpg,pics/sink.jpg,pics/holdfast.jpg,pics/nutcracker01.jpg,pics/starfish01.jpg,pics/onion.jpg,pics/footballhelmet.jpg,pics/boot02b.jpg,pics/sewingmachine01a.jpg,pics/kangaroo.jpg,pics/banjo.jpg,blankImage,blankImage,blankImage,blankImage,holdfast,14,0.133,,,,,,,,,,,,,,,,,,,,,,,,,,,,,,,,,,,,,,,,,,,,,,,,,,,,,,,,,,,,,,,,,,,,,,,,,,,,,,,,,,,,,,,,,,,,,,,,,,,
,,,,,6501c0a2e788b5556c24569d,6682b41eeb79ab8215dff63d,6682dd168b9d56d5f88882e2,27,m,Polish,2024-07-01_17h47.59.154,ABmemTask3,2023.2.3,Win32,60.24096386,,,,,,,,,,,,,,,,,,,,,,,,,,,,,,,703.1657,704.1629,704.163,7,704.662,705.7104,0.0014,705.8265,0.1164,0.1162,0.1164,0.1162,0.1169,0.116,0.1167,0.1163,0.1161,,,705.8266,706.4087,right,0.5731,,706.4088,706.6084,right,0.1807,,20,0,28,706.6084,707.6067,0,13,13,13,1,prac_AB,L1_T1P_T2P,1,1,1,5,6,4,4,10,fish,Did you see the fish,0.12,0,resources/,pics/butterfly.jpg,pics/banjo.jpg,pics/leaf02a.jpg,pics/dustpan.jpg,pics/sturgeon.jpg,pics/stapler02.jpg,pics/necklace.jpg,pics/shovel01.jpg,pics/starfish01.jpg,pics/chainsaw.jpg,blankImage,blankImage,blankImage,blankImage,blankImage,blankImage,blankImage,sturgeon,3,,,,,,,,,,,,,,,,,,,,,,,,,,,,,,,,,,,,,,,,,,,,,,,,,,,,,,,,,,,,,,,,,,,,,,,,,,,,,,,,,,,,,,,,,,,,,,,,,,,,
,,,,,6501c0a2e788b5556c24569d,6682b41eeb79ab8215dff63d,6682dd168b9d56d5f88882e2,27,m,Polish,2024-07-01_17h47.59.154,ABmemTask3,2023.2.3,Win32,60.24096386,,,,,,,,,,,,,,,,,,,,,,,,,,,,,,,,,,,,,,,,,,,,,,,,,,,,,,,,,,,,,,,,,,,,,,,,,,,,,,,,,,,,,,,,,,,,,,,,,,,,,,,,,,,707.6069,710.0351,space,2.4004,,,,,,,,,,,,,,,,,,,,,,,,,,,,,,,,,,,,,,,,,,,,,,,,,,,,,,,,,,,,,,,,,,,,,,,,,,,,,,,,,,,,,,,,,,,,,
,,,,,6501c0a2e788b5556c24569d,6682b41eeb79ab8215dff63d,6682dd168b9d56d5f88882e2,27,m,Polish,2024-07-01_17h47.59.154,ABmemTask3,2023.2.3,Win32,60.24096386,,,,,,,,,,,,,,,,,,,,,,,,,,,,,,,,,,,,,,,,,,,,,,,,,,,,,,,,,,,,,,,,,,,,,,,,,,,,,,,,,,,,,,,,,,,,,,,,,,,,,,,,,,,710.0478,710.0504,,,,,,,,,,,,,,,,,,,,,,,,,,,,,,,,,,,,,,,,,,,,,,,,,,,,,,,,,,,,,,,,,,,,,,,,,,,,,,,,,,,,,,,,,,,,,,,
,,,,,6501c0a2e788b5556c24569d,6682b41eeb79ab8215dff63d,6682dd168b9d56d5f88882e2,27,m,Polish,2024-07-01_17h47.59.154,ABmemTask3,2023.2.3,Win32,60.24096386,,,,,,,,,,,,,,,,,,,,,,,,,,,,,,,,,,,,,,,,,,,,,,,,,,,,,,,,,,,,,,,,,,,,,,,,,,,,,,,,,,,,,,,,,,,,,,,,,,,,,,,,,,,710.0538,710.054,,,,,,,,,,,,,,,,,,,,,,,,,,,,,,,,,,,,,,,,,,,,,,,,,,,,,,,,,,,,,,,,,,,,,,,,,,,,,,,,,,,,,,,,,,,,,,,
,,,,,6501c0a2e788b5556c24569d,6682b41eeb79ab8215dff63d,6682dd168b9d56d5f88882e2,27,m,Polish,2024-07-01_17h47.59.154,ABmemTask3,2023.2.3,Win32,60.24096386,,,,,,,,,,,,,,,,,,,,,,,,,,,,,,,,,,,,,,,,,,,,,,,,,,,,,,,,,,,,,,,,,,,,,,,,,,,,,,,,,,,,,,,,,,,,,,,,,,,,,,,,,,,710.0577,710.0578,,,,,,,,,,,,,,,,,,,,,,,,,,,,,,,,,,,,,,,,,,,,,,,,,,,,,,,,,,,,,,,,,,,,,,,,,,,,,,,,,,,,,,,,,,,,,,,
,,,,,6501c0a2e788b5556c24569d,6682b41eeb79ab8215dff63d,6682dd168b9d56d5f88882e2,27,m,Polish,2024-07-01_17h47.59.154,ABmemTask3,2023.2.3,Win32,60.24096386,,,,,,,,,,,,,,,,,,,,,,,,,,,,,,,,,,,,,,,,,,,,,,,,,,,,,,,,,,,,,,,,,,,,,,,,,,,,,,,,,,,,,,,,,,,,,,,,,,,,,,,,,,,710.0601,710.0603,,,,,,,,,,,,,,,,,,,,,,,,,,,,,,,,,,,,,,,,,,,,,,,,,,,,,,,,,,,,,,,,,,,,,,,,,,,,,,,,,,,,,,,,,,,,,,,
,,,,,6501c0a2e788b5556c24569d,6682b41eeb79ab8215dff63d,6682dd168b9d56d5f88882e2,27,m,Polish,2024-07-01_17h47.59.154,ABmemTask3,2023.2.3,Win32,60.24096386,,,,,,,,,,,,,,,,,,,,,,,,,,,,,,,,,,,,,,,,,,,,,,,,,,,,,,,,,,,,,,,,,,,,,,,,,,,,,,,,,,,,,,,,,,,,,,,,,,,,,,,,,,,710.0621,710.0621,,,,,,,,,,,,,,,,,,,,,,,,,,,,,,,,,,,,,,,,,,,,,,,,,,,,,,,,,,,,,,,,,,,,,,,,,,,,,,,,,,,,,,,,,,,,,,,
,,,,,6501c0a2e788b5556c24569d,6682b41eeb79ab8215dff63d,6682dd168b9d56d5f88882e2,27,m,Polish,2024-07-01_17h47.59.154,ABmemTask3,2023.2.3,Win32,60.24096386,,,,,,,,,,,,,,,,,,,,,,,,,,,,,,,,,,,,,,,,,,,,,,,,,,,,,,,,,,,,,,,,,,,,,,,,,,,,,,,,,,,,,,,,,,,,,,,,,,,,,,,,,,,710.0649,710.065,,,,,,,,,,,,,,,,,,,,,,,,,,,,,,,,,,,,,,,,,,,,,,,,,,,,,,,,,,,,,,,,,,,,,,,,,,,,,,,,,,,,,,,,,,,,,,,
,,,,,6501c0a2e788b5556c24569d,6682b41eeb79ab8215dff63d,6682dd168b9d56d5f88882e2,27,m,Polish,2024-07-01_17h47.59.154,ABmemTask3,2023.2.3,Win32,60.24096386,,,,,,,,,,,,,,,,,,,,,,,,,,,,,,,,,,,,,,,,,,,,,,,,,,,,,,,,,,,,,,,,,,,,,,,,,,,,,,,,,,,,,,,,,,,,,,,,,,,,,,,,,,,710.0681,710.0681,,,,,,,,,,,,,,,,,,,,,,,,,,,,,,,,,,,,,,,,,,,,,,,,,,,,,,,,,,,,,,,,,,,,,,,,,,,,,,,,,,,,,,,,,,,,,,,
,,,,,6501c0a2e788b5556c24569d,6682b41eeb79ab8215dff63d,6682dd168b9d56d5f88882e2,27,m,Polish,2024-07-01_17h47.59.154,ABmemTask3,2023.2.3,Win32,60.24096386,,,,,,,,,,,,,,,,,,,,,,,,,,,,,,,,,,,,,,,,,,,,,,,,,,,,,,,,,,,,,,,,,,,,,,,,,,,,,,,,,,,,,,,,,,,,,,,,,,,,,,,,,,,710.0701,710.0702,,,,,,,,,,,,,,,,,,,,,,,,,,,,,,,,,,,,,,,,,,,,,,,,,,,,,,,,,,,,,,,,,,,,,,,,,,,,,,,,,,,,,,,,,,,,,,,
,,,,,6501c0a2e788b5556c24569d,6682b41eeb79ab8215dff63d,6682dd168b9d56d5f88882e2,27,m,Polish,2024-07-01_17h47.59.154,ABmemTask3,2023.2.3,Win32,60.24096386,,,,,,,,,,,,,,,,,,,,,,,,,,,,,,,,,,,,,,,,,,,,,,,,,,,,,,,,,,,,,,,,,,,,,,,,,,,,,,,,,,,,,,,,,,,,,,,,,,,,,,,,,,,710.072,710.0721,,,,,,,,,,,,,,,,,,,,,,,,,,,,,,,,,,,,,,,,,,,,,,,,,,,,,,,,,,,,,,,,,,,,,,,,,,,,,,,,,,,,,,,,,,,,,,,
,,,,,6501c0a2e788b5556c24569d,6682b41eeb79ab8215dff63d,6682dd168b9d56d5f88882e2,27,m,Polish,2024-07-01_17h47.59.154,ABmemTask3,2023.2.3,Win32,60.24096386,,,,,,,,,,,,,,,,,,,,,,,,,,,,,,,,,,,,,,,,,,,,,,,,,,,,,,,,,,,,,,,,,,,,,,,,,,,,,,,,,,,,,,,,,,,,,,,,,,,,,,,,,,,710.0746,710.0748,,,,,,,,,,,,,,,,,,,,,,,,,,,,,,,,,,,,,,,,,,,,,,,,,,,,,,,,,,,,,,,,,,,,,,,,,,,,,,,,,,,,,,,,,,,,,,,
,,,,,6501c0a2e788b5556c24569d,6682b41eeb79ab8215dff63d,6682dd168b9d56d5f88882e2,27,m,Polish,2024-07-01_17h47.59.154,ABmemTask3,2023.2.3,Win32,60.24096386,,,,,,,,,,,,,,,,,,,,,,,,,,,,,,,,,,,,,,,,,,,,,,,,,,,,,,,,,,,,,,,,,,,,,,,,,,,,,,,,,,,,,,,,,,,,,,,,,,,,,,,,,,,710.0766,710.0768,,,,,,,,,,,,,,,,,,,,,,,,,,,,,,,,,,,,,,,,,,,,,,,,,,,,,,,,,,,,,,,,,,,,,,,,,,,,,,,,,,,,,,,,,,,,,,,
,,,,,6501c0a2e788b5556c24569d,6682b41eeb79ab8215dff63d,6682dd168b9d56d5f88882e2,27,m,Polish,2024-07-01_17h47.59.154,ABmemTask3,2023.2.3,Win32,60.24096386,,,,,,,,,,,,,,,,,,,,,,,,,,,,,,,,,,,,,,,,,,,,,,,,,,,,,,,,,,,,,,,,,,,,,,,,,,,,,,,,,,,,,,,,,,,,,,,,,,,,,,,,,,,710.0787,710.0787,,,,,,,,,,,,,,,,,,,,,,,,,,,,,,,,,,,,,,,,,,,,,,,,,,,,,,,,,,,,,,,,,,,,,,,,,,,,,,,,,,,,,,,,,,,,,,,
,,,,,6501c0a2e788b5556c24569d,6682b41eeb79ab8215dff63d,6682dd168b9d56d5f88882e2,27,m,Polish,2024-07-01_17h47.59.154,ABmemTask3,2023.2.3,Win32,60.24096386,,,,,,,,,,,,,,,,,,,,,,,,,,,,,,,,,,,,,,,,,,,,,,,,,,,,,,,,,,,,,,,,,,,,,,,,,,,,,,,,,,,,,,,,,,,,,,,,,,,,,,,,,,,710.0809,710.081,,,,,,,,,,,,,,,,,,,,,,,,,,,,,,,,,,,,,,,,,,,,,,,,,,,,,,,,,,,,,,,,,,,,,,,,,,,,,,,,,,,,,,,,,,,,,,,
,,,,,6501c0a2e788b5556c24569d,6682b41eeb79ab8215dff63d,6682dd168b9d56d5f88882e2,27,m,Polish,2024-07-01_17h47.59.154,ABmemTask3,2023.2.3,Win32,60.24096386,,,,,,,,,,,,,,,,,,,,,,,,,,,,,,,,,,,,,,,,,,,,,,,,,,,,,,,,,,,,,,,,,,,,,,,,,,,,,,,,,,,,,,,,,,,,,,,,,,,,,,,,,,,710.0854,710.0856,,,,,,,,,,,,,,,,,,,,,,,,,,,,,,,,,,,,,,,,,,,,,,,,,,,,,,,,,,,,,,,,,,,,,,,,,,,,,,,,,,,,,,,,,,,,,,,
,,,,,6501c0a2e788b5556c24569d,6682b41eeb79ab8215dff63d,6682dd168b9d56d5f88882e2,27,m,Polish,2024-07-01_17h47.59.154,ABmemTask3,2023.2.3,Win32,60.24096386,,,,,,,,,,,,,,,,,,,,,,,,,,,,,,,,,,,,,,,,,,,,,,,,,,,,,,,,,,,,,,,,,,,,,,,,,,,,,,,,,,,,,,,,,,,,,,,,,,,,,,,,,,,710.0874,710.0875,,,,,,,,,,,,,,,,,,,,,,,,,,,,,,,,,,,,,,,,,,,,,,,,,,,,,,,,,,,,,,,,,,,,,,,,,,,,,,,,,,,,,,,,,,,,,,,
,,,,,6501c0a2e788b5556c24569d,6682b41eeb79ab8215dff63d,6682dd168b9d56d5f88882e2,27,m,Polish,2024-07-01_17h47.59.154,ABmemTask3,2023.2.3,Win32,60.24096386,,,,,,,,,,,,,,,,,,,,,,,,,,,,,,,,,,,,,,,,,,,,,,,,,,,,,,,,,,,,,,,,,,,,,,,,,,,,,,,,,,,,,,,,,,,,,,,,,,,,,,,,,,,710.0893,710.0894,,,,,,,,,,,,,,,,,,,,,,,,,,,,,,,,,,,,,,,,,,,,,,,,,,,,,,,,,,,,,,,,,,,,,,,,,,,,,,,,,,,,,,,,,,,,,,,
,,,,,6501c0a2e788b5556c24569d,6682b41eeb79ab8215dff63d,6682dd168b9d56d5f88882e2,27,m,Polish,2024-07-01_17h47.59.154,ABmemTask3,2023.2.3,Win32,60.24096386,,,,,,,,,,,,,,,,,,,,,,,,,,,,,,,,,,,,,,,,,,,,,,,,,,,,,,,,,,,,,,,,,,,,,,,,,,,,,,,,,,,,,,,,,,,,,,,,,,,,,,,,,,,710.0919,710.092,,,,,,,,,,,,,,,,,,,,,,,,,,,,,,,,,,,,,,,,,,,,,,,,,,,,,,,,,,,,,,,,,,,,,,,,,,,,,,,,,,,,,,,,,,,,,,,
,,,,,6501c0a2e788b5556c24569d,6682b41eeb79ab8215dff63d,6682dd168b9d56d5f88882e2,27,m,Polish,2024-07-01_17h47.59.154,ABmemTask3,2023.2.3,Win32,60.24096386,,,,,,,,,,,,,,,,,,,,,,,,,,,,,,,,,,,,,,,,,,,,,,,,,,,,,,,,,,,,,,,,,,,,,,,,,,,,,,,,,,,,,,,,,,,,,,,,,,,,,,,,,,,710.0934,710.0936,,,,,,,,,,,,,,,,,,,,,,,,,,,,,,,,,,,,,,,,,,,,,,,,,,,,,,,,,,,,,,,,,,,,,,,,,,,,,,,,,,,,,,,,,,,,,,,
,,,,,6501c0a2e788b5556c24569d,6682b41eeb79ab8215dff63d,6682dd168b9d56d5f88882e2,27,m,Polish,2024-07-01_17h47.59.154,ABmemTask3,2023.2.3,Win32,60.24096386,,,,,,,,,,,,,,,,,,,,,,,,,,,,,,,,,,,,,,,,,,,,,,,,,,,,,,,,,,,,,,,,,,,,,,,,,,,,,,,,,,,,,,,,,,,,,,,,,,,,,,,,,,,710.095,710.095,,,,,,,,,,,,,,,,,,,,,,,,,,,,,,,,,,,,,,,,,,,,,,,,,,,,,,,,,,,,,,,,,,,,,,,,,,,,,,,,,,,,,,,,,,,,,,,
,,,,,6501c0a2e788b5556c24569d,6682b41eeb79ab8215dff63d,6682dd168b9d56d5f88882e2,27,m,Polish,2024-07-01_17h47.59.154,ABmemTask3,2023.2.3,Win32,60.24096386,,,,,,,,,,,,,,,,,,,,,,,,,,,,,,,,,,,,,,,,,,,,,,,,,,,,,,,,,,,,,,,,,,,,,,,,,,,,,,,,,,,,,,,,,,,,,,,,,,,,,,,,,,,710.0964,710.0965,,,,,,,,,,,,,,,,,,,,,,,,,,,,,,,,,,,,,,,,,,,,,,,,,,,,,,,,,,,,,,,,,,,,,,,,,,,,,,,,,,,,,,,,,,,,,,,
,,,,,6501c0a2e788b5556c24569d,6682b41eeb79ab8215dff63d,6682dd168b9d56d5f88882e2,27,m,Polish,2024-07-01_17h47.59.154,ABmemTask3,2023.2.3,Win32,60.24096386,,,,,,,,,,,,,,,,,,,,,,,,,,,,,,,,,,,,,,,,,,,,,,,,,,,,,,,,,,,,,,,,,,,,,,,,,,,,,,,,,,,,,,,,,,,,,,,,,,,,,,,,,,,,,,,,710.0974,738.4317,space,28.3067,,,,,,,,,,,,,,,,,,,,,,,,,,,,,,,,,,,,,,,,,,,,,,,,,,,,,,,,,,,,,,,,,,,,,,,,,,,,,,,,,,,,,,,,
,,,,,6501c0a2e788b5556c24569d,6682b41eeb79ab8215dff63d,6682dd168b9d56d5f88882e2,27,m,Polish,2024-07-01_17h47.59.154,ABmemTask3,2023.2.3,Win32,60.24096386,,,,,,,,,,,,,,,,,,,,,,,,,,,,,,,,,738.4432,602,738.9462,,,,,,,,,,,,,,,,,,,,,,,,,,0,,,,,,,,,prac_MEM,old,,,,,,,,,,,10,,,,,,,,,,,,,,,,,,,,,,,,,,,,,,,,,,,738.9465,745.5678,3,6,6.5889,,745.5686,746.5651,0,0,0,1,1,2,1,pics/pants.jpg,,,,,,,,,,,,,,,,,,,,,,,,,,,,,,,,,,,,,,,,,,,,,,,,,,,,,,,,,,,,,,,,,,,,,,,
,,,,,6501c0a2e788b5556c24569d,6682b41eeb79ab8215dff63d,6682dd168b9d56d5f88882e2,27,m,Polish,2024-07-01_17h47.59.154,ABmemTask3,2023.2.3,Win32,60.24096386,,,,,,,,,,,,,,,,,,,,,,,,,,,,,,,,,746.5745,602,747.064,,,,,,,,,,,,,,,,,,,,,,,,,,0,,,,,,,,,prac_MEM,old,,,,,,,,,,,10,,,,,,,,,,,,,,,,,,,,,,,,,,,,,,,,,,,747.0641,748.4779,6,6,1.3978,,748.4786,749.4761,0,1,1,4,1,5,1,pics/tongs01b.jpg,,,,,,,,,,,,,,,,,,,,,,,,,,,,,,,,,,,,,,,,,,,,,,,,,,,,,,,,,,,,,,,,,,,,,,,
,,,,,6501c0a2e788b5556c24569d,6682b41eeb79ab8215dff63d,6682dd168b9d56d5f88882e2,27,m,Polish,2024-07-01_17h47.59.154,ABmemTask3,2023.2.3,Win32,60.24096386,,,,,,,,,,,,,,,,,,,,,,,,,,,,,,,,,749.4766,602,749.975,,,,,,,,,,,,,,,,,,,,,,,,,,0,,,,,,,,,prac_MEM,new,,,,,,,,,,,10,,,,,,,,,,,,,,,,,,,,,,,,,,,,,,,,,,,749.975,751.2396,-3,6,1.2463,,751.2402,752.2374,0,2,2,9,1,999,999,pics/moth.jpg,,,,,,,,,,,,,,,,,,,,,,,,,,,,,,,,,,,,,,,,,,,,,,,,,,,,,,,,,,,,,,,,,,,,,,,
,,,,,6501c0a2e788b5556c24569d,6682b41eeb79ab8215dff63d,6682dd168b9d56d5f88882e2,27,m,Polish,2024-07-01_17h47.59.154,ABmemTask3,2023.2.3,Win32,60.24096386,,,,,,,,,,,,,,,,,,,,,,,,,,,,,,,,,752.2379,602,752.7362,,,,,,,,,,,,,,,,,,,,,,,,,,0,,,,,,,,,prac_MEM,old,,,,,,,,,,,10,,,,,,,,,,,,,,,,,,,,,,,,,,,,,,,,,,,752.7363,755.6142,-1,5,2.8617,,755.615,756.6122,0,3,3,3,1,4,1,pics/shorts01.jpg,,,,,,,,,,,,,,,,,,,,,,,,,,,,,,,,,,,,,,,,,,,,,,,,,,,,,,,,,,,,,,,,,,,,,,,
,,,,,6501c0a2e788b5556c24569d,6682b41eeb79ab8215dff63d,6682dd168b9d56d5f88882e2,27,m,Polish,2024-07-01_17h47.59.154,ABmemTask3,2023.2.3,Win32,60.24096386,,,,,,,,,,,,,,,,,,,,,,,,,,,,,,,,,756.6216,602,757.1128,,,,,,,,,,,,,,,,,,,,,,,,,,0,,,,,,,,,prac_MEM,new,,,,,,,,,,,10,,,,,,,,,,,,,,,,,,,,,,,,,,,,,,,,,,,757.1128,758.4088,-10,6,1.2833,,758.4093,759.4071,0,4,4,8,1,999,999,pics/thread02.jpg,,,,,,,,,,,,,,,,,,,,,,,,,,,,,,,,,,,,,,,,,,,,,,,,,,,,,,,,,,,,,,,,,,,,,,,
,,,,,6501c0a2e788b5556c24569d,6682b41eeb79ab8215dff63d,6682dd168b9d56d5f88882e2,27,m,Polish,2024-07-01_17h47.59.154,ABmemTask3,2023.2.3,Win32,60.24096386,,,,,,,,,,,,,,,,,,,,,,,,,,,,,,,,,759.4075,602,759.9058,,,,,,,,,,,,,,,,,,,,,,,,,,0,,,,,,,,,prac_MEM,old,,,,,,,,,,,10,,,,,,,,,,,,,,,,,,,,,,,,,,,,,,,,,,,759.9059,761.22,-7,6,1.3024,,761.2208,762.218,0,5,5,2,1,3,1,pics/sturgeon.jpg,,,,,,,,,,,,,,,,,,,,,,,,,,,,,,,,,,,,,,,,,,,,,,,,,,,,,,,,,,,,,,,,,,,,,,,
,,,,,6501c0a2e788b5556c24569d,6682b41eeb79ab8215dff63d,6682dd168b9d56d5f88882e2,27,m,Polish,2024-07-01_17h47.59.154,ABmemTask3,2023.2.3,Win32,60.24096386,,,,,,,,,,,,,,,,,,,,,,,,,,,,,,,,,762.2187,602,762.7172,,,,,,,,,,,,,,,,,,,,,,,,,,0,,,,,,,,,prac_MEM,old,,,,,,,,,,,10,,,,,,,,,,,,,,,,,,,,,,,,,,,,,,,,,,,762.7173,764.0147,-4,6,1.2811,,764.0153,765.0127,0,6,6,0,1,1,1,pics/tree.jpg,,,,,,,,,,,,,,,,,,,,,,,,,,,,,,,,,,,,,,,,,,,,,,,,,,,,,,,,,,,,,,,,,,,,,,,
,,,,,6501c0a2e788b5556c24569d,6682b41eeb79ab8215dff63d,6682dd168b9d56d5f88882e2,27,m,Polish,2024-07-01_17h47.59.154,ABmemTask3,2023.2.3,Win32,60.24096386,,,,,,,,,,,,,,,,,,,,,,,,,,,,,,,,,765.0133,602,765.5118,,,,,,,,,,,,,,,,,,,,,,,,,,0,,,,,,,,,prac_MEM,new,,,,,,,,,,,10,,,,,,,,,,,,,,,,,,,,,,,,,,,,,,,,,,,765.5118,768.5227,-2,2,2.9929,,768.5236,769.5211,0,7,7,10,1,999,999,pics/tomato01.jpg,,,,,,,,,,,,,,,,,,,,,,,,,,,,,,,,,,,,,,,,,,,,,,,,,,,,,,,,,,,,,,,,,,,,,,,
,,,,,6501c0a2e788b5556c24569d,6682b41eeb79ab8215dff63d,6682dd168b9d56d5f88882e2,27,m,Polish,2024-07-01_17h47.59.154,ABmemTask3,2023.2.3,Win32,60.24096386,,,,,,,,,,,,,,,,,,,,,,,,,,,,,,,,,769.5303,602,770.0199,,,,,,,,,,,,,,,,,,,,,,,,,,0,,,,,,,,,prac_MEM,new,,,,,,,,,,,10,,,,,,,,,,,,,,,,,,,,,,,,,,,,,,,,,,,770.02,773.0972,1,1,3.06,,773.0979,774.0953,0,8,8,7,1,999,999,pics/cherry01.jpg,,,,,,,,,,,,,,,,,,,,,,,,,,,,,,,,,,,,,,,,,,,,,,,,,,,,,,,,,,,,,,,,,,,,,,,
,,,,,6501c0a2e788b5556c24569d,6682b41eeb79ab8215dff63d,6682dd168b9d56d5f88882e2,27,m,Polish,2024-07-01_17h47.59.154,ABmemTask3,2023.2.3,Win32,60.24096386,,,,,,,,,,,,,,,,,,,,,,,,,,,,,,,,,774.1044,602,774.5943,,,,,,,,,,,,,,,,,,,,,,,,,,0,,,,,,,,,prac_MEM,old,,,,,,,,,,,10,,,,,,,,,,,,,,,,,,,,,,,,,,,,,,,,,,,774.5944,777.6051,-2,1,3.0001,,777.606,778.6034,0,9,9,5,1,11,5,pics/grater01a.jpg,,,,,,,,,,,,,,,,,,,,,,,,,,,,,,,,,,,,,,,,,,,,,,,,,,,,,,,,,,,,,,,,,,,,,,,
,,,,,6501c0a2e788b5556c24569d,6682b41eeb79ab8215dff63d,6682dd168b9d56d5f88882e2,27,m,Polish,2024-07-01_17h47.59.154,ABmemTask3,2023.2.3,Win32,60.24096386,,,,,,,,,,,,,,,,,,,,,,,,,,,,,,,,,778.6151,602,779.119,,,,,,,,,,,,,,,,,,,,,,,,,,0,,,,,,,,,prac_MEM,old,,,,,,,,,,,10,,,,,,,,,,,,,,,,,,,,,,,,,,,,,,,,,,,779.1191,780.35,1,6,1.2162,,780.3506,781.3481,0,10,10,6,1,12,5,pics/humanskull.jpg,,,,,,,,,,,,,,,,,,,,,,,,,,,,,,,,,,,,,,,,,,,,,,,,,,,,,,,,,,,,,,,,,,,,,,,
,,,,,6501c0a2e788b5556c24569d,6682b41eeb79ab8215dff63d,6682dd168b9d56d5f88882e2,27,m,Polish,2024-07-01_17h47.59.154,ABmemTask3,2023.2.3,Win32,60.24096386,,,,,,,,,,,,,,,,,,,,,,,,,,,,,,,,,,,,,,,,,,,,,,,,,,,,,,,,,,,,,,,,,,,,,,,,,,,,,,,,,,,,,,,,,,,,,,,,,,,,,,,,,,,,,,,,,,,,,,,,,,,,,,,,,,,,,781.3486,784.3756,784.3757,784.376,,,,,,,,,,,,,,,,,,,,,,,,,,,,,,,,,,,,,,,,,,,,,,,,,,,,,,,,,,,,,,,,,,,
,,,,,6501c0a2e788b5556c24569d,6682b41eeb79ab8215dff63d,6682dd168b9d56d5f88882e2,27,m,Polish,2024-07-01_17h47.59.154,ABmemTask3,2023.2.3,Win32,60.24096386,,,,,,,,,,,,,,,,,,space,169.7725,,,,,,,,,,,,,,,,,,,,,,,,,,,,,,,,,,,,,,,,,,,,,,,,,,,,,,,,,,,,,,,,,,,,,,,,,,,,,,,,,,,,,,,,,,,,,,,,,,,,,,,,,,,,,,,,,,,,,,784.3762,954.1833,,,,,,,,,,,,,,,,,,,,,,,,,,,,,,,,,,,,,,,,,,,,,,,,,,,,,,,,,,,,,,,,,
,,,,,6501c0a2e788b5556c24569d,6682b41eeb79ab8215dff63d,6682dd168b9d56d5f88882e2,27,m,Polish,2024-07-01_17h47.59.154,ABmemTask3,2023.2.3,Win32,60.24096386,,,,,,,,,,,,,,,,,,,,,,,,,,,,,,,,,,,,,,,,,,,,,,,,,,,,,,,,,,,,,,,,,,,,,,,,,,,,,,,,,,,,,,,,,,,,,,,,,,,,,,,,,,,,,,,,,,,,,,,,,,,,,,,,,,,,,,,,,,,954.1834,970.6517,space,16.4286,,,,,,,,,,,,,,,,,,,,,,,,,,,,,,,,,,,,,,,,,,,,,,,,,,,,,,,,,,,,,
,,,,,6501c0a2e788b5556c24569d,6682b41eeb79ab8215dff63d,6682dd168b9d56d5f88882e2,27,m,Polish,2024-07-01_17h47.59.154,ABmemTask3,2023.2.3,Win32,60.24096386,,,,,,,,,,,,,,,,,,,,,,,,,,,,,,,970.6715,971.6653,971.6654,7,972.1641,973.3289,0.0016,973.4449,0.1157,0.1166,0.1164,0.1165,0.1163,0.1164,0.1163,0.1163,0.1164,0.1167,,973.4452,974.5929,left,1.1287,,974.593,975.3421,right,0.7403,,2,0,2,975.3422,976.3394,,,,,,1_AB,L1_T1A_T2P,1,0,1,7,8,6,3,11,turkey,Did you see the turkey,0.12,0,resources/,pics/proboscismonkey.jpg,pics/blender.jpg,pics/sealion.jpg,pics/snowshoe.jpg,pics/carrot01.jpg,pics/microscope.jpg,pics/piggybank.jpg,pics/stapler12.jpg,pics/peanut01.jpg,pics/dustpan.jpg,pics/footballhelmet.jpg,blankImage,blankImage,blankImage,blankImage,blankImage,blankImage,turkey,26,,,,,,,,,,,,,,,,,,,,,,,,,,,,,,,,,,,,,,,,,0,0,0,25,1,,,,,,,,,,,,,,,,,,,,,,,,,,,,,,,,,,,,,,,,,,,,,,,,,,,,,,,
,,,,,6501c0a2e788b5556c24569d,6682b41eeb79ab8215dff63d,6682dd168b9d56d5f88882e2,27,m,Polish,2024-07-01_17h47.59.154,ABmemTask3,2023.2.3,Win32,60.24096386,,,,,,,,,,,,,,,,,,,,,,,,,,,,,,,976.353,977.3541,977.3542,7,977.8533,979.3676,0.0016,979.4833,0.1167,0.1153,0.1167,0.1165,0.1163,0.1164,0.1166,0.1167,0.1162,0.1166,0.1162,979.4834,980.3651,left,0.8627,,980.3653,980.6978,right,0.3165,,4,0,4,980.6979,981.6958,,,,,,1_AB,L5_T1A_T2P,5,0,1,4,9,3,5,14,lemon,Did you see the lemon,0.12,0,resources/,pics/seaturtle.jpg,pics/lightswitch01.jpg,pics/candle01.jpg,pics/cannon.jpg,pics/seagull.jpg,pics/spoon01.jpg,pics/spiderweb.jpg,pics/sewingmachine01a.jpg,pics/stapler05.jpg,pics/binoculars01b.jpg,pics/zebra.jpg,pics/sealion.jpg,pics/shovel01.jpg,pics/wheel01.jpg,blankImage,blankImage,blankImage,lemon02,56,0.1167,0.1161,,,,,,,,,,,,,,,,,,,,,,,,,,,,,,,,,,,,,,,0,1,1,55,1,,,,,,,,,,,,,,,,,,,,,,,,,,,,,,,,,,,,,,,,,,,,,,,,,,,,,,,
,,,,,6501c0a2e788b5556c24569d,6682b41eeb79ab8215dff63d,6682dd168b9d56d5f88882e2,27,m,Polish,2024-07-01_17h47.59.154,ABmemTask3,2023.2.3,Win32,60.24096386,,,,,,,,,,,,,,,,,,,,,,,,,,,,,,,981.6965,982.6937,982.6938,7,983.1928,984.9398,0.0014,985.0558,0.1159,0.1166,0.1165,0.1163,0.1168,0.1159,0.1164,0.1166,0.1164,0.1166,0.1167,985.056,986.1873,right,1.1124,,986.1874,986.42,left,0.2166,,6,0,6,986.4201,987.4179,,,,,,1_AB,L5_T1P_T2A,5,1,0,6,11,5,5,16,belt,Did you see the belt,0.12,0,resources/,pics/banjo.jpg,pics/birdhouse.jpg,pics/spoon01.jpg,pics/table01.jpg,pics/candle01.jpg,pics/belt02a.jpg,pics/peach01.jpg,pics/chainsaw.jpg,pics/toiletpaper01a.jpg,pics/proboscismonkey.jpg,pics/cymbal.jpg,pics/binoculars01b.jpg,pics/cannon.jpg,pics/noparkingsign.jpg,pics/sailboat.jpg,pics/carrot01.jpg,blankImage,belt02a,61,0.116,0.1166,0.1161,,,,,,,,,,,,,,,,,,,,,,,,,,,,,,,,,,,,,,0,2,2,60,1,0.1165,,,,,,,,,,,,,,,,,,,,,,,,,,,,,,,,,,,,,,,,,,,,,,,,,,,,,,
,,,,,6501c0a2e788b5556c24569d,6682b41eeb79ab8215dff63d,6682dd168b9d56d5f88882e2,27,m,Polish,2024-07-01_17h47.59.154,ABmemTask3,2023.2.3,Win32,60.24096386,,,,,,,,,,,,,,,,,,,,,,,,,,,,,,,987.4186,988.4161,988.4161,7,988.9153,990.0801,0.0014,990.196,0.1163,0.1161,0.1163,0.1166,0.1163,0.1165,0.1166,0.1164,0.1164,0.1165,,990.1961,991.1609,left,0.9439,,991.1611,991.7265,right,0.5521,,6,0,8,991.7266,992.7246,,,,,,1_AB,L1_T1P_T2P,1,1,1,7,8,6,3,11,toothpick,Did you see the toothpick,0.12,0,resources/,pics/candleholder01.jpg,pics/blender.jpg,pics/siamesecat.jpg,pics/peanut01.jpg,pics/spiderweb.jpg,pics/football.jpg,pics/toothpick02.jpg,pics/stapler04b.jpg,pics/seagull.jpg,pics/pictureframe04.jpg,pics/shipinabottle.jpg,blankImage,blankImage,blankImage,blankImage,blankImage,blankImage,toothpick02,17,,,,,,,,,,,,,,,,,,,,,,,,,,,,,,,,,,,,,,,,,0,3,3,16,1,,,,,,,,,,,,,,,,,,,,,,,,,,,,,,,,,,,,,,,,,,,,,,,,,,,,,,,
,,,,,6501c0a2e788b5556c24569d,6682b41eeb79ab8215dff63d,6682dd168b9d56d5f88882e2,27,m,Polish,2024-07-01_17h47.59.154,ABmemTask3,2023.2.3,Win32,60.24096386,,,,,,,,,,,,,,,,,,,,,,,,,,,,,,,992.7339,993.7226,993.7227,7,994.2217,995.2701,0.0015,995.386,0.1159,0.1164,0.1165,0.1164,0.1162,0.1164,0.1165,0.1163,0.1164,,,995.386,996.3512,right,0.9491,,996.3514,996.6171,right,0.2496,,8,0,10,996.6173,997.6153,,,,,,1_AB,L1_T1P_T2P,1,1,1,5,6,4,4,10,thermometer,Did you see the thermometer,0.12,0,resources/,pics/triangle.jpg,pics/shovel01.jpg,pics/mummy.jpg,pics/noparkingsign.jpg,pics/thermometer02b.jpg,pics/stapler04.jpg,pics/piggybank.jpg,pics/golfball.jpg,pics/laptop01a.jpg,pics/aquarium.jpg,blankImage,blankImage,blankImage,blankImage,blankImage,blankImage,blankImage,thermometer02b,8,,,,,,,,,,,,,,,,,,,,,,,,,,,,,,,,,,,,,,,,,0,4,4,7,1,,,,,,,,,,,,,,,,,,,,,,,,,,,,,,,,,,,,,,,,,,,,,,,,,,,,,,,
,,,,,6501c0a2e788b5556c24569d,6682b41eeb79ab8215dff63d,6682dd168b9d56d5f88882e2,27,m,Polish,2024-07-01_17h47.59.154,ABmemTask3,2023.2.3,Win32,60.24096386,,,,,,,,,,,,,,,,,,,,,,,,,,,,,,,997.6161,998.6133,998.6133,7,999.1122,1000.5098,0.0014,1000.626,0.116,0.1165,0.1164,0.1163,0.1166,0.1162,0.1165,0.1164,0.1165,0.1166,0.1163,1000.6261,1001.5743,right,0.9297,,1001.5744,1001.7576,left,0.1682,,8,0,12,1001.7577,1002.7554,,,,,,1_AB,L5_T1P_T2P,5,1,1,4,9,3,4,13,Forklift,Did you see the Forklift,0.12,0,resources/,pics/dustpan.jpg,pics/table01.jpg,pics/sink.jpg,pics/forklift.jpg,pics/dromedary.jpg,pics/proboscismonkey.jpg,pics/cymbal.jpg,pics/shovel01.jpg,pics/stapler10.jpg,pics/backpack01a.jpg,pics/binder03b.jpg,pics/banjo.jpg,pics/candleholder01.jpg,blankImage,blankImage,blankImage,blankImage,forklift,47,0.1165,,,,,,,,,,,,,,,,,,,,,,,,,,,,,,,,,,,,,,,,0,5,5,46,1,,,,,,,,,,,,,,,,,,,,,,,,,,,,,,,,,,,,,,,,,,,,,,,,,,,,,,,
,,,,,6501c0a2e788b5556c24569d,6682b41eeb79ab8215dff63d,6682dd168b9d56d5f88882e2,27,m,Polish,2024-07-01_17h47.59.154,ABmemTask3,2023.2.3,Win32,60.24096386,,,,,,,,,,,,,,,,,,,,,,,,,,,,,,,1002.756,1003.7534,1003.7535,7,1004.2522,1005.4173,0.0017,1005.5333,0.1159,0.1164,0.1165,0.1163,0.1166,0.1163,0.1164,0.1165,0.1164,0.1165,,1005.5334,1006.3983,right,0.8461,,1006.3984,1006.5813,left,0.1673,,8,0,14,1006.5814,1007.5793,,,,,,1_AB,L1_T1P_T2P,1,1,1,7,8,6,3,11,Eiffel tower,Did you see the Eiffel tower,0.12,0,resources/,pics/seagull.jpg,pics/cymbal.jpg,pics/match.jpg,pics/binoculars01b.jpg,pics/ball02.jpg,pics/onion.jpg,pics/eiffeltower.jpg,pics/stapler11.jpg,pics/peach01.jpg,pics/sandbarshark.jpg,pics/boot02b.jpg,blankImage,blankImage,blankImage,blankImage,blankImage,blankImage,eiffeltower,1,,,,,,,,,,,,,,,,,,,,,,,,,,,,,,,,,,,,,,,,,0,6,6,0,1,,,,,,,,,,,,,,,,,,,,,,,,,,,,,,,,,,,,,,,,,,,,,,,,,,,,,,,
,,,,,6501c0a2e788b5556c24569d,6682b41eeb79ab8215dff63d,6682dd168b9d56d5f88882e2,27,m,Polish,2024-07-01_17h47.59.154,ABmemTask3,2023.2.3,Win32,60.24096386,,,,,,,,,,,,,,,,,,,,,,,,,,,,,,,1007.5799,1008.5774,1008.5775,7,1009.0763,1010.3577,0.0013,1010.4737,0.1162,0.1164,0.1165,0.1164,0.1164,0.1167,0.1164,0.1162,0.1164,0.1167,0.1161,1010.4738,1011.5218,left,1.0337,,1011.5219,1011.7387,right,0.2082,,10,0,16,1011.7387,1012.736,,,,,,1_AB,L5_T1A_T2P,5,0,1,4,9,3,3,12,rooster,Did you see the rooster,0.12,0,resources/,pics/table01.jpg,pics/icecube01.jpg,pics/dustpan.jpg,pics/lock03a.jpg,pics/sailboat.jpg,pics/salmon.jpg,pics/banjo.jpg,pics/zebra.jpg,pics/stapler09.jpg,pics/peach01.jpg,pics/chainsaw.jpg,pics/football.jpg,blankImage,blankImage,blankImage,blankImage,blankImage,rooster,55,,,,,,,,,,,,,,,,,,,,,,,,,,,,,,,,,,,,,,,,,0,7,7,54,1,,,,,,,,,,,,,,,,,,,,,,,,,,,,,,,,,,,,,,,,,,,,,,,,,,,,,,,
,,,,,6501c0a2e788b5556c24569d,6682b41eeb79ab8215dff63d,6682dd168b9d56d5f88882e2,27,m,Polish,2024-07-01_17h47.59.154,ABmemTask3,2023.2.3,Win32,60.24096386,,,,,,,,,,,,,,,,,,,,,,,,,,,,,,,1012.7366,1013.7342,1013.7343,7,1014.2333,1015.3982,0.0013,1015.514,0.116,0.1165,0.1164,0.1163,0.1165,0.1165,0.1163,0.1166,0.1165,0.1165,,1015.5141,1016.4792,right,0.9438,,1016.4792,1016.6785,left,0.1872,,12,0,18,1016.6787,1017.6765,,,,,,1_AB,L1_T1P_T2A,1,1,0,7,8,6,3,11,Spear,Did you see the Spear,0.12,0,resources/,pics/butterfly.jpg,pics/banjo.jpg,pics/chainsaw.jpg,pics/christmaslights.jpg,pics/dustpan.jpg,pics/shovel01.jpg,pics/spear02.jpg,pics/table01.jpg,pics/starfish01.jpg,pics/bowlingpin.jpg,pics/carrot01.jpg,blankImage,blankImage,blankImage,blankImage,blankImage,blankImage,spear02,39,,,,,,,,,,,,,,,,,,,,,,,,,,,,,,,,,,,,,,,,,0,8,8,38,1,,,,,,,,,,,,,,,,,,,,,,,,,,,,,,,,,,,,,,,,,,,,,,,,,,,,,,,
,,,,,6501c0a2e788b5556c24569d,6682b41eeb79ab8215dff63d,6682dd168b9d56d5f88882e2,27,m,Polish,2024-07-01_17h47.59.154,ABmemTask3,2023.2.3,Win32,60.24096386,,,,,,,,,,,,,,,,,,,,,,,,,,,,,,,1017.6771,1018.6746,1018.6747,7,1019.1736,1020.2221,0.0014,1020.3381,0.1159,0.1166,0.1163,0.1165,0.1163,0.1166,0.1164,0.1165,0.1164,,,1020.3383,1021.0372,right,0.688,,1021.0372,1021.2198,left,0.1743,,14,0,20,1021.2198,1022.2178,,,,,,1_AB,L1_T1P_T2A,1,1,0,6,7,5,3,10,Duct tape,Did you see the Duct tape,0.12,0,resources/,pics/butterfly.jpg,pics/noparkingsign.jpg,pics/pictureframe04.jpg,pics/cork02.jpg,pics/fanblades.jpg,pics/ducttape.jpg,pics/icecube01.jpg,pics/siamesecat.jpg,pics/sink.jpg,pics/sandbarshark.jpg,blankImage,blankImage,blankImage,blankImage,blankImage,blankImage,blankImage,ducttape,36,,,,,,,,,,,,,,,,,,,,,,,,,,,,,,,,,,,,,,,,,0,9,9,35,1,,,,,,,,,,,,,,,,,,,,,,,,,,,,,,,,,,,,,,,,,,,,,,,,,,,,,,,
,,,,,6501c0a2e788b5556c24569d,6682b41eeb79ab8215dff63d,6682dd168b9d56d5f88882e2,27,m,Polish,2024-07-01_17h47.59.154,ABmemTask3,2023.2.3,Win32,60.24096386,,,,,,,,,,,,,,,,,,,,,,,,,,,,,,,1022.2185,1023.2159,1023.2159,7,1023.7151,1024.5305,0.0015,1024.6464,0.116,0.1162,0.1165,0.1163,0.1165,0.1164,0.1166,,,,,1024.6465,1025.5115,left,0.8542,,1025.5116,1025.6946,right,0.1706,,14,0,22,1025.6948,1026.6926,,,,,,1_AB,L1_T1P_T2P,1,1,1,4,5,3,3,8,Recycling bin,Did you see the Recycling bin,0.12,0,resources/,pics/microscope.jpg,pics/dustpan.jpg,pics/seagull.jpg,pics/recyclingbin.jpg,pics/stapler06.jpg,pics/bowtie.jpg,pics/dromedary.jpg,pics/salmon.jpg,blankImage,blankImage,blankImage,blankImage,blankImage,blankImage,blankImage,blankImage,blankImage,recyclingbin,16,,,,,,,,,,,,,,,,,,,,,,,,,,,,,,,,,,,,,,,,,0,10,10,15,1,,,,,,,,,,,,,,,,,,,,,,,,,,,,,,,,,,,,,,,,,,,,,,,,,,,,,,,
,,,,,6501c0a2e788b5556c24569d,6682b41eeb79ab8215dff63d,6682dd168b9d56d5f88882e2,27,m,Polish,2024-07-01_17h47.59.154,ABmemTask3,2023.2.3,Win32,60.24096386,,,,,,,,,,,,,,,,,,,,,,,,,,,,,,,1026.6934,1027.691,1027.691,7,1028.1897,1029.3546,0.0013,1029.4705,0.1162,0.1163,0.1164,0.1164,0.1168,0.1162,0.1162,0.1166,0.1164,0.1164,,1029.4706,1030.0861,right,0.5947,,1030.0862,1030.319,left,0.2168,,16,0,24,1030.3191,1031.3169,,,,,,1_AB,L1_T1P_T2A,1,1,0,6,7,5,4,11,lamp,Did you see the lamp,0.12,0,resources/,pics/chainsaw.jpg,pics/fanblades.jpg,pics/salmon.jpg,pics/proboscismonkey.jpg,pics/boot02b.jpg,pics/lamp04a.jpg,pics/blender.jpg,pics/sink.jpg,pics/pencil01.jpg,pics/floortile02.jpg,pics/shovel01.jpg,blankImage,blankImage,blankImage,blankImage,blankImage,blankImage,lamp04a,37,,,,,,,,,,,,,,,,,,,,,,,,,,,,,,,,,,,,,,,,,0,11,11,36,1,,,,,,,,,,,,,,,,,,,,,,,,,,,,,,,,,,,,,,,,,,,,,,,,,,,,,,,
,,,,,6501c0a2e788b5556c24569d,6682b41eeb79ab8215dff63d,6682dd168b9d56d5f88882e2,27,m,Polish,2024-07-01_17h47.59.154,ABmemTask3,2023.2.3,Win32,60.24096386,,,,,,,,,,,,,,,,,,,,,,,,,,,,,,,1031.3176,1032.3151,1032.3151,7,1032.8142,1033.7467,0.0015,1033.8623,0.1159,0.1163,0.1164,0.1165,0.1164,0.1164,0.1165,0.1169,,,,1033.8624,1034.4944,right,0.6137,,1034.4945,1034.7446,left,0.2335,,16,0,26,1034.7446,1035.7424,,,,,,1_AB,L1_T1P_T2P,1,1,1,5,6,4,3,9,cabbage,Did you see the cabbage,0.12,0,resources/,pics/match.jpg,pics/icecube01.jpg,pics/noparkingsign.jpg,pics/christmaslights.jpg,pics/cabbage.jpg,pics/stapler03a.jpg,pics/carrot01.jpg,pics/dustpan.jpg,pics/cannon.jpg,blankImage,blankImage,blankImage,blankImage,blankImage,blankImage,blankImage,blankImage,cabbage,14,,,,,,,,,,,,,,,,,,,,,,,,,,,,,,,,,,,,,,,,,0,12,12,13,1,,,,,,,,,,,,,,,,,,,,,,,,,,,,,,,,,,,,,,,,,,,,,,,,,,,,,,,
,,,,,6501c0a2e788b5556c24569d,6682b41eeb79ab8215dff63d,6682dd168b9d56d5f88882e2,27,m,Polish,2024-07-01_17h47.59.154,ABmemTask3,2023.2.3,Win32,60.24096386,,,,,,,,,,,,,,,,,,,,,,,,,,,,,,,1035.7432,1036.7398,1036.7399,7,1037.2389,1038.6372,0.0013,1038.7531,0.116,0.1165,0.1167,0.1163,0.1171,0.1158,0.1163,0.1168,0.1161,0.1165,0.1164,1038.7534,1039.6678,left,0.8967,,1039.6679,1039.9006,right,0.2207,,14,0,28,1039.9007,1040.8986,,,,,,1_AB,L1_T1A_T2A,1,0,0,7,8,6,5,13,fan,Did you see the fan,0.12,0,resources/,pics/leaf02a.jpg,pics/dustpan.jpg,pics/pencil01.jpg,pics/kangaroo.jpg,pics/golfball.jpg,pics/lightswitch01.jpg,pics/nutcracker01.jpg,pics/calendar.jpg,pics/hose.jpg,pics/starfish01.jpg,pics/siamesecat.jpg,pics/bowlingpin.jpg,pics/necklace.jpg,blankImage,blankImage,blankImage,blankImage,fan,42,0.1168,,,,,,,,,,,,,,,,,,,,,,,,,,,,,,,,,,,,,,,,0,13,13,41,1,,,,,,,,,,,,,,,,,,,,,,,,,,,,,,,,,,,,,,,,,,,,,,,,,,,,,,,
,,,,,6501c0a2e788b5556c24569d,6682b41eeb79ab8215dff63d,6682dd168b9d56d5f88882e2,27,m,Polish,2024-07-01_17h47.59.154,ABmemTask3,2023.2.3,Win32,60.24096386,,,,,,,,,,,,,,,,,,,,,,,,,,,,,,,1040.8992,1041.8967,1041.8969,7,1042.3956,1043.6769,0.0015,1043.7933,0.116,0.1163,0.1171,0.1158,0.1165,0.1164,0.1165,0.1164,0.1165,0.1164,0.1164,1043.7933,1044.3919,right,0.5787,,1044.392,1044.6414,left,0.2403,,14,0,30,1044.6415,1045.6394,,,,,,1_AB,L1_T1P_T2P,1,1,1,6,7,5,5,12,Bear,Did you see the Bear,0.12,0,resources/,pics/necklace.jpg,pics/hen.jpg,pics/dromedary.jpg,pics/piggybank.jpg,pics/sandbarshark.jpg,pics/grizzly.jpg,pics/stapler12.jpg,pics/bowlingpin.jpg,pics/christmaslights.jpg,pics/icecube01.jpg,pics/match.jpg,pics/lock03a.jpg,blankImage,blankImage,blankImage,blankImage,blankImage,grizzly,18,,,,,,,,,,,,,,,,,,,,,,,,,,,,,,,,,,,,,,,,,0,14,14,17,1,,,,,,,,,,,,,,,,,,,,,,,,,,,,,,,,,,,,,,,,,,,,,,,,,,,,,,,
,,,,,6501c0a2e788b5556c24569d,6682b41eeb79ab8215dff63d,6682dd168b9d56d5f88882e2,27,m,Polish,2024-07-01_17h47.59.154,ABmemTask3,2023.2.3,Win32,60.24096386,,,,,,,,,,,,,,,,,,,,,,,,,,,,,,,1045.6402,1046.6374,1046.6375,7,1047.1364,1048.7673,0.0014,1048.8832,0.1162,0.1163,0.1164,0.1165,0.1165,0.1165,0.1163,0.1165,0.1164,0.1165,0.1164,1048.8833,1049.8148,left,0.9129,,1049.815,1050.081,left,0.2529,,14,0,32,1050.0811,1051.079,,,,,,1_AB,L5_T1A_T2P,5,0,1,7,12,6,3,15,scissors,Did you see the scissors,0.12,0,resources/,pics/cannon.jpg,pics/mummy.jpg,pics/shovel01.jpg,pics/christmaslights.jpg,pics/snowshoe.jpg,pics/candle01.jpg,pics/bowtie.jpg,pics/giraffe.jpg,pics/carrot01.jpg,pics/spoon01.jpg,pics/seaturtle.jpg,pics/stapler10.jpg,pics/footballhelmet.jpg,pics/onion.jpg,pics/wheel01.jpg,blankImage,blankImage,scissors01,57,0.1164,0.1164,0.1167,,,,,,,,,,,,,,,,,,,,,,,,,,,,,,,,,,,,,,0,15,15,56,1,,,,,,,,,,,,,,,,,,,,,,,,,,,,,,,,,,,,,,,,,,,,,,,,,,,,,,,
,,,,,6501c0a2e788b5556c24569d,6682b41eeb79ab8215dff63d,6682dd168b9d56d5f88882e2,27,m,Polish,2024-07-01_17h47.59.154,ABmemTask3,2023.2.3,Win32,60.24096386,,,,,,,,,,,,,,,,,,,,,,,,,,,,,,,1051.0797,1052.077,1052.077,7,1052.576,1053.5081,0.0014,1053.6241,0.1161,0.1164,0.1163,0.1164,0.1164,0.1164,0.1165,0.1166,,,,1053.6242,1054.4559,right,0.8134,,1054.456,1054.8885,left,0.4179,,14,0,34,1054.8885,1055.8864,,,,,,1_AB,L1_T1P_T2P,1,1,1,4,5,3,4,9,antenna,Did you see the antenna,0.12,0,resources/,pics/microscope.jpg,pics/spoon01.jpg,pics/dromedary.jpg,pics/antenna.jpg,pics/stapler03.jpg,pics/hen.jpg,pics/leaf02a.jpg,pics/candle01.jpg,pics/sealion.jpg,blankImage,blankImage,blankImage,blankImage,blankImage,blankImage,blankImage,blankImage,antenna,9,,,,,,,,,,,,,,,,,,,,,,,,,,,,,,,,,,,,,,,,,0,16,16,8,1,,,,,,,,,,,,,,,,,,,,,,,,,,,,,,,,,,,,,,,,,,,,,,,,,,,,,,,
,,,,,6501c0a2e788b5556c24569d,6682b41eeb79ab8215dff63d,6682dd168b9d56d5f88882e2,27,m,Polish,2024-07-01_17h47.59.154,ABmemTask3,2023.2.3,Win32,60.24096386,,,,,,,,,,,,,,,,,,,,,,,,,,,,,,,1055.8871,1056.8844,1056.8845,7,1057.3834,1058.4319,0.0012,1058.5479,0.116,0.1164,0.1169,0.1162,0.1165,0.1163,0.1164,0.1164,0.1165,,,1058.548,1059.7465,left,1.1797,,1059.7465,1060.2614,right,0.5007,,16,0,36,1060.2614,1061.2594,,,,,,1_AB,L1_T1A_T2P,1,0,1,5,6,4,4,10,button,Did you see the button,0.12,0,resources/,pics/pencil01.jpg,pics/necklace.jpg,pics/sink.jpg,pics/noparkingsign.jpg,pics/banjo.jpg,pics/stapler03b.jpg,pics/candle01.jpg,pics/icecube01.jpg,pics/shovel01.jpg,pics/pencilsharpener02a.jpg,blankImage,blankImage,blankImage,blankImage,blankImage,blankImage,blankImage,button01,25,,,,,,,,,,,,,,,,,,,,,,,,,,,,,,,,,,,,,,,,,0,17,17,24,1,,,,,,,,,,,,,,,,,,,,,,,,,,,,,,,,,,,,,,,,,,,,,,,,,,,,,,,
,,,,,6501c0a2e788b5556c24569d,6682b41eeb79ab8215dff63d,6682dd168b9d56d5f88882e2,27,m,Polish,2024-07-01_17h47.59.154,ABmemTask3,2023.2.3,Win32,60.24096386,,,,,,,,,,,,,,,,,,,,,,,,,,,,,,,1061.2602,1062.2575,1062.2575,7,1062.7566,1063.6884,0.0011,1063.8044,0.1162,0.1163,0.1166,0.1167,0.1161,0.1166,0.1163,0.1163,,,,1063.8045,1064.6862,left,0.8632,,1064.6863,1064.9523,right,0.2523,,18,0,38,1064.9525,1065.9504,,,,,,1_AB,L1_T1A_T2P,1,0,1,5,6,4,3,9,Trailer,Did you see the Trailer,0.12,0,resources/,pics/pencil01.jpg,pics/football.jpg,pics/hairdryer02a.jpg,pics/wheel01.jpg,pics/chainsaw.jpg,pics/stapler10.jpg,pics/peanut01.jpg,pics/triangle.jpg,pics/sink.jpg,blankImage,blankImage,blankImage,blankImage,blankImage,blankImage,blankImage,blankImage,boxtrailer,29,,,,,,,,,,,,,,,,,,,,,,,,,,,,,,,,,,,,,,,,,0,18,18,28,1,,,,,,,,,,,,,,,,,,,,,,,,,,,,,,,,,,,,,,,,,,,,,,,,,,,,,,,
,,,,,6501c0a2e788b5556c24569d,6682b41eeb79ab8215dff63d,6682dd168b9d56d5f88882e2,27,m,Polish,2024-07-01_17h47.59.154,ABmemTask3,2023.2.3,Win32,60.24096386,,,,,,,,,,,,,,,,,,,,,,,,,,,,,,,1065.9511,1066.9483,1066.9484,7,1067.4474,1068.8453,0.0013,1068.9611,0.1162,0.1164,0.1164,0.1164,0.1167,0.116,0.1165,0.1166,0.1163,0.1165,0.1163,1068.9612,1069.5103,right,0.5361,,1069.5104,1069.7767,left,0.2517,,18,0,40,1069.7768,1070.7748,,,,,,1_AB,L1_T1P_T2P,1,1,1,7,8,6,5,13,strawberry,Did you see the strawberry,0.12,0,resources/,pics/sealion.jpg,pics/backpack01a.jpg,pics/binoculars01b.jpg,pics/ball02.jpg,pics/proboscismonkey.jpg,pics/pictureframe04.jpg,pics/strawberry.jpg,pics/stapler12.jpg,pics/seaturtle.jpg,pics/dustpan.jpg,pics/bowlingpin.jpg,pics/hammerheadshark.jpg,pics/hen.jpg,blankImage,blankImage,blankImage,blankImage,strawberry,10,0.1164,,,,,,,,,,,,,,,,,,,,,,,,,,,,,,,,,,,,,,,,0,19,19,9,1,,,,,,,,,,,,,,,,,,,,,,,,,,,,,,,,,,,,,,,,,,,,,,,,,,,,,,,
,,,,,6501c0a2e788b5556c24569d,6682b41eeb79ab8215dff63d,6682dd168b9d56d5f88882e2,27,m,Polish,2024-07-01_17h47.59.154,ABmemTask3,2023.2.3,Win32,60.24096386,,,,,,,,,,,,,,,,,,,,,,,,,,,,,,,1070.7756,1071.7728,1071.7729,7,1072.2715,1073.7861,0.0015,1073.9017,0.1159,0.1164,0.1165,0.1165,0.1162,0.1167,0.1163,0.1163,0.1166,0.1164,0.1164,1073.9018,1074.8,right,0.8794,,1074.8001,1075.0496,left,0.2377,,20,0,42,1075.0496,1076.0477,,,,,,1_AB,L5_T1P_T2A,5,1,0,4,9,3,5,14,Frisbee,Did you see the Frisbee,0.12,0,resources/,pics/giraffe.jpg,pics/christmaslights.jpg,pics/bowtie.jpg,pics/frisbee.jpg,pics/banjo.jpg,pics/calendar.jpg,pics/butterfly.jpg,pics/onion.jpg,pics/starfish01.jpg,pics/footballhelmet.jpg,pics/blender.jpg,pics/candleholder01.jpg,pics/hairdryer02a.jpg,pics/dromedary.jpg,blankImage,blankImage,blankImage,frisbee,58,0.1164,0.1167,,,,,,,,,,,,,,,,,,,,,,,,,,,,,,,,,,,,,,,0,20,20,57,1,,,,,,,,,,,,,,,,,,,,,,,,,,,,,,,,,,,,,,,,,,,,,,,,,,,,,,,
,,,,,6501c0a2e788b5556c24569d,6682b41eeb79ab8215dff63d,6682dd168b9d56d5f88882e2,27,m,Polish,2024-07-01_17h47.59.154,ABmemTask3,2023.2.3,Win32,60.24096386,,,,,,,,,,,,,,,,,,,,,,,,,,,,,,,1076.0483,1077.0457,1077.0457,7,1077.5447,1078.7095,0.0014,1078.8255,0.1159,0.1168,0.1162,0.1164,0.1163,0.1164,0.1165,0.1165,0.1164,0.1163,,1078.8256,1080.1566,right,1.3115,,1080.1566,1080.4892,left,0.3164,,22,0,44,1080.4893,1081.4871,,,,,,1_AB,L1_T1P_T2A,1,1,0,7,8,6,3,11,eggplant,Did you see the eggplant,0.12,0,resources/,pics/salmon.jpg,pics/fanblades.jpg,pics/hammerheadshark.jpg,pics/wheel01.jpg,pics/snowshoe.jpg,pics/birdhouse.jpg,pics/eggplant.jpg,pics/spiderweb.jpg,pics/zebra.jpg,pics/pencilsharpener02a.jpg,pics/backpack01a.jpg,blankImage,blankImage,blankImage,blankImage,blankImage,blankImage,eggplant,32,,,,,,,,,,,,,,,,,,,,,,,,,,,,,,,,,,,,,,,,,0,21,21,31,1,,,,,,,,,,,,,,,,,,,,,,,,,,,,,,,,,,,,,,,,,,,,,,,,,,,,,,,
,,,,,6501c0a2e788b5556c24569d,6682b41eeb79ab8215dff63d,6682dd168b9d56d5f88882e2,27,m,Polish,2024-07-01_17h47.59.154,ABmemTask3,2023.2.3,Win32,60.24096386,,,,,,,,,,,,,,,,,,,,,,,,,,,,,,,1081.4878,1082.4854,1082.4854,7,1082.9841,1083.7998,0.0013,1083.9157,0.116,0.1166,0.1166,0.1163,0.1166,0.1164,0.1163,,,,,1083.9158,1084.8974,left,0.9626,,1084.8975,1085.28,left,0.3665,,22,0,46,1085.2801,1086.2779,,,,,,1_AB,L1_T1A_T2P,1,0,1,4,5,3,3,8,Parking meter,Did you see the Parking meter,0.12,0,resources/,pics/leaf02a.jpg,pics/carrot01.jpg,pics/sink.jpg,pics/butterfly.jpg,pics/stapler10.jpg,pics/pictureframe04.jpg,pics/spiderweb.jpg,pics/icecube01.jpg,blankImage,blankImage,blankImage,blankImage,blankImage,blankImage,blankImage,blankImage,blankImage,parkingmeter,30,,,,,,,,,,,,,,,,,,,,,,,,,,,,,,,,,,,,,,,,,0,22,22,29,1,,,,,,,,,,,,,,,,,,,,,,,,,,,,,,,,,,,,,,,,,,,,,,,,,,,,,,,
,,,,,6501c0a2e788b5556c24569d,6682b41eeb79ab8215dff63d,6682dd168b9d56d5f88882e2,27,m,Polish,2024-07-01_17h47.59.154,ABmemTask3,2023.2.3,Win32,60.24096386,,,,,,,,,,,,,,,,,,,,,,,,,,,,,,,1086.2786,1087.276,1087.2761,7,1087.7754,1089.0563,0.0014,1089.1724,0.1157,0.1163,0.1165,0.1165,0.1162,0.1166,0.1164,0.1166,0.1164,0.1164,0.1165,1089.1724,1089.8049,right,0.6112,,1089.805,1090.0041,right,0.1903,,24,0,48,1090.0042,1091.0021,,,,,,1_AB,L5_T1P_T2P,5,1,1,4,9,3,3,12,Sheep,Did you see the Sheep,0.12,0,resources/,pics/icecube01.jpg,pics/cymbal.jpg,pics/wheel01.jpg,pics/sheep.jpg,pics/starfish01.jpg,pics/safetypin.jpg,pics/siamesecat.jpg,pics/lock03a.jpg,pics/stapler01.jpg,pics/sink.jpg,pics/fanblades.jpg,pics/bowlingpin.jpg,blankImage,blankImage,blankImage,blankImage,blankImage,sheep,52,,,,,,,,,,,,,,,,,,,,,,,,,,,,,,,,,,,,,,,,,0,23,23,51,1,,,,,,,,,,,,,,,,,,,,,,,,,,,,,,,,,,,,,,,,,,,,,,,,,,,,,,,
,,,,,6501c0a2e788b5556c24569d,6682b41eeb79ab8215dff63d,6682dd168b9d56d5f88882e2,27,m,Polish,2024-07-01_17h47.59.154,ABmemTask3,2023.2.3,Win32,60.24096386,,,,,,,,,,,,,,,,,,,,,,,,,,,,,,,1091.0029,1092.0001,1092.0002,7,1092.4992,1093.6643,0.0014,1093.7804,0.1163,0.1161,0.1165,0.1165,0.1163,0.1165,0.1165,0.1165,0.1162,0.1166,,1093.7804,1095.0943,right,1.299,,1095.0945,1095.344,right,0.2323,,22,0,50,1095.3441,1096.3417,,,,,,1_AB,L1_T1A_T2P,1,0,1,5,6,4,5,11,Recorder,Did you see the Recorder,0.12,0,resources/,pics/bowtie.jpg,pics/nutcracker01.jpg,pics/hairdryer02a.jpg,pics/shovel01.jpg,pics/onion.jpg,pics/stapler13.jpg,pics/safetypin.jpg,pics/spiderweb.jpg,pics/seagull.jpg,pics/dustpan.jpg,pics/icecube01.jpg,blankImage,blankImage,blankImage,blankImage,blankImage,blankImage,recorder04,28,,,,,,,,,,,,,,,,,,,,,,,,,,,,,,,,,,,,,,,,,0,24,24,27,1,,,,,,,,,,,,,,,,,,,,,,,,,,,,,,,,,,,,,,,,,,,,,,,,,,,,,,,
,,,,,6501c0a2e788b5556c24569d,6682b41eeb79ab8215dff63d,6682dd168b9d56d5f88882e2,27,m,Polish,2024-07-01_17h47.59.154,ABmemTask3,2023.2.3,Win32,60.24096386,,,,,,,,,,,,,,,,,,,,,,,,,,,,,,,1096.3425,1097.3399,1097.3399,7,1097.8391,1098.8874,0.0014,1099.0034,0.1169,0.1152,0.1167,0.1177,0.115,0.1165,0.1165,0.1166,0.1161,,,1099.0036,1100.5505,left,1.5283,,1100.5506,1100.7835,right,0.2196,,22,0,52,1100.7836,1101.7817,,,,,,1_AB,L1_T1P_T2P,1,1,1,4,5,3,5,10,chair,Did you see the chair,0.12,0,resources/,pics/zebra.jpg,pics/floortile02.jpg,pics/cork02.jpg,pics/chair.jpg,pics/stapler07.jpg,pics/sealion.jpg,pics/shovel01.jpg,pics/piggybank.jpg,pics/candleholder01.jpg,pics/laptop01a.jpg,blankImage,blankImage,blankImage,blankImage,blankImage,blankImage,blankImage,chair,3,,,,,,,,,,,,,,,,,,,,,,,,,,,,,,,,,,,,,,,,,0,25,25,2,1,,,,,,,,,,,,,,,,,,,,,,,,,,,,,,,,,,,,,,,,,,,,,,,,,,,,,,,
,,,,,6501c0a2e788b5556c24569d,6682b41eeb79ab8215dff63d,6682dd168b9d56d5f88882e2,27,m,Polish,2024-07-01_17h47.59.154,ABmemTask3,2023.2.3,Win32,60.24096386,,,,,,,,,,,,,,,,,,,,,,,,,,,,,,,1101.7824,1102.7798,1102.78,7,1103.2784,1104.5597,0.0013,1104.6758,0.1163,0.1166,0.1164,0.1161,0.1165,0.1165,0.1164,0.1163,0.1166,0.1165,0.1164,1104.676,1105.4079,right,0.7164,,1105.408,1105.8071,left,0.3828,,22,0,54,1105.8073,1106.8049,,,,,,1_AB,L1_T1P_T2P,1,1,1,6,7,5,5,12,jeep,Did you see the jeep,0.12,0,resources/,pics/sandbarshark.jpg,pics/laptop01a.jpg,pics/peach01.jpg,pics/binoculars01b.jpg,pics/giraffe.jpg,pics/jeep.jpg,pics/stapler03b.jpg,pics/fanblades.jpg,pics/cannon.jpg,pics/starfish01.jpg,pics/piggybank.jpg,pics/noparkingsign.jpg,blankImage,blankImage,blankImage,blankImage,blankImage,jeep,2,,,,,,,,,,,,,,,,,,,,,,,,,,,,,,,,,,,,,,,,,0,26,26,1,1,,,,,,,,,,,,,,,,,,,,,,,,,,,,,,,,,,,,,,,,,,,,,,,,,,,,,,,
,,,,,6501c0a2e788b5556c24569d,6682b41eeb79ab8215dff63d,6682dd168b9d56d5f88882e2,27,m,Polish,2024-07-01_17h47.59.154,ABmemTask3,2023.2.3,Win32,60.24096386,,,,,,,,,,,,,,,,,,,,,,,,,,,,,,,1106.8057,1107.8031,1107.8031,7,1108.3021,1109.7001,0.0014,1109.816,0.1163,0.1161,0.1165,0.1167,0.1164,0.1162,0.1166,0.1164,0.1164,0.1166,0.1162,1109.8162,1110.5647,right,0.729,,1110.5648,1110.9473,right,0.3639,,24,0,56,1110.9473,1111.9452,,,,,,1_AB,L1_T1P_T2P,1,1,1,7,8,6,5,13,Totem Pole,Did you see the Totem Pole,0.12,0,resources/,pics/laptop01a.jpg,pics/carrot01.jpg,pics/wheel01.jpg,pics/icecube01.jpg,pics/ashtray01.jpg,pics/lock03a.jpg,pics/totempole.jpg,pics/stapler08.jpg,pics/golfball.jpg,pics/pencil01.jpg,pics/banjo.jpg,pics/sandbarshark.jpg,pics/shipinabottle.jpg,blankImage,blankImage,blankImage,blankImage,totempole,22,0.1166,,,,,,,,,,,,,,,,,,,,,,,,,,,,,,,,,,,,,,,,0,27,27,21,1,,,,,,,,,,,,,,,,,,,,,,,,,,,,,,,,,,,,,,,,,,,,,,,,,,,,,,,
,,,,,6501c0a2e788b5556c24569d,6682b41eeb79ab8215dff63d,6682dd168b9d56d5f88882e2,27,m,Polish,2024-07-01_17h47.59.154,ABmemTask3,2023.2.3,Win32,60.24096386,,,,,,,,,,,,,,,,,,,,,,,,,,,,,,,1111.9459,1112.9432,1112.9433,7,1113.4423,1114.491,0.0013,1114.6067,0.1161,0.1164,0.1168,0.116,0.1166,0.1163,0.1168,0.1162,0.1167,,,1114.6068,1115.4053,right,0.781,,1115.4055,1115.7717,right,0.3576,,26,0,58,1115.7718,1116.7696,,,,,,1_AB,L1_T1P_T2P,1,1,1,4,5,3,5,10,vacuum,Did you see the vacuum,0.12,0,resources/,pics/birdhouse.jpg,pics/floortile02.jpg,pics/toiletpaper01a.jpg,pics/vacuumcleaner01.jpg,pics/stapler02.jpg,pics/spoon01.jpg,pics/banjo.jpg,pics/binder03b.jpg,pics/leaf02a.jpg,pics/aquarium.jpg,blankImage,blankImage,blankImage,blankImage,blankImage,blankImage,blankImage,vacuumcleaner01,5,,,,,,,,,,,,,,,,,,,,,,,,,,,,,,,,,,,,,,,,,0,28,28,4,1,,,,,,,,,,,,,,,,,,,,,,,,,,,,,,,,,,,,,,,,,,,,,,,,,,,,,,,
,,,,,6501c0a2e788b5556c24569d,6682b41eeb79ab8215dff63d,6682dd168b9d56d5f88882e2,27,m,Polish,2024-07-01_17h47.59.154,ABmemTask3,2023.2.3,Win32,60.24096386,,,,,,,,,,,,,,,,,,,,,,,,,,,,,,,1116.7703,1117.7675,1117.7675,7,1118.2662,1119.897,0.0013,1120.013,0.1162,0.1163,0.1165,0.1166,0.1163,0.1163,0.1164,0.1165,0.1164,0.1165,0.1165,1120.013,1120.6952,left,0.6654,,1120.6953,1120.9114,right,0.1999,,28,0,60,1120.9115,1121.9094,,,,,,1_AB,L5_T1A_T2P,5,0,1,5,10,4,5,15,scorpion,Did you see the scorpion,0.12,0,resources/,pics/pictureframe04.jpg,pics/binder03b.jpg,pics/pencil01.jpg,pics/leaf02a.jpg,pics/icecube01.jpg,pics/dromedary.jpg,pics/toiletpaper01a.jpg,pics/peanut01.jpg,pics/golfball.jpg,pics/stapler03.jpg,pics/carrot01.jpg,pics/peach01.jpg,pics/sealion.jpg,pics/football.jpg,pics/zebra.jpg,blankImage,blankImage,scorpion,54,0.1162,0.1167,0.1162,,,,,,,,,,,,,,,,,,,,,,,,,,,,,,,,,,,,,,0,29,29,53,1,,,,,,,,,,,,,,,,,,,,,,,,,,,,,,,,,,,,,,,,,,,,,,,,,,,,,,,
,,,,,6501c0a2e788b5556c24569d,6682b41eeb79ab8215dff63d,6682dd168b9d56d5f88882e2,27,m,Polish,2024-07-01_17h47.59.154,ABmemTask3,2023.2.3,Win32,60.24096386,,,,,,,,,,,,,,,,,,,,,,,,,,,,,,,1121.9101,1122.9073,1122.9074,7,1123.4064,1124.6879,0.0013,1124.8038,0.1161,0.1165,0.1167,0.1163,0.1162,0.1165,0.1166,0.1162,0.1168,0.1165,0.1162,1124.8039,1126.0182,left,1.2012,,1126.0184,1126.2012,right,0.1667,,28,0,62,1126.2014,1127.1991,,,,,,1_AB,L1_T1P_T2P,1,1,1,7,8,6,4,12,Turnstile,Did you see the Turnstile,0.12,0,resources/,pics/golfball.jpg,pics/hose.jpg,pics/siamesecat.jpg,pics/binoculars01b.jpg,pics/hen.jpg,pics/candleholder01.jpg,pics/turnstile.jpg,pics/stapler03a.jpg,pics/giraffe.jpg,pics/pictureframe04.jpg,pics/sandbarshark.jpg,pics/spoon01.jpg,blankImage,blankImage,blankImage,blankImage,blankImage,turnstile,13,,,,,,,,,,,,,,,,,,,,,,,,,,,,,,,,,,,,,,,,,0,30,30,12,1,,,,,,,,,,,,,,,,,,,,,,,,,,,,,,,,,,,,,,,,,,,,,,,,,,,,,,,
,,,,,6501c0a2e788b5556c24569d,6682b41eeb79ab8215dff63d,6682dd168b9d56d5f88882e2,27,m,Polish,2024-07-01_17h47.59.154,ABmemTask3,2023.2.3,Win32,60.24096386,,,,,,,,,,,,,,,,,,,,,,,,,,,,,,,1127.2,1128.1973,1128.1973,7,1128.6963,1129.8613,0.0014,1129.9771,0.1159,0.1165,0.1165,0.1164,0.1164,0.1163,0.1167,0.1163,0.1168,0.1161,,1129.9772,1131.2249,right,1.2293,,1131.2249,1131.5409,left,0.3043,,28,0,64,1131.5411,1132.5388,,,,,,1_AB,L1_T1P_T2P,1,1,1,7,8,6,3,11,bird,Did you see the bird,0.12,0,resources/,pics/sealion.jpg,pics/backpack01a.jpg,pics/hose.jpg,pics/table01.jpg,pics/wheel01.jpg,pics/seaturtle.jpg,pics/americangoldfinch.jpg,pics/stapler08.jpg,pics/siamesecat.jpg,pics/hammerheadshark.jpg,pics/ashtray01.jpg,blankImage,blankImage,blankImage,blankImage,blankImage,blankImage,americangoldfinch,23,,,,,,,,,,,,,,,,,,,,,,,,,,,,,,,,,,,,,,,,,0,31,31,22,1,,,,,,,,,,,,,,,,,,,,,,,,,,,,,,,,,,,,,,,,,,,,,,,,,,,,,,,
,,,,,6501c0a2e788b5556c24569d,6682b41eeb79ab8215dff63d,6682dd168b9d56d5f88882e2,27,m,Polish,2024-07-01_17h47.59.154,ABmemTask3,2023.2.3,Win32,60.24096386,,,,,,,,,,,,,,,,,,,,,,,,,,,,,,,1132.5482,1133.5369,1133.537,7,1134.036,1135.5503,0.0013,1135.6661,0.1161,0.1164,0.1166,0.1165,0.1166,0.116,0.1166,0.1164,0.1164,0.1164,0.1165,1135.6662,1136.1654,left,0.4799,,1136.1656,1136.4154,right,0.241,,28,0,66,1136.4154,1137.4129,,,,,,1_AB,L5_T1P_T2P,5,1,1,4,9,3,5,14,asparagus,Did you see the asparagus,0.12,0,resources/,pics/siamesecat.jpg,pics/starfish01.jpg,pics/aquarium.jpg,pics/asparagus.jpg,pics/salmon.jpg,pics/binoculars01b.jpg,pics/ball02.jpg,pics/calendar.jpg,pics/stapler10.jpg,pics/giraffe.jpg,pics/dromedary.jpg,pics/seaturtle.jpg,pics/sandbarshark.jpg,pics/shipinabottle.jpg,blankImage,blankImage,blankImage,asparagus,44,0.1162,0.1165,,,,,,,,,,,,,,,,,,,,,,,,,,,,,,,,,,,,,,,0,32,32,43,1,,,,,,,,,,,,,,,,,,,,,,,,,,,,,,,,,,,,,,,,,,,,,,,,,,,,,,,
,,,,,6501c0a2e788b5556c24569d,6682b41eeb79ab8215dff63d,6682dd168b9d56d5f88882e2,27,m,Polish,2024-07-01_17h47.59.154,ABmemTask3,2023.2.3,Win32,60.24096386,,,,,,,,,,,,,,,,,,,,,,,,,,,,,,,1137.4136,1138.4109,1138.411,7,1138.91,1140.5406,0.0017,1140.6565,0.1155,0.1163,0.1165,0.1164,0.1165,0.1164,0.1164,0.1165,0.1165,0.1164,0.1164,1140.6566,1141.3055,right,0.6308,,1141.3056,1141.6384,right,0.3166,,30,0,68,1141.6386,1142.6361,,,,,,1_AB,L5_T1P_T2P,5,1,1,5,10,4,5,15,dolphin,Did you see the dolphin,0.12,0,resources/,pics/banjo.jpg,pics/shipinabottle.jpg,pics/laptop01a.jpg,pics/onion.jpg,pics/dolphin01.jpg,pics/sink.jpg,pics/seaturtle.jpg,pics/butterfly.jpg,pics/hen.jpg,pics/stapler10.jpg,pics/proboscismonkey.jpg,pics/starfish01.jpg,pics/salmon.jpg,pics/spiderweb.jpg,pics/cymbal.jpg,blankImage,blankImage,dolphin01,49,0.1166,0.1163,0.1165,,,,,,,,,,,,,,,,,,,,,,,,,,,,,,,,,,,,,,0,33,33,48,1,,,,,,,,,,,,,,,,,,,,,,,,,,,,,,,,,,,,,,,,,,,,,,,,,,,,,,,
,,,,,6501c0a2e788b5556c24569d,6682b41eeb79ab8215dff63d,6682dd168b9d56d5f88882e2,27,m,Polish,2024-07-01_17h47.59.154,ABmemTask3,2023.2.3,Win32,60.24096386,,,,,,,,,,,,,,,,,,,,,,,,,,,,,,,1142.6368,1143.6342,1143.6342,7,1144.1332,1145.6473,0.0016,1145.7636,0.1157,0.1165,0.1164,0.1166,0.1167,0.1161,0.1162,0.1165,0.1164,0.1164,0.1167,1145.7637,1146.246,left,0.4636,,1146.2461,1146.4956,right,0.2346,,30,0,70,1146.4957,1147.4935,,,,,,1_AB,L5_T1P_T2P,5,1,1,6,11,5,3,14,mail box,Did you see the mail box,0.12,0,resources/,pics/pictureframe04.jpg,pics/seaturtle.jpg,pics/blender.jpg,pics/carrot01.jpg,pics/nutcracker01.jpg,pics/mailbox02.jpg,pics/seagull.jpg,pics/sink.jpg,pics/siamesecat.jpg,pics/spiderweb.jpg,pics/stapler08.jpg,pics/safetypin.jpg,pics/candle01.jpg,pics/mummy.jpg,blankImage,blankImage,blankImage,mailbox02,43,0.1162,0.1164,,,,,,,,,,,,,,,,,,,,,,,,,,,,,,,,,,,,,,,0,34,34,42,1,,,,,,,,,,,,,,,,,,,,,,,,,,,,,,,,,,,,,,,,,,,,,,,,,,,,,,,
,,,,,6501c0a2e788b5556c24569d,6682b41eeb79ab8215dff63d,6682dd168b9d56d5f88882e2,27,m,Polish,2024-07-01_17h47.59.154,ABmemTask3,2023.2.3,Win32,60.24096386,,,,,,,,,,,,,,,,,,,,,,,,,,,,,,,1147.4942,1148.4915,1148.4915,7,1148.9905,1150.039,0.0014,1150.155,0.116,0.1166,0.1166,0.1162,0.1164,0.1167,0.1165,0.1161,0.1164,,,1150.1551,1150.7545,left,0.583,,1150.7546,1151.9017,right,1.1413,,32,0,72,1151.9019,1152.8997,,,,,,1_AB,L1_T1A_T2P,1,0,1,5,6,4,4,10,Rabbit,Did you see the Rabbit,0.12,0,resources/,pics/cannon.jpg,pics/proboscismonkey.jpg,pics/salmon.jpg,pics/nutcracker01.jpg,pics/seagull.jpg,pics/stapler02.jpg,pics/table01.jpg,pics/laptop01a.jpg,pics/necklace.jpg,pics/pencilsharpener02a.jpg,blankImage,blankImage,blankImage,blankImage,blankImage,blankImage,blankImage,jackrabbit,31,,,,,,,,,,,,,,,,,,,,,,,,,,,,,,,,,,,,,,,,,0,35,35,30,1,,,,,,,,,,,,,,,,,,,,,,,,,,,,,,,,,,,,,,,,,,,,,,,,,,,,,,,
,,,,,6501c0a2e788b5556c24569d,6682b41eeb79ab8215dff63d,6682dd168b9d56d5f88882e2,27,m,Polish,2024-07-01_17h47.59.154,ABmemTask3,2023.2.3,Win32,60.24096386,,,,,,,,,,,,,,,,,,,,,,,,,,,,,,,1152.9096,1153.898,1153.898,7,1154.3969,1156.0274,0.0014,1156.1434,0.1158,0.1166,0.1171,0.1158,0.1164,0.1165,0.1165,0.1162,0.1163,0.1167,0.1163,1156.1434,1156.2434,right,0.0788,,1156.2435,1156.5428,right,0.2887,,34,0,74,1156.543,1157.5408,,,,,,1_AB,L5_T1P_T2P,5,1,1,5,10,4,5,15,ribbon,Did you see the ribbon,0.12,0,resources/,pics/giraffe.jpg,pics/boot02b.jpg,pics/cymbal.jpg,pics/leaf02a.jpg,pics/ribbon04.jpg,pics/lightswitch01.jpg,pics/necklace.jpg,pics/calendar.jpg,pics/kangaroo.jpg,pics/stapler12.jpg,pics/hose.jpg,pics/carrot01.jpg,pics/match.jpg,pics/sink.jpg,pics/candleholder01.jpg,blankImage,blankImage,ribbon04,53,0.1167,0.1162,0.1163,,,,,,,,,,,,,,,,,,,,,,,,,,,,,,,,,,,,,,0,36,36,52,1,,,,,,,,,,,,,,,,,,,,,,,,,,,,,,,,,,,,,,,,,,,,,,,,,,,,,,,
,,,,,6501c0a2e788b5556c24569d,6682b41eeb79ab8215dff63d,6682dd168b9d56d5f88882e2,27,m,Polish,2024-07-01_17h47.59.154,ABmemTask3,2023.2.3,Win32,60.24096386,,,,,,,,,,,,,,,,,,,,,,,,,,,,,,,1157.5415,1158.5388,1158.539,7,1159.038,1160.3192,0.0014,1160.4352,0.1159,0.1165,0.1165,0.1164,0.1164,0.1167,0.1164,0.1162,0.1165,0.1165,0.1164,1160.4354,1161.7832,right,1.3314,,1161.7832,1162.1321,right,0.3307,,32,0,76,1162.1323,1163.1299,,,,,,1_AB,L1_T1P_T2A,1,1,0,7,8,6,4,12,Tennis racket,Did you see the Tennis racket,0.12,0,resources/,pics/banjo.jpg,pics/leaf02a.jpg,pics/shovel01.jpg,pics/microscope.jpg,pics/cork02.jpg,pics/seagull.jpg,pics/tennisracket.jpg,pics/binder03b.jpg,pics/floortile02.jpg,pics/carrot01.jpg,pics/candle01.jpg,pics/siamesecat.jpg,blankImage,blankImage,blankImage,blankImage,blankImage,tennisracket,38,,,,,,,,,,,,,,,,,,,,,,,,,,,,,,,,,,,,,,,,,0,37,37,37,1,,,,,,,,,,,,,,,,,,,,,,,,,,,,,,,,,,,,,,,,,,,,,,,,,,,,,,,
,,,,,6501c0a2e788b5556c24569d,6682b41eeb79ab8215dff63d,6682dd168b9d56d5f88882e2,27,m,Polish,2024-07-01_17h47.59.154,ABmemTask3,2023.2.3,Win32,60.24096386,,,,,,,,,,,,,,,,,,,,,,,,,,,,,,,1163.1393,1164.1281,1164.1281,7,1164.6271,1166.0249,0.0014,1166.1409,0.1165,0.1159,0.1163,0.1165,0.1165,0.1164,0.1165,0.1163,0.1169,0.1163,0.1161,1166.141,1166.7736,left,0.6175,,1166.7736,1167.6381,right,0.8511,,34,0,78,1167.6382,1168.6361,,,,,,1_AB,L1_T1A_T2P,1,0,1,7,8,6,5,13,statue,Did you see the statue,0.12,0,resources/,pics/giraffe.jpg,pics/seaturtle.jpg,pics/peach01.jpg,pics/boot02b.jpg,pics/backpack01a.jpg,pics/sandbarshark.jpg,pics/microscope.jpg,pics/stapler07.jpg,pics/snowshoe.jpg,pics/laptop01a.jpg,pics/necklace.jpg,pics/zebra.jpg,pics/carrot01.jpg,blankImage,blankImage,blankImage,blankImage,statue,27,0.1166,,,,,,,,,,,,,,,,,,,,,,,,,,,,,,,,,,,,,,,,0,38,38,26,1,,,,,,,,,,,,,,,,,,,,,,,,,,,,,,,,,,,,,,,,,,,,,,,,,,,,,,,
,,,,,6501c0a2e788b5556c24569d,6682b41eeb79ab8215dff63d,6682dd168b9d56d5f88882e2,27,m,Polish,2024-07-01_17h47.59.154,ABmemTask3,2023.2.3,Win32,60.24096386,,,,,,,,,,,,,,,,,,,,,,,,,,,,,,,1168.6455,1169.6343,1169.6343,7,1170.1331,1171.6477,0.0014,1171.7638,0.1161,0.1166,0.1163,0.1164,0.1164,0.1163,0.1166,0.1165,0.1163,0.1163,0.1166,1171.7639,1172.9282,right,1.1442,,1172.9282,1173.8596,right,0.9155,,36,0,80,1173.8598,1174.8574,,,,,,1_AB,L5_T1P_T2P,5,1,1,6,11,5,3,14,truck,Did you see the truck,0.12,0,resources/,pics/calendar.jpg,pics/mummy.jpg,pics/ashtray01.jpg,pics/pencilsharpener02a.jpg,pics/dustpan.jpg,pics/boxtruck.jpg,pics/lightswitch01.jpg,pics/pictureframe04.jpg,pics/starfish01.jpg,pics/zebra.jpg,pics/stapler12.jpg,pics/bowtie.jpg,pics/candleholder01.jpg,pics/candle01.jpg,blankImage,blankImage,blankImage,boxtruck,50,0.1165,0.1165,,,,,,,,,,,,,,,,,,,,,,,,,,,,,,,,,,,,,,,0,39,39,49,1,,,,,,,,,,,,,,,,,,,,,,,,,,,,,,,,,,,,,,,,,,,,,,,,,,,,,,,
,,,,,6501c0a2e788b5556c24569d,6682b41eeb79ab8215dff63d,6682dd168b9d56d5f88882e2,27,m,Polish,2024-07-01_17h47.59.154,ABmemTask3,2023.2.3,Win32,60.24096386,,,,,,,,,,,,,,,,,,,,,,,,,,,,,,,1174.8667,1175.8557,1175.8558,7,1176.3546,1177.7529,0.0014,1177.8684,0.1161,0.1164,0.1165,0.1163,0.1166,0.1163,0.1165,0.1164,0.1166,0.1163,0.1166,1177.8685,1179.1495,left,1.2613,,1179.1495,1179.4321,right,0.2696,,38,0,82,1179.4322,1180.4301,,,,,,1_AB,L1_T1A_T2P,1,0,1,7,8,6,5,13,Basketball,Did you see the Basketball,0.12,0,resources/,pics/cork02.jpg,pics/table01.jpg,pics/christmaslights.jpg,pics/nutcracker01.jpg,pics/golfball.jpg,pics/hammerheadshark.jpg,pics/seaturtle.jpg,pics/stapler04b.jpg,pics/lock03a.jpg,pics/snowshoe.jpg,pics/sewingmachine01a.jpg,pics/peach01.jpg,pics/hose.jpg,blankImage,blankImage,blankImage,blankImage,basketball01,24,0.1168,,,,,,,,,,,,,,,,,,,,,,,,,,,,,,,,,,,,,,,,0,40,40,23,1,,,,,,,,,,,,,,,,,,,,,,,,,,,,,,,,,,,,,,,,,,,,,,,,,,,,,,,
,,,,,6501c0a2e788b5556c24569d,6682b41eeb79ab8215dff63d,6682dd168b9d56d5f88882e2,27,m,Polish,2024-07-01_17h47.59.154,ABmemTask3,2023.2.3,Win32,60.24096386,,,,,,,,,,,,,,,,,,,,,,,,,,,,,,,1180.4309,1181.4281,1181.4281,7,1181.9273,1183.092,0.0015,1183.208,0.1158,0.1164,0.1164,0.1163,0.1164,0.1165,0.1165,0.1162,0.1167,0.1163,,1183.2081,1183.8902,right,0.6659,,1183.8904,1185.1045,right,1.2024,,36,0,84,1185.1047,1186.1026,,,,,,1_AB,L1_T1P_T2A,1,1,0,7,8,6,3,11,garlic,Did you see the garlic,0.12,0,resources/,pics/zebra.jpg,pics/banjo.jpg,pics/pencilsharpener02a.jpg,pics/football.jpg,pics/candle01.jpg,pics/footballhelmet.jpg,pics/garlic01a.jpg,pics/birdhouse.jpg,pics/peach01.jpg,pics/pictureframe04.jpg,pics/binder03b.jpg,blankImage,blankImage,blankImage,blankImage,blankImage,blankImage,garlic01a,33,,,,,,,,,,,,,,,,,,,,,,,,,,,,,,,,,,,,,,,,,0,41,41,32,1,,,,,,,,,,,,,,,,,,,,,,,,,,,,,,,,,,,,,,,,,,,,,,,,,,,,,,,
,,,,,6501c0a2e788b5556c24569d,6682b41eeb79ab8215dff63d,6682dd168b9d56d5f88882e2,27,m,Polish,2024-07-01_17h47.59.154,ABmemTask3,2023.2.3,Win32,60.24096386,,,,,,,,,,,,,,,,,,,,,,,,,,,,,,,1186.1033,1187.1006,1187.1007,7,1187.5996,1188.7645,0.0014,1188.8805,0.1159,0.1164,0.1166,0.1163,0.1166,0.1164,0.1166,0.1164,0.1163,0.1163,,1188.8806,1190.5773,right,1.6765,,1190.5775,1191.6086,left,1.0196,,36,0,86,1191.6087,1192.6067,,,,,,1_AB,L1_T1P_T2P,1,1,1,7,8,6,3,11,medal,Did you see the medal,0.12,0,resources/,pics/hen.jpg,pics/starfish01.jpg,pics/nutcracker01.jpg,pics/ball02.jpg,pics/fanblades.jpg,pics/christmaslights.jpg,pics/medal02b.jpg,pics/stapler09.jpg,pics/carrot01.jpg,pics/hammerheadshark.jpg,pics/sailboat.jpg,blankImage,blankImage,blankImage,blankImage,blankImage,blankImage,medal02b,19,,,,,,,,,,,,,,,,,,,,,,,,,,,,,,,,,,,,,,,,,0,42,42,18,1,,,,,,,,,,,,,,,,,,,,,,,,,,,,,,,,,,,,,,,,,,,,,,,,,,,,,,,
,,,,,6501c0a2e788b5556c24569d,6682b41eeb79ab8215dff63d,6682dd168b9d56d5f88882e2,27,m,Polish,2024-07-01_17h47.59.154,ABmemTask3,2023.2.3,Win32,60.24096386,,,,,,,,,,,,,,,,,,,,,,,,,,,,,,,1192.616,1193.6048,1193.6048,7,1194.1039,1195.0358,0.0013,1195.1518,0.1162,0.1164,0.1163,0.1166,0.1162,0.1164,0.1166,0.1165,,,,1195.1519,1196.0667,right,0.899,,1196.0668,1196.2837,left,0.2079,,38,0,88,1196.2838,1197.281,,,,,,1_AB,L1_T1P_T2A,1,1,0,4,5,3,4,9,blueberry,Did you see the blueberry,0.12,0,resources/,pics/sealion.jpg,pics/piggybank.jpg,pics/sink.jpg,pics/blueberry01.jpg,pics/onion.jpg,pics/sailboat.jpg,pics/seaturtle.jpg,pics/hen.jpg,pics/fanblades.jpg,blankImage,blankImage,blankImage,blankImage,blankImage,blankImage,blankImage,blankImage,blueberry01,35,,,,,,,,,,,,,,,,,,,,,,,,,,,,,,,,,,,,,,,,,0,43,43,34,1,,,,,,,,,,,,,,,,,,,,,,,,,,,,,,,,,,,,,,,,,,,,,,,,,,,,,,,
,,,,,6501c0a2e788b5556c24569d,6682b41eeb79ab8215dff63d,6682dd168b9d56d5f88882e2,27,m,Polish,2024-07-01_17h47.59.154,ABmemTask3,2023.2.3,Win32,60.24096386,,,,,,,,,,,,,,,,,,,,,,,,,,,,,,,1197.2817,1198.279,1198.2791,7,1198.7786,1200.5252,0.0013,1200.6412,0.1155,0.1165,0.1166,0.1164,0.1165,0.1163,0.1164,0.1165,0.1164,0.1166,0.1162,1200.6413,1201.1076,right,0.4547,,1201.1077,1201.4564,left,0.3336,,38,0,90,1201.4564,1202.4544,,,,,,1_AB,L5_T1P_T2P,5,1,1,6,11,5,5,16,cruise ship,Did you see the cruise ship,0.12,0,resources/,pics/seaturtle.jpg,pics/ashtray01.jpg,pics/pencil01.jpg,pics/fanblades.jpg,pics/triangle.jpg,pics/cruiseship.jpg,pics/wheel01.jpg,pics/dustpan.jpg,pics/starfish01.jpg,pics/banjo.jpg,pics/stapler12.jpg,pics/match.jpg,pics/cannon.jpg,pics/sandbarshark.jpg,pics/sink.jpg,pics/zebra.jpg,blankImage,cruiseship,51,0.117,0.1161,0.1164,,,,,,,,,,,,,,,,,,,,,,,,,,,,,,,,,,,,,,0,44,44,50,1,0.1163,,,,,,,,,,,,,,,,,,,,,,,,,,,,,,,,,,,,,,,,,,,,,,,,,,,,,,
,,,,,6501c0a2e788b5556c24569d,6682b41eeb79ab8215dff63d,6682dd168b9d56d5f88882e2,27,m,Polish,2024-07-01_17h47.59.154,ABmemTask3,2023.2.3,Win32,60.24096386,,,,,,,,,,,,,,,,,,,,,,,,,,,,,,,1202.4551,1203.4524,1203.4525,7,1203.9515,1205.4658,0.0013,1205.5818,0.116,0.1165,0.1165,0.1165,0.1165,0.1163,0.1167,0.1161,0.1163,0.1166,0.1166,1205.5818,1206.0975,left,0.4948,,1206.0977,1206.3803,right,0.2666,,38,0,92,1206.3804,1207.3782,,,,,,1_AB,L5_T1P_T2P,5,1,1,4,9,3,5,14,pliers,Did you see the pliers,0.12,0,resources/,pics/calendar.jpg,pics/footballhelmet.jpg,pics/seaturtle.jpg,pics/pliers02b.jpg,pics/wheel01.jpg,pics/cannon.jpg,pics/proboscismonkey.jpg,pics/shovel01.jpg,pics/stapler06.jpg,pics/football.jpg,pics/hose.jpg,pics/dustpan.jpg,pics/spiderweb.jpg,pics/golfball.jpg,blankImage,blankImage,blankImage,pliers02b,48,0.1162,0.1165,,,,,,,,,,,,,,,,,,,,,,,,,,,,,,,,,,,,,,,0,45,45,47,1,,,,,,,,,,,,,,,,,,,,,,,,,,,,,,,,,,,,,,,,,,,,,,,,,,,,,,,
,,,,,6501c0a2e788b5556c24569d,6682b41eeb79ab8215dff63d,6682dd168b9d56d5f88882e2,27,m,Polish,2024-07-01_17h47.59.154,ABmemTask3,2023.2.3,Win32,60.24096386,,,,,,,,,,,,,,,,,,,,,,,,,,,,,,,1207.3789,1208.3762,1208.3763,7,1208.8755,1209.8073,0.0015,1209.9234,0.1155,0.1167,0.1165,0.1163,0.1167,0.1162,0.1164,0.1164,,,,1209.9235,1210.8716,left,0.9362,,1210.8718,1211.3208,right,0.4334,,36,0,94,1211.3209,1212.3188,,,,,,1_AB,L1_T1A_T2A,1,0,0,4,5,3,4,9,License Plate,Did you see the License Plate,0.12,0,resources/,pics/snowshoe.jpg,pics/kangaroo.jpg,pics/noparkingsign.jpg,pics/match.jpg,pics/hose.jpg,pics/blender.jpg,pics/ashtray01.jpg,pics/ball02.jpg,pics/sink.jpg,blankImage,blankImage,blankImage,blankImage,blankImage,blankImage,blankImage,blankImage,licenseplate,40,,,,,,,,,,,,,,,,,,,,,,,,,,,,,,,,,,,,,,,,,0,46,46,39,1,,,,,,,,,,,,,,,,,,,,,,,,,,,,,,,,,,,,,,,,,,,,,,,,,,,,,,,
,,,,,6501c0a2e788b5556c24569d,6682b41eeb79ab8215dff63d,6682dd168b9d56d5f88882e2,27,m,Polish,2024-07-01_17h47.59.154,ABmemTask3,2023.2.3,Win32,60.24096386,,,,,,,,,,,,,,,,,,,,,,,,,,,,,,,1212.3194,1213.3168,1213.3168,7,1213.8159,1215.4465,0.0016,1215.5625,0.116,0.1163,0.1163,0.1164,0.1163,0.1165,0.1165,0.117,0.1159,0.1169,0.1162,1215.5626,1215.9952,right,0.4142,,1215.9952,1216.1948,right,0.181,,38,0,96,1216.1949,1217.1926,,,,,,1_AB,L5_T1P_T2P,5,1,1,6,11,5,4,15,toast,Did you see the toast,0.12,0,resources/,pics/piggybank.jpg,pics/leaf02a.jpg,pics/carrot01.jpg,pics/birdhouse.jpg,pics/bowlingpin.jpg,pics/toast.jpg,pics/spiderweb.jpg,pics/cork02.jpg,pics/sink.jpg,pics/nutcracker01.jpg,pics/stapler02.jpg,pics/ashtray01.jpg,pics/fanblades.jpg,pics/pencil01.jpg,pics/lightswitch01.jpg,blankImage,blankImage,toast,46,0.1163,0.1165,0.1163,,,,,,,,,,,,,,,,,,,,,,,,,,,,,,,,,,,,,,0,47,47,45,1,,,,,,,,,,,,,,,,,,,,,,,,,,,,,,,,,,,,,,,,,,,,,,,,,,,,,,,
,,,,,6501c0a2e788b5556c24569d,6682b41eeb79ab8215dff63d,6682dd168b9d56d5f88882e2,27,m,Polish,2024-07-01_17h47.59.154,ABmemTask3,2023.2.3,Win32,60.24096386,,,,,,,,,,,,,,,,,,,,,,,,,,,,,,,1217.1935,1218.1908,1218.1909,7,1218.6898,1219.7382,0.0018,1219.8543,0.1156,0.1166,0.1163,0.1163,0.1166,0.1163,0.1168,0.1161,0.1164,,,1219.8544,1220.5862,right,0.7134,,1220.5863,1220.8861,right,0.2913,,40,0,98,1220.8862,1221.8837,,,,,,1_AB,L1_T1P_T2P,1,1,1,4,5,3,5,10,flute,Did you see the flute,0.12,0,resources/,pics/peach01.jpg,pics/seaturtle.jpg,pics/dromedary.jpg,pics/recorder01.jpg,pics/stapler08.jpg,pics/giraffe.jpg,pics/blender.jpg,pics/necklace.jpg,pics/sink.jpg,pics/dustpan.jpg,blankImage,blankImage,blankImage,blankImage,blankImage,blankImage,blankImage,recorder01,7,,,,,,,,,,,,,,,,,,,,,,,,,,,,,,,,,,,,,,,,,0,48,48,6,1,,,,,,,,,,,,,,,,,,,,,,,,,,,,,,,,,,,,,,,,,,,,,,,,,,,,,,,
,,,,,6501c0a2e788b5556c24569d,6682b41eeb79ab8215dff63d,6682dd168b9d56d5f88882e2,27,m,Polish,2024-07-01_17h47.59.154,ABmemTask3,2023.2.3,Win32,60.24096386,,,,,,,,,,,,,,,,,,,,,,,,,,,,,,,1221.8842,1222.8817,1222.8818,7,1223.3807,1225.2443,0.0014,1225.3604,0.1159,0.1168,0.1162,0.1165,0.1164,0.1166,0.1163,0.1166,0.1163,0.1166,0.1161,1225.3605,1225.6601,right,0.2804,,1225.6602,1226.4419,right,0.7655,,34,0,100,1226.4421,1227.4395,,,,,,1_AB,L5_T1A_T2A,5,0,0,7,12,6,5,17,Bib,Did you see the Bib,0.12,0,resources/,pics/hammerheadshark.jpg,pics/wheel01.jpg,pics/binder03b.jpg,pics/hairdryer02a.jpg,pics/christmaslights.jpg,pics/sandbarshark.jpg,pics/binoculars01b.jpg,pics/piggybank.jpg,pics/aquarium.jpg,pics/candleholder01.jpg,pics/sink.jpg,pics/calendar.jpg,pics/birdhouse.jpg,pics/bowtie.jpg,pics/onion.jpg,pics/golfball.jpg,pics/sailboat.jpg,bib,62,0.1175,0.1155,0.1164,,,,,,,,,,,,,,,,,,,,,,,,,,,,,,,,,,,,,,0,49,49,61,1,0.1166,0.1162,,,,,,,,,,,,,,,,,,,,,,,,,,,,,,,,,,,,,,,,,,,,,,,,,,,,,
,,,,,6501c0a2e788b5556c24569d,6682b41eeb79ab8215dff63d,6682dd168b9d56d5f88882e2,27,m,Polish,2024-07-01_17h47.59.154,ABmemTask3,2023.2.3,Win32,60.24096386,,,,,,,,,,,,,,,,,,,,,,,,,,,,,,,1227.4404,1228.4376,1228.4377,7,1228.9368,1229.8688,0.0014,1229.9847,0.116,0.1164,0.1165,0.1164,0.1164,0.1165,0.1174,0.1155,,,,1229.9847,1230.6837,right,0.6789,,1230.6839,1231.7315,left,1.0318,,34,0,102,1231.7316,1232.7296,,,,,,1_AB,L1_T1P_T2P,1,1,1,5,6,4,3,9,Ant,Did you see the Ant,0.12,0,resources/,pics/kangaroo.jpg,pics/giraffe.jpg,pics/footballhelmet.jpg,pics/onion.jpg,pics/ant.jpg,pics/stapler04b.jpg,pics/banjo.jpg,pics/zebra.jpg,pics/dromedary.jpg,blankImage,blankImage,blankImage,blankImage,blankImage,blankImage,blankImage,blankImage,ant,15,,,,,,,,,,,,,,,,,,,,,,,,,,,,,,,,,,,,,,,,,0,50,50,14,1,,,,,,,,,,,,,,,,,,,,,,,,,,,,,,,,,,,,,,,,,,,,,,,,,,,,,,,
,,,,,6501c0a2e788b5556c24569d,6682b41eeb79ab8215dff63d,6682dd168b9d56d5f88882e2,27,m,Polish,2024-07-01_17h47.59.154,ABmemTask3,2023.2.3,Win32,60.24096386,,,,,,,,,,,,,,,,,,,,,,,,,,,,,,,1232.7387,1233.7276,1233.7276,7,1234.2267,1235.5081,0.0014,1235.6238,0.1158,0.1167,0.1163,0.1164,0.1165,0.1164,0.1166,0.1164,0.1163,0.1164,0.1166,1235.624,1236.4225,right,0.779,,1236.4227,1237.2711,right,0.8317,,36,0,104,1237.2711,1238.2687,,,,,,1_AB,L1_T1P_T2P,1,1,1,7,8,6,4,12,hammer,Did you see the hammer,0.12,0,resources/,pics/microscope.jpg,pics/blender.jpg,pics/dustpan.jpg,pics/snowshoe.jpg,pics/mummy.jpg,pics/bowtie.jpg,pics/hammer01.jpg,pics/stapler04b.jpg,pics/seaturtle.jpg,pics/candle01.jpg,pics/necklace.jpg,pics/cannon.jpg,blankImage,blankImage,blankImage,blankImage,blankImage,hammer01,21,,,,,,,,,,,,,,,,,,,,,,,,,,,,,,,,,,,,,,,,,0,51,51,20,1,,,,,,,,,,,,,,,,,,,,,,,,,,,,,,,,,,,,,,,,,,,,,,,,,,,,,,,
,,,,,6501c0a2e788b5556c24569d,6682b41eeb79ab8215dff63d,6682dd168b9d56d5f88882e2,27,m,Polish,2024-07-01_17h47.59.154,ABmemTask3,2023.2.3,Win32,60.24096386,,,,,,,,,,,,,,,,,,,,,,,,,,,,,,,1238.2694,1239.2669,1239.267,7,1239.7661,1240.698,0.0014,1240.8141,0.1158,0.1164,0.1163,0.1165,0.1164,0.1167,0.1161,0.1165,,,,1240.8143,1242.7936,right,1.9602,,1242.7937,1244.1576,right,1.3523,,38,0,106,1244.1578,1245.1556,,,,,,1_AB,L1_T1P_T2P,1,1,1,4,5,3,4,9,Chefs hat,Did you see the Chefs hat,0.12,0,resources/,pics/sewingmachine01a.jpg,pics/icecube01.jpg,pics/fanblades.jpg,pics/chefshat.jpg,pics/stapler06.jpg,pics/ashtray01.jpg,pics/blender.jpg,pics/sandbarshark.jpg,pics/lock03a.jpg,blankImage,blankImage,blankImage,blankImage,blankImage,blankImage,blankImage,blankImage,chefshat,12,,,,,,,,,,,,,,,,,,,,,,,,,,,,,,,,,,,,,,,,,0,52,52,11,1,,,,,,,,,,,,,,,,,,,,,,,,,,,,,,,,,,,,,,,,,,,,,,,,,,,,,,,
,,,,,6501c0a2e788b5556c24569d,6682b41eeb79ab8215dff63d,6682dd168b9d56d5f88882e2,27,m,Polish,2024-07-01_17h47.59.154,ABmemTask3,2023.2.3,Win32,60.24096386,,,,,,,,,,,,,,,,,,,,,,,,,,,,,,,1245.1652,1246.1536,1246.1538,7,1246.6527,1248.1669,0.0014,1248.2829,0.1162,0.1162,0.1164,0.1167,0.1161,0.1164,0.1167,0.1163,0.1166,0.1164,0.1161,1248.283,1249.7807,left,1.4833,,1249.7807,1251.0112,right,1.2189,,34,0,108,1251.0113,1252.0089,,,,,,1_AB,L5_T1P_T2A,5,1,0,6,11,5,3,14,Kiwi,Did you see the Kiwi,0.12,0,resources/,pics/candleholder01.jpg,pics/kangaroo.jpg,pics/banjo.jpg,pics/binoculars01b.jpg,pics/microscope.jpg,pics/kiwi03.jpg,pics/bowtie.jpg,pics/peanut01.jpg,pics/backpack01a.jpg,pics/zebra.jpg,pics/toiletpaper01a.jpg,pics/hen.jpg,pics/spoon01.jpg,pics/calendar.jpg,blankImage,blankImage,blankImage,kiwi03,59,0.1165,0.1164,,,,,,,,,,,,,,,,,,,,,,,,,,,,,,,,,,,,,,,0,53,53,58,1,,,,,,,,,,,,,,,,,,,,,,,,,,,,,,,,,,,,,,,,,,,,,,,,,,,,,,,
,,,,,6501c0a2e788b5556c24569d,6682b41eeb79ab8215dff63d,6682dd168b9d56d5f88882e2,27,m,Polish,2024-07-01_17h47.59.154,ABmemTask3,2023.2.3,Win32,60.24096386,,,,,,,,,,,,,,,,,,,,,,,,,,,,,,,1252.0219,1253.024,1253.0242,7,1253.5227,1254.6876,0.0014,1254.8035,0.1161,0.117,0.1158,0.1167,0.1162,0.1164,0.1167,0.1163,0.1165,0.1162,,1254.8036,1257.8313,right,3.016,,1257.8314,1259.5946,right,1.7496,,36,0,110,1259.5947,1260.5926,,,,,,1_AB,L1_T1P_T2P,1,1,1,7,8,6,3,11,sock,Did you see the sock,0.12,0,resources/,pics/hen.jpg,pics/christmaslights.jpg,pics/salmon.jpg,pics/sealion.jpg,pics/seaturtle.jpg,pics/giraffe.jpg,pics/athleticsock.jpg,pics/stapler01.jpg,pics/shovel01.jpg,pics/leaf02a.jpg,pics/backpack01a.jpg,blankImage,blankImage,blankImage,blankImage,blankImage,blankImage,athleticsock,11,,,,,,,,,,,,,,,,,,,,,,,,,,,,,,,,,,,,,,,,,0,54,54,10,1,,,,,,,,,,,,,,,,,,,,,,,,,,,,,,,,,,,,,,,,,,,,,,,,,,,,,,,
,,,,,6501c0a2e788b5556c24569d,6682b41eeb79ab8215dff63d,6682dd168b9d56d5f88882e2,27,m,Polish,2024-07-01_17h47.59.154,ABmemTask3,2023.2.3,Win32,60.24096386,,,,,,,,,,,,,,,,,,,,,,,,,,,,,,,1260.6022,1261.5906,1261.5907,7,1262.0896,1263.1381,0.0014,1263.254,0.1162,0.1162,0.1164,0.1167,0.1163,0.1166,0.1162,0.1163,0.1167,,,1263.2541,1263.7543,right,0.4895,,1263.7544,1264.2855,right,0.5251,,34,0,112,1264.2857,1265.2836,,,,,,1_AB,L1_T1P_T2A,1,1,0,6,7,5,3,10,Electric toothbrush,Did you see the Electric toothbrush,0.12,0,resources/,pics/football.jpg,pics/sailboat.jpg,pics/cymbal.jpg,pics/hen.jpg,pics/pencil01.jpg,pics/electrictoothbrush01c.jpg,pics/bowlingpin.jpg,pics/wheel01.jpg,pics/birdhouse.jpg,pics/leaf02a.jpg,blankImage,blankImage,blankImage,blankImage,blankImage,blankImage,blankImage,electrictoothbrush01c,34,,,,,,,,,,,,,,,,,,,,,,,,,,,,,,,,,,,,,,,,,0,55,55,33,1,,,,,,,,,,,,,,,,,,,,,,,,,,,,,,,,,,,,,,,,,,,,,,,,,,,,,,,
,,,,,6501c0a2e788b5556c24569d,6682b41eeb79ab8215dff63d,6682dd168b9d56d5f88882e2,27,m,Polish,2024-07-01_17h47.59.154,ABmemTask3,2023.2.3,Win32,60.24096386,,,,,,,,,,,,,,,,,,,,,,,,,,,,,,,1265.2842,1266.2817,1266.2817,7,1266.781,1268.0619,0.0014,1268.1779,0.1156,0.1165,0.1163,0.1171,0.117,0.119,0.1129,0.1164,0.1163,0.1167,0.116,1268.178,1268.7103,left,0.5139,,1268.7104,1269.1595,right,0.4362,,34,0,114,1269.1597,1270.1574,,,,,,1_AB,L1_T1P_T2P,1,1,1,6,7,5,5,12,rope,Did you see the rope,0.12,0,resources/,pics/toiletpaper01a.jpg,pics/sewingmachine01a.jpg,pics/birdhouse.jpg,pics/sealion.jpg,pics/safetypin.jpg,pics/rope03.jpg,pics/stapler04.jpg,pics/binder03b.jpg,pics/ashtray01.jpg,pics/sandbarshark.jpg,pics/chainsaw.jpg,pics/nutcracker01.jpg,blankImage,blankImage,blankImage,blankImage,blankImage,rope03,4,,,,,,,,,,,,,,,,,,,,,,,,,,,,,,,,,,,,,,,,,0,56,56,3,1,,,,,,,,,,,,,,,,,,,,,,,,,,,,,,,,,,,,,,,,,,,,,,,,,,,,,,,
,,,,,6501c0a2e788b5556c24569d,6682b41eeb79ab8215dff63d,6682dd168b9d56d5f88882e2,27,m,Polish,2024-07-01_17h47.59.154,ABmemTask3,2023.2.3,Win32,60.24096386,,,,,,,,,,,,,,,,,,,,,,,,,,,,,,,1270.1581,1271.1556,1271.1557,7,1271.6546,1272.8194,0.0014,1272.9355,0.1164,0.1158,0.1165,0.1164,0.1165,0.1164,0.1166,0.1163,0.1167,0.1162,,1272.9356,1273.9835,left,1.0289,,1273.9838,1275.1647,right,1.1644,,32,0,116,1275.1648,1276.1625,,,,,,1_AB,L1_T1A_T2A,1,0,0,7,8,6,3,11,Poker chips,Did you see the Poker chips,0.12,0,resources/,pics/candle01.jpg,pics/proboscismonkey.jpg,pics/fanblades.jpg,pics/dromedary.jpg,pics/aquarium.jpg,pics/salmon.jpg,pics/hose.jpg,pics/kangaroo.jpg,pics/noparkingsign.jpg,pics/carrot01.jpg,pics/leaf02a.jpg,blankImage,blankImage,blankImage,blankImage,blankImage,blankImage,pokerchips,41,,,,,,,,,,,,,,,,,,,,,,,,,,,,,,,,,,,,,,,,,0,57,57,40,1,,,,,,,,,,,,,,,,,,,,,,,,,,,,,,,,,,,,,,,,,,,,,,,,,,,,,,,
,,,,,6501c0a2e788b5556c24569d,6682b41eeb79ab8215dff63d,6682dd168b9d56d5f88882e2,27,m,Polish,2024-07-01_17h47.59.154,ABmemTask3,2023.2.3,Win32,60.24096386,,,,,,,,,,,,,,,,,,,,,,,,,,,,,,,1276.1633,1277.1606,1277.1607,7,1277.6598,1279.174,0.0019,1279.29,0.117,0.115,0.1173,0.1155,0.1164,0.1164,0.1163,0.1166,0.1163,0.1164,0.1165,1279.2901,1281.8683,right,2.5592,,1281.8685,1283.2158,right,1.3351,,34,0,118,1283.2159,1284.2138,,,,,,1_AB,L5_T1P_T2P,5,1,1,5,10,4,4,14,Fox,Did you see the Fox,0.12,0,resources/,pics/hammerheadshark.jpg,pics/bowlingpin.jpg,pics/pictureframe04.jpg,pics/peanut01.jpg,pics/redfox.jpg,pics/cymbal.jpg,pics/spoon01.jpg,pics/banjo.jpg,pics/butterfly.jpg,pics/stapler11.jpg,pics/football.jpg,pics/safetypin.jpg,pics/triangle.jpg,pics/onion.jpg,blankImage,blankImage,blankImage,redfox,45,0.1164,0.1165,,,,,,,,,,,,,,,,,,,,,,,,,,,,,,,,,,,,,,,0,58,58,44,1,,,,,,,,,,,,,,,,,,,,,,,,,,,,,,,,,,,,,,,,,,,,,,,,,,,,,,,
