consent1.started,consent1.stopped,key_resp_8.keys,key_resp_8.rt,key_resp_8.duration,PROLIFIC_PID,STUDY_ID,SESSION_ID,age,sex,native language,date,expName,psychopyVersion,OS,frameRate,consent2.started,consent2.stopped,key_resp_9.keys,key_resp_9.rt,key_resp_9.duration,consent3.started,consent3.stopped,key_resp_10.keys,key_resp_10.rt,key_resp_10.duration,consent4.started,consent4.stopped,key_resp_11.keys,key_resp_11.rt,key_resp_11.duration,consent5.started,consent5.stopped,key_resp_12.keys,key_resp_12.rt,key_resp_12.duration,bonusInstruct.started,bonusInstruct.stopped,key_resp_14.keys,key_resp_14.rt,key_resp_14.duration,practiceInstruct.started,practiceInstruct.stopped,key_resp.keys,key_resp.rt,key_resp.duration,cueWord_2.started,cueWord_2.stopped,fix.started,frameTarget,fix.stopped,trial.started,img1Add,trial.stopped,img2Add,img3Add,img4Add,img5Add,img6Add,img7Add,img8Add,img9Add,img10Add,img11Add,img12Add,prompt1.started,prompt1.stopped,key_resp_2.keys,key_resp_2.rt,key_resp_2.duration,prompt2.started,prompt2.stopped,key_resp_3.keys,key_resp_3.rt,key_resp_3.duration,runningAcc_AB,runningTotal,runningCount_AB,feedback.started,feedback.stopped,trials.thisRepN,trials.thisTrialN,trials.thisN,trials.thisIndex,trials.ran,TrialType,CondType,Lag,T1_PA,T2_PA,T1Loc,T2Loc,PreDistractor,PostDistractor,TotalImg,cueWord,T1cue,StimLength,isi,PicFolder,Img1,Img2,Img3,Img4,Img5,Img6,Img7,Img8,Img9,Img10,Img11,Img12,Img13,Img14,Img15,Img16,Img17,T1_Identity,trialID,img13Add,img14Add,img15Add,ABfeedback.started,ABfeedback.stopped,key_resp_13.keys,key_resp_13.rt,key_resp_13.duration,MemPracticeInstruction.started,MemPracticeInstruction.stopped,key_resp_5.keys,key_resp_5.rt,key_resp_5.duration,memTrial.started,memTrial.stopped,Mem_runningPoints,key_resp_4.keys,key_resp_4.rt,key_resp_4.duration,memTrialFeedback.started,memTrialFeedback.stopped,trials_2.thisRepN,trials_2.thisTrialN,trials_2.thisN,trials_2.thisIndex,trials_2.ran,ABtrialID,priorLag,image,memFeedback.started,memFeedback.frame,memFeedback.ended,memFeedback.stopped,bonus.started,bonus.stopped,memoryBlockABInstruct.started,memoryBlockABInstruct.stopped,key_resp_6.keys,key_resp_6.rt,key_resp_6.duration,AB_block_1.thisRepN,AB_block_1.thisTrialN,AB_block_1.thisN,AB_block_1.thisIndex,AB_block_1.ran,img16Add,img17Add,AB_break1.started,AB_break1.stopped,PerceiveBlockABInstruct.started,PerceiveBlockABInstruct.stopped,key_resp_7.keys,key_resp_7.rt,key_resp_7.duration,AB_block_2.thisRepN,AB_block_2.thisTrialN,AB_block_2.thisN,AB_block_2.thisIndex,AB_block_2.ran,AB_break2.started,AB_break2.stopped,AB_block_3.thisRepN,AB_block_3.thisTrialN,AB_block_3.thisN,AB_block_3.thisIndex,AB_block_3.ran,AB_break3.started,AB_break3.stopped,AB_block_4.thisRepN,AB_block_4.thisTrialN,AB_block_4.thisN,AB_block_4.thisIndex,AB_block_4.ran,AB_break4.started,AB_break4.stopped,AB_block_5.thisRepN,AB_block_5.thisTrialN,AB_block_5.thisN,AB_block_5.thisIndex,AB_block_5.ran,AB_break5.started,AB_break5.stopped,AB_block_6.thisRepN,AB_block_6.thisTrialN,AB_block_6.thisN,AB_block_6.thisIndex,AB_block_6.ran,AB_break6.started,AB_break6.stopped,MemInstructionSURPRISE.started,MemInstructionSURPRISE.stopped,MemInstruction.started,MemInstruction.stopped,memBreak.started,memBreak.stopped,Mem_block_1.thisRepN,Mem_block_1.thisTrialN,Mem_block_1.thisN,Mem_block_1.thisIndex,Mem_block_1.ran
0,18.644,space,18.593,,5ef8e0fc2ce3c6644665e347,6682b41eeb79ab8215dff63d,6682b6e5aeee6ed0cb538ed2,28,Male,English,2024-07-01_07h05.13.452,ABmemTask3,2023.2.3,Win32,60.0240096,,,,,,,,,,,,,,,,,,,,,,,,,,,,,,,,,,,,,,,,,,,,,,,,,,,,,,,,,,,,,,,,,,,,,,,,,,,,,,,,,,,,,,,,,,,,,,,,,,,,,,,,,,,,,,,,,,,,,,,,,,,,,,,,,,,,,,,,,,,,,,,,,,,,,,,,,,,,,,,,,,,,,,,,,,,,,,,,,,,,,,,,,,,,,,,,,,,,,,,,,,,
,,,,,5ef8e0fc2ce3c6644665e347,6682b41eeb79ab8215dff63d,6682b6e5aeee6ed0cb538ed2,28,Male,English,2024-07-01_07h05.13.452,ABmemTask3,2023.2.3,Win32,60.0240096,18.644,19.759,space,1.042,,,,,,,,,,,,,,,,,,,,,,,,,,,,,,,,,,,,,,,,,,,,,,,,,,,,,,,,,,,,,,,,,,,,,,,,,,,,,,,,,,,,,,,,,,,,,,,,,,,,,,,,,,,,,,,,,,,,,,,,,,,,,,,,,,,,,,,,,,,,,,,,,,,,,,,,,,,,,,,,,,,,,,,,,,,,,,,,,,,,,,,,,,,,,,,,,,,,,,,
,,,,,5ef8e0fc2ce3c6644665e347,6682b41eeb79ab8215dff63d,6682b6e5aeee6ed0cb538ed2,28,Male,English,2024-07-01_07h05.13.452,ABmemTask3,2023.2.3,Win32,60.0240096,,,,,,19.759,24.358,space,4.571,,,,,,,,,,,,,,,,,,,,,,,,,,,,,,,,,,,,,,,,,,,,,,,,,,,,,,,,,,,,,,,,,,,,,,,,,,,,,,,,,,,,,,,,,,,,,,,,,,,,,,,,,,,,,,,,,,,,,,,,,,,,,,,,,,,,,,,,,,,,,,,,,,,,,,,,,,,,,,,,,,,,,,,,,,,,,,,,,,,,,,,,,,,,,,,,,,
,,,,,5ef8e0fc2ce3c6644665e347,6682b41eeb79ab8215dff63d,6682b6e5aeee6ed0cb538ed2,28,Male,English,2024-07-01_07h05.13.452,ABmemTask3,2023.2.3,Win32,60.0240096,,,,,,,,,,,24.358,26.873,space,2.485,,,,,,,,,,,,,,,,,,,,,,,,,,,,,,,,,,,,,,,,,,,,,,,,,,,,,,,,,,,,,,,,,,,,,,,,,,,,,,,,,,,,,,,,,,,,,,,,,,,,,,,,,,,,,,,,,,,,,,,,,,,,,,,,,,,,,,,,,,,,,,,,,,,,,,,,,,,,,,,,,,,,,,,,,,,,,,,,,,,,,,,,,,,,,
,,,,,5ef8e0fc2ce3c6644665e347,6682b41eeb79ab8215dff63d,6682b6e5aeee6ed0cb538ed2,28,Male,English,2024-07-01_07h05.13.452,ABmemTask3,2023.2.3,Win32,60.0240096,,,,,,,,,,,,,,,,26.873,29.288,space,2.385,,,,,,,,,,,,,,,,,,,,,,,,,,,,,,,,,,,,,,,,,,,,,,,,,,,,,,,,,,,,,,,,,,,,,,,,,,,,,,,,,,,,,,,,,,,,,,,,,,,,,,,,,,,,,,,,,,,,,,,,,,,,,,,,,,,,,,,,,,,,,,,,,,,,,,,,,,,,,,,,,,,,,,,,,,,,,,,,,,,,,,,,
,,,,,5ef8e0fc2ce3c6644665e347,6682b41eeb79ab8215dff63d,6682b6e5aeee6ed0cb538ed2,28,Male,English,2024-07-01_07h05.13.452,ABmemTask3,2023.2.3,Win32,60.0240096,,,,,,,,,,,,,,,,,,,,,29.288,37.853,space,8.531,,,,,,,,,,,,,,,,,,,,,,,,,,,,,,,,,,,,,,,,,,,,,,,,,,,,,,,,,,,,,,,,,,,,,,,,,,,,,,,,,,,,,,,,,,,,,,,,,,,,,,,,,,,,,,,,,,,,,,,,,,,,,,,,,,,,,,,,,,,,,,,,,,,,,,,,,,,,,,,,,,,,,,,,,,,,,,,,,,,
,,,,,5ef8e0fc2ce3c6644665e347,6682b41eeb79ab8215dff63d,6682b6e5aeee6ed0cb538ed2,28,Male,English,2024-07-01_07h05.13.452,ABmemTask3,2023.2.3,Win32,60.0240096,,,,,,,,,,,,,,,,,,,,,,,,,,37.853,60.645,space,22.744,,,,,,,,,,,,,,,,,,,,,,,,,,,,,,,,,,,,,,,,,,,,,,,,,,,,,,,,,,,,,,,,,,,,,,,,,,,,,,,,,,,,,,,,,,,,,,,,,,,,,,,,,,,,,,,,,,,,,,,,,,,,,,,,,,,,,,,,,,,,,,,,,,,,,,,,,,,,,,,,,,,,,,,,,,,,,,
,,,,,5ef8e0fc2ce3c6644665e347,6682b41eeb79ab8215dff63d,6682b6e5aeee6ed0cb538ed2,28,Male,English,2024-07-01_07h05.13.452,ABmemTask3,2023.2.3,Win32,60.0240096,,,,,,,,,,,,,,,,,,,,,,,,,,,,,,,60.655,61.645,61.645,15,62.144,64.894,0.002,65.143,0.249,0.25,0.251,0.249,0.25,0.249,0.25,0.251,0.249,0.25,0.25,65.143,66.992,right,1.829,,66.993,68.026,left,1.016,,2,0,2,68.026,69.025,0,0,0,0,1,prac_AB,L1_T1P_T2A,1,1,0,6,7,5,5,12,cat,Did you see the cat,0.25,0,resources/,pics/shipinabottle.jpg,pics/table01.jpg,pics/dustpan.jpg,pics/golfball.jpg,pics/giraffe.jpg,pics/cat.jpg,pics/peanut01.jpg,pics/pictureframe04.jpg,pics/fanblades.jpg,pics/laptop01a.jpg,pics/ball02.jpg,pics/blender.jpg,blankImage,blankImage,blankImage,blankImage,blankImage,cat,8,,,,,,,,,,,,,,,,,,,,,,,,,,,,,,,,,,,,,,,,,,,,,,,,,,,,,,,,,,,,,,,,,,,,,,,,,,,,,,,,,,,,,,,,,,,,,,,,,,,,
,,,,,5ef8e0fc2ce3c6644665e347,6682b41eeb79ab8215dff63d,6682b6e5aeee6ed0cb538ed2,28,Male,English,2024-07-01_07h05.13.452,ABmemTask3,2023.2.3,Win32,60.0240096,,,,,,,,,,,,,,,,,,,,,,,,,,,,,,,69.026,70.025,70.025,14,70.525,72.624,0.001,72.857,0.233,0.233,0.233,0.234,0.233,0.233,0.233,0.233,0.233,,,72.857,74.423,right,1.546,,74.423,75.273,right,0.833,,4,0,4,75.273,76.273,0,1,1,1,1,prac_AB,L1_T1P_T2P,1,1,1,5,6,4,4,10,tree,Did you see the tree,0.24,0,resources/,pics/carrot01.jpg,pics/hammerheadshark.jpg,pics/kangaroo.jpg,pics/proboscismonkey.jpg,pics/tree.jpg,pics/stapler07.jpg,pics/siamesecat.jpg,pics/ball02.jpg,pics/pictureframe04.jpg,pics/mummy.jpg,blankImage,blankImage,blankImage,blankImage,blankImage,blankImage,blankImage,tree,1,,,,,,,,,,,,,,,,,,,,,,,,,,,,,,,,,,,,,,,,,,,,,,,,,,,,,,,,,,,,,,,,,,,,,,,,,,,,,,,,,,,,,,,,,,,,,,,,,,,,
,,,,,5ef8e0fc2ce3c6644665e347,6682b41eeb79ab8215dff63d,6682b6e5aeee6ed0cb538ed2,28,Male,English,2024-07-01_07h05.13.452,ABmemTask3,2023.2.3,Win32,60.0240096,,,,,,,,,,,,,,,,,,,,,,,,,,,,,,,76.274,77.272,77.273,14,77.773,80.339,0.002,80.571,0.232,0.233,0.232,0.237,0.23,0.235,0.232,0.234,0.233,0.233,0.233,80.571,81.904,left,1.313,,81.904,82.338,right,0.418,,6,0,6,82.338,83.337,0,2,2,2,1,prac_AB,L1_T1A_T2P,1,0,1,7,8,6,4,12,grapes,Did you see the grapes,0.23,0,resources/,pics/sailboat.jpg,pics/butterfly.jpg,pics/giraffe.jpg,pics/spoon01.jpg,pics/hose.jpg,pics/nutcracker01.jpg,pics/table01.jpg,pics/stapler13.jpg,pics/pencil01.jpg,pics/football.jpg,pics/triangle.jpg,pics/hairdryer02a.jpg,blankImage,blankImage,blankImage,blankImage,blankImage,grape01,6,,,,,,,,,,,,,,,,,,,,,,,,,,,,,,,,,,,,,,,,,,,,,,,,,,,,,,,,,,,,,,,,,,,,,,,,,,,,,,,,,,,,,,,,,,,,,,,,,,,,
,,,,,5ef8e0fc2ce3c6644665e347,6682b41eeb79ab8215dff63d,6682b6e5aeee6ed0cb538ed2,28,Male,English,2024-07-01_07h05.13.452,ABmemTask3,2023.2.3,Win32,60.0240096,,,,,,,,,,,,,,,,,,,,,,,,,,,,,,,83.338,84.337,84.337,13,84.837,87.869,0.004,88.085,0.212,0.218,0.217,0.215,0.217,0.217,0.216,0.217,0.216,0.218,0.215,88.085,89.035,right,0.937,,89.035,89.385,right,0.334,,8,0,8,89.385,90.385,0,3,3,3,1,prac_AB,L5_T1P_T2P,5,1,1,7,12,6,3,15,Human skull,Did you see the Human skull,0.22,0,resources/,pics/peach01.jpg,pics/proboscismonkey.jpg,pics/hose.jpg,pics/laptop01a.jpg,pics/hammerheadshark.jpg,pics/nutcracker01.jpg,pics/humanskull.jpg,pics/table01.jpg,pics/icecube01.jpg,pics/boot02b.jpg,pics/calendar.jpg,pics/stapler03a.jpg,pics/ashtray01.jpg,pics/giraffe.jpg,pics/dromedary.jpg,blankImage,blankImage,humanskull,12,0.217,0.217,0.216,,,,,,,,,,,,,,,,,,,,,,,,,,,,,,,,,,,,,,,,,,,,,,,,,,,,,,,,,,,,,,,,,,,,,,,,,,,,,,,,,,,,,,,,,,,,,,,,,
,,,,,5ef8e0fc2ce3c6644665e347,6682b41eeb79ab8215dff63d,6682b6e5aeee6ed0cb538ed2,28,Male,English,2024-07-01_07h05.13.452,ABmemTask3,2023.2.3,Win32,60.0240096,,,,,,,,,,,,,,,,,,,,,,,,,,,,,,,90.386,91.384,91.384,13,91.884,94.051,0.002,94.266,0.215,0.217,0.216,0.217,0.217,0.217,0.216,0.217,0.217,0.216,,94.266,95.317,left,1.032,,95.317,95.749,right,0.419,,10,0,10,95.749,96.75,0,4,4,4,1,prac_AB,L1_T1A_T2P,1,0,1,7,8,6,3,11,dog,Did you see the dog,0.21,0,resources/,pics/ball02.jpg,pics/binder03b.jpg,pics/dromedary.jpg,pics/shipinabottle.jpg,pics/proboscismonkey.jpg,pics/laptop01a.jpg,pics/chainsaw.jpg,pics/stapler13.jpg,pics/nutcracker01.jpg,pics/carrot01.jpg,pics/calendar.jpg,blankImage,blankImage,blankImage,blankImage,blankImage,blankImage,saintbernard,7,,,,,,,,,,,,,,,,,,,,,,,,,,,,,,,,,,,,,,,,,,,,,,,,,,,,,,,,,,,,,,,,,,,,,,,,,,,,,,,,,,,,,,,,,,,,,,,,,,,,
,,,,,5ef8e0fc2ce3c6644665e347,6682b41eeb79ab8215dff63d,6682b6e5aeee6ed0cb538ed2,28,Male,English,2024-07-01_07h05.13.452,ABmemTask3,2023.2.3,Win32,60.0240096,,,,,,,,,,,,,,,,,,,,,,,,,,,,,,,96.751,97.749,97.749,12,98.249,101.048,0.003,101.248,0.198,0.2,0.199,0.201,0.2,0.199,0.2,0.202,0.199,0.199,0.201,101.248,101.632,right,0.371,,101.632,101.898,right,0.251,,12,0,12,101.898,102.897,0,5,5,5,1,prac_AB,L5_T1P_T2P,5,1,1,5,10,4,5,15,grater,Did you see the grater,0.2,0,resources/,pics/pencil01.jpg,pics/laptop01a.jpg,pics/hammerheadshark.jpg,pics/cork02.jpg,pics/grater01a.jpg,pics/shipinabottle.jpg,pics/binder03b.jpg,pics/dromedary.jpg,pics/pictureframe04.jpg,pics/stapler04b.jpg,pics/fanblades.jpg,pics/aquarium.jpg,pics/hairdryer02a.jpg,pics/lightswitch01.jpg,pics/piggybank.jpg,blankImage,blankImage,grater01a,11,0.199,0.201,0.2,,,,,,,,,,,,,,,,,,,,,,,,,,,,,,,,,,,,,,,,,,,,,,,,,,,,,,,,,,,,,,,,,,,,,,,,,,,,,,,,,,,,,,,,,,,,,,,,,
,,,,,5ef8e0fc2ce3c6644665e347,6682b41eeb79ab8215dff63d,6682b6e5aeee6ed0cb538ed2,28,Male,English,2024-07-01_07h05.13.452,ABmemTask3,2023.2.3,Win32,60.0240096,,,,,,,,,,,,,,,,,,,,,,,,,,,,,,,102.898,103.897,103.897,11,104.397,105.863,0.002,106.046,0.181,0.183,0.184,0.184,0.182,0.184,0.183,0.183,,,,106.047,107.113,right,1.045,,107.113,107.479,left,0.351,,14,0,14,107.479,108.479,0,6,6,6,1,prac_AB,L1_T1P_T2A,1,1,0,4,5,3,4,9,chalk,Did you see the chalk,0.19,0,resources/,pics/necklace.jpg,pics/starfish01.jpg,pics/safetypin.jpg,pics/chalk.jpg,pics/candleholder01.jpg,pics/bowtie.jpg,pics/match.jpg,pics/candle01.jpg,pics/pencilsharpener02a.jpg,blankImage,blankImage,blankImage,blankImage,blankImage,blankImage,blankImage,blankImage,chalk,9,,,,,,,,,,,,,,,,,,,,,,,,,,,,,,,,,,,,,,,,,,,,,,,,,,,,,,,,,,,,,,,,,,,,,,,,,,,,,,,,,,,,,,,,,,,,,,,,,,,,
,,,,,5ef8e0fc2ce3c6644665e347,6682b41eeb79ab8215dff63d,6682b6e5aeee6ed0cb538ed2,28,Male,English,2024-07-01_07h05.13.452,ABmemTask3,2023.2.3,Win32,60.0240096,,,,,,,,,,,,,,,,,,,,,,,,,,,,,,,108.479,109.48,109.481,11,109.978,111.627,0.004,111.811,0.181,0.182,0.184,0.183,0.183,0.183,0.183,0.184,0.182,,,111.811,112.544,right,0.712,,112.544,112.877,right,0.318,,16,0,16,112.877,113.877,0,7,7,7,1,prac_AB,L1_T1P_T2P,1,1,1,5,6,4,4,10,pants,Did you see the pants,0.18,0,resources/,pics/kangaroo.jpg,pics/safetypin.jpg,pics/salmon.jpg,pics/sandbarshark.jpg,pics/pants.jpg,pics/stapler03a.jpg,pics/sink.jpg,pics/calendar.jpg,pics/butterfly.jpg,pics/fanblades.jpg,blankImage,blankImage,blankImage,blankImage,blankImage,blankImage,blankImage,pants,2,,,,,,,,,,,,,,,,,,,,,,,,,,,,,,,,,,,,,,,,,,,,,,,,,,,,,,,,,,,,,,,,,,,,,,,,,,,,,,,,,,,,,,,,,,,,,,,,,,,,
,,,,,5ef8e0fc2ce3c6644665e347,6682b41eeb79ab8215dff63d,6682b6e5aeee6ed0cb538ed2,28,Male,English,2024-07-01_07h05.13.452,ABmemTask3,2023.2.3,Win32,60.0240096,,,,,,,,,,,,,,,,,,,,,,,,,,,,,,,113.878,114.877,114.877,10,115.376,117.709,0.002,117.876,0.165,0.167,0.167,0.166,0.167,0.166,0.167,0.167,0.167,0.166,0.166,117.876,118.591,left,0.697,,118.592,118.859,right,0.25,,18,0,18,118.859,119.858,0,8,8,8,1,prac_AB,L5_T1A_T2P,5,0,1,7,12,6,3,15,shirt,Did you see the shirt,0.17,0,resources/,pics/banjo.jpg,pics/chainsaw.jpg,pics/sailboat.jpg,pics/shipinabottle.jpg,pics/lightswitch01.jpg,pics/starfish01.jpg,pics/hen.jpg,pics/ball02.jpg,pics/bowlingpin.jpg,pics/hammerheadshark.jpg,pics/footballhelmet.jpg,pics/stapler10.jpg,pics/laptop01a.jpg,pics/cannon.jpg,pics/golfball.jpg,blankImage,blankImage,shirt02,13,0.167,0.167,0.167,,,,,,,,,,,,,,,,,,,,,,,,,,,,,,,,,,,,,,,,,,,,,,,,,,,,,,,,,,,,,,,,,,,,,,,,,,,,,,,,,,,,,,,,,,,,,,,,,
,,,,,5ef8e0fc2ce3c6644665e347,6682b41eeb79ab8215dff63d,6682b6e5aeee6ed0cb538ed2,28,Male,English,2024-07-01_07h05.13.452,ABmemTask3,2023.2.3,Win32,60.0240096,,,,,,,,,,,,,,,,,,,,,,,,,,,,,,,119.859,120.858,120.858,10,121.358,123.024,0.002,123.191,0.165,0.166,0.167,0.167,0.166,0.167,0.166,0.167,0.166,0.167,,123.191,124.29,right,1.084,,124.29,124.523,right,0.218,,20,0,20,124.524,125.523,0,9,9,9,1,prac_AB,L1_T1P_T2P,1,1,1,7,8,6,3,11,tongs,Did you see the tongs,0.16,0,resources/,pics/sewingmachine01a.jpg,pics/shovel01.jpg,pics/football.jpg,pics/hen.jpg,pics/banjo.jpg,pics/zebra.jpg,pics/tongs01b.jpg,pics/stapler11.jpg,pics/shipinabottle.jpg,pics/match.jpg,pics/candle01.jpg,blankImage,blankImage,blankImage,blankImage,blankImage,blankImage,tongs01b,5,,,,,,,,,,,,,,,,,,,,,,,,,,,,,,,,,,,,,,,,,,,,,,,,,,,,,,,,,,,,,,,,,,,,,,,,,,,,,,,,,,,,,,,,,,,,,,,,,,,,
,,,,,5ef8e0fc2ce3c6644665e347,6682b41eeb79ab8215dff63d,6682b6e5aeee6ed0cb538ed2,28,Male,English,2024-07-01_07h05.13.452,ABmemTask3,2023.2.3,Win32,60.0240096,,,,,,,,,,,,,,,,,,,,,,,,,,,,,,,125.523,126.522,126.522,9,127.022,128.672,0.004,128.822,0.148,0.148,0.15,0.15,0.151,0.15,0.15,0.15,0.15,0.149,0.15,128.822,129.638,left,0.797,,129.638,129.972,left,0.319,,22,0,22,129.972,130.971,0,10,10,10,1,prac_AB,L1_T1A_T2A,1,0,0,7,8,6,4,12,camera,Did you see the camera,0.15,0,resources/,pics/lightswitch01.jpg,pics/table01.jpg,pics/aquarium.jpg,pics/boot02b.jpg,pics/butterfly.jpg,pics/chainsaw.jpg,pics/binoculars01b.jpg,pics/giraffe.jpg,pics/triangle.jpg,pics/microscope.jpg,pics/mummy.jpg,pics/icecube01.jpg,blankImage,blankImage,blankImage,blankImage,blankImage,camera01a,10,,,,,,,,,,,,,,,,,,,,,,,,,,,,,,,,,,,,,,,,,,,,,,,,,,,,,,,,,,,,,,,,,,,,,,,,,,,,,,,,,,,,,,,,,,,,,,,,,,,,
,,,,,5ef8e0fc2ce3c6644665e347,6682b41eeb79ab8215dff63d,6682b6e5aeee6ed0cb538ed2,28,Male,English,2024-07-01_07h05.13.452,ABmemTask3,2023.2.3,Win32,60.0240096,,,,,,,,,,,,,,,,,,,,,,,,,,,,,,,130.971,131.97,131.97,8,132.471,133.67,0.001,133.803,0.132,0.134,0.134,0.132,0.133,0.133,0.134,0.133,0.133,,,133.803,134.52,right,0.696,,134.52,134.687,right,0.151,,24,0,24,134.687,135.686,0,11,11,11,1,prac_AB,L1_T1P_T2P,1,1,1,6,7,5,3,10,shorts,Did you see the shorts,0.14,0,resources/,pics/snowshoe.jpg,pics/chainsaw.jpg,pics/sailboat.jpg,pics/ball02.jpg,pics/candleholder01.jpg,pics/shorts01.jpg,pics/stapler07.jpg,pics/peach01.jpg,pics/proboscismonkey.jpg,pics/hen.jpg,blankImage,blankImage,blankImage,blankImage,blankImage,blankImage,blankImage,shorts01,4,,,,,,,,,,,,,,,,,,,,,,,,,,,,,,,,,,,,,,,,,,,,,,,,,,,,,,,,,,,,,,,,,,,,,,,,,,,,,,,,,,,,,,,,,,,,,,,,,,,,
,,,,,5ef8e0fc2ce3c6644665e347,6682b41eeb79ab8215dff63d,6682b6e5aeee6ed0cb538ed2,28,Male,English,2024-07-01_07h05.13.452,ABmemTask3,2023.2.3,Win32,60.0240096,,,,,,,,,,,,,,,,,,,,,,,,,,,,,,,135.686,136.686,136.686,8,137.186,138.785,0.001,138.918,0.132,0.134,0.133,0.133,0.133,0.133,0.134,0.134,0.132,0.134,0.133,138.918,139.668,right,0.734,,139.668,139.901,left,0.224,,26,0,26,139.901,140.901,0,12,12,12,1,prac_AB,L5_T1P_T2A,5,1,0,5,10,4,3,13,fish,Did you see the fish,0.13,0,resources/,pics/football.jpg,pics/safetypin.jpg,pics/shovel01.jpg,pics/sink.jpg,pics/holdfast.jpg,pics/nutcracker01.jpg,pics/starfish01.jpg,pics/onion.jpg,pics/footballhelmet.jpg,pics/boot02b.jpg,pics/sewingmachine01a.jpg,pics/kangaroo.jpg,pics/banjo.jpg,blankImage,blankImage,blankImage,blankImage,holdfast,14,0.134,,,,,,,,,,,,,,,,,,,,,,,,,,,,,,,,,,,,,,,,,,,,,,,,,,,,,,,,,,,,,,,,,,,,,,,,,,,,,,,,,,,,,,,,,,,,,,,,,,,
,,,,,5ef8e0fc2ce3c6644665e347,6682b41eeb79ab8215dff63d,6682b6e5aeee6ed0cb538ed2,28,Male,English,2024-07-01_07h05.13.452,ABmemTask3,2023.2.3,Win32,60.0240096,,,,,,,,,,,,,,,,,,,,,,,,,,,,,,,140.901,141.901,141.901,7,142.4,143.45,0.003,143.567,0.115,0.115,0.118,0.116,0.121,0.114,0.115,0.117,0.117,,,143.567,144.417,right,0.833,,144.417,144.85,left,0.416,,26,0,28,144.85,145.849,0,13,13,13,1,prac_AB,L1_T1P_T2P,1,1,1,5,6,4,4,10,fish,Did you see the fish,0.12,0,resources/,pics/butterfly.jpg,pics/banjo.jpg,pics/leaf02a.jpg,pics/dustpan.jpg,pics/sturgeon.jpg,pics/stapler02.jpg,pics/necklace.jpg,pics/shovel01.jpg,pics/starfish01.jpg,pics/chainsaw.jpg,blankImage,blankImage,blankImage,blankImage,blankImage,blankImage,blankImage,sturgeon,3,,,,,,,,,,,,,,,,,,,,,,,,,,,,,,,,,,,,,,,,,,,,,,,,,,,,,,,,,,,,,,,,,,,,,,,,,,,,,,,,,,,,,,,,,,,,,,,,,,,,
,,,,,5ef8e0fc2ce3c6644665e347,6682b41eeb79ab8215dff63d,6682b6e5aeee6ed0cb538ed2,28,Male,English,2024-07-01_07h05.13.452,ABmemTask3,2023.2.3,Win32,60.0240096,,,,,,,,,,,,,,,,,,,,,,,,,,,,,,,,,,,,,,,,,,,,,,,,,,,,,,,,,,,,,,,,,,,,,,,,,,,,,,,,,,,,,,,,,,,,,,,,,,,,,,,,,,,145.85,148.231,space,2.359,,,,,,,,,,,,,,,,,,,,,,,,,,,,,,,,,,,,,,,,,,,,,,,,,,,,,,,,,,,,,,,,,,,,,,,,,,,,,,,,,,,,,,,,,,,,,
,,,,,5ef8e0fc2ce3c6644665e347,6682b41eeb79ab8215dff63d,6682b6e5aeee6ed0cb538ed2,28,Male,English,2024-07-01_07h05.13.452,ABmemTask3,2023.2.3,Win32,60.0240096,,,,,,,,,,,,,,,,,,,,,,,,,,,,,,,,,,,,,,,,,,,,,,,,,,,,,,,,,,,,,,,,,,,,,,,,,,,,,,,,,,,,,,,,,,,,,,,,,,,,,,,,,,,148.238,148.241,,,,,,,,,,,,,,,,,,,,,,,,,,,,,,,,,,,,,,,,,,,,,,,,,,,,,,,,,,,,,,,,,,,,,,,,,,,,,,,,,,,,,,,,,,,,,,,
,,,,,5ef8e0fc2ce3c6644665e347,6682b41eeb79ab8215dff63d,6682b6e5aeee6ed0cb538ed2,28,Male,English,2024-07-01_07h05.13.452,ABmemTask3,2023.2.3,Win32,60.0240096,,,,,,,,,,,,,,,,,,,,,,,,,,,,,,,,,,,,,,,,,,,,,,,,,,,,,,,,,,,,,,,,,,,,,,,,,,,,,,,,,,,,,,,,,,,,,,,,,,,,,,,,,,,148.245,148.245,,,,,,,,,,,,,,,,,,,,,,,,,,,,,,,,,,,,,,,,,,,,,,,,,,,,,,,,,,,,,,,,,,,,,,,,,,,,,,,,,,,,,,,,,,,,,,,
,,,,,5ef8e0fc2ce3c6644665e347,6682b41eeb79ab8215dff63d,6682b6e5aeee6ed0cb538ed2,28,Male,English,2024-07-01_07h05.13.452,ABmemTask3,2023.2.3,Win32,60.0240096,,,,,,,,,,,,,,,,,,,,,,,,,,,,,,,,,,,,,,,,,,,,,,,,,,,,,,,,,,,,,,,,,,,,,,,,,,,,,,,,,,,,,,,,,,,,,,,,,,,,,,,,,,,148.247,148.247,,,,,,,,,,,,,,,,,,,,,,,,,,,,,,,,,,,,,,,,,,,,,,,,,,,,,,,,,,,,,,,,,,,,,,,,,,,,,,,,,,,,,,,,,,,,,,,
,,,,,5ef8e0fc2ce3c6644665e347,6682b41eeb79ab8215dff63d,6682b6e5aeee6ed0cb538ed2,28,Male,English,2024-07-01_07h05.13.452,ABmemTask3,2023.2.3,Win32,60.0240096,,,,,,,,,,,,,,,,,,,,,,,,,,,,,,,,,,,,,,,,,,,,,,,,,,,,,,,,,,,,,,,,,,,,,,,,,,,,,,,,,,,,,,,,,,,,,,,,,,,,,,,,,,,148.249,148.249,,,,,,,,,,,,,,,,,,,,,,,,,,,,,,,,,,,,,,,,,,,,,,,,,,,,,,,,,,,,,,,,,,,,,,,,,,,,,,,,,,,,,,,,,,,,,,,
,,,,,5ef8e0fc2ce3c6644665e347,6682b41eeb79ab8215dff63d,6682b6e5aeee6ed0cb538ed2,28,Male,English,2024-07-01_07h05.13.452,ABmemTask3,2023.2.3,Win32,60.0240096,,,,,,,,,,,,,,,,,,,,,,,,,,,,,,,,,,,,,,,,,,,,,,,,,,,,,,,,,,,,,,,,,,,,,,,,,,,,,,,,,,,,,,,,,,,,,,,,,,,,,,,,,,,148.252,148.253,,,,,,,,,,,,,,,,,,,,,,,,,,,,,,,,,,,,,,,,,,,,,,,,,,,,,,,,,,,,,,,,,,,,,,,,,,,,,,,,,,,,,,,,,,,,,,,
,,,,,5ef8e0fc2ce3c6644665e347,6682b41eeb79ab8215dff63d,6682b6e5aeee6ed0cb538ed2,28,Male,English,2024-07-01_07h05.13.452,ABmemTask3,2023.2.3,Win32,60.0240096,,,,,,,,,,,,,,,,,,,,,,,,,,,,,,,,,,,,,,,,,,,,,,,,,,,,,,,,,,,,,,,,,,,,,,,,,,,,,,,,,,,,,,,,,,,,,,,,,,,,,,,,,,,148.254,148.254,,,,,,,,,,,,,,,,,,,,,,,,,,,,,,,,,,,,,,,,,,,,,,,,,,,,,,,,,,,,,,,,,,,,,,,,,,,,,,,,,,,,,,,,,,,,,,,
,,,,,5ef8e0fc2ce3c6644665e347,6682b41eeb79ab8215dff63d,6682b6e5aeee6ed0cb538ed2,28,Male,English,2024-07-01_07h05.13.452,ABmemTask3,2023.2.3,Win32,60.0240096,,,,,,,,,,,,,,,,,,,,,,,,,,,,,,,,,,,,,,,,,,,,,,,,,,,,,,,,,,,,,,,,,,,,,,,,,,,,,,,,,,,,,,,,,,,,,,,,,,,,,,,,,,,148.257,148.257,,,,,,,,,,,,,,,,,,,,,,,,,,,,,,,,,,,,,,,,,,,,,,,,,,,,,,,,,,,,,,,,,,,,,,,,,,,,,,,,,,,,,,,,,,,,,,,
,,,,,5ef8e0fc2ce3c6644665e347,6682b41eeb79ab8215dff63d,6682b6e5aeee6ed0cb538ed2,28,Male,English,2024-07-01_07h05.13.452,ABmemTask3,2023.2.3,Win32,60.0240096,,,,,,,,,,,,,,,,,,,,,,,,,,,,,,,,,,,,,,,,,,,,,,,,,,,,,,,,,,,,,,,,,,,,,,,,,,,,,,,,,,,,,,,,,,,,,,,,,,,,,,,,,,,148.261,148.261,,,,,,,,,,,,,,,,,,,,,,,,,,,,,,,,,,,,,,,,,,,,,,,,,,,,,,,,,,,,,,,,,,,,,,,,,,,,,,,,,,,,,,,,,,,,,,,
,,,,,5ef8e0fc2ce3c6644665e347,6682b41eeb79ab8215dff63d,6682b6e5aeee6ed0cb538ed2,28,Male,English,2024-07-01_07h05.13.452,ABmemTask3,2023.2.3,Win32,60.0240096,,,,,,,,,,,,,,,,,,,,,,,,,,,,,,,,,,,,,,,,,,,,,,,,,,,,,,,,,,,,,,,,,,,,,,,,,,,,,,,,,,,,,,,,,,,,,,,,,,,,,,,,,,,148.264,148.264,,,,,,,,,,,,,,,,,,,,,,,,,,,,,,,,,,,,,,,,,,,,,,,,,,,,,,,,,,,,,,,,,,,,,,,,,,,,,,,,,,,,,,,,,,,,,,,
,,,,,5ef8e0fc2ce3c6644665e347,6682b41eeb79ab8215dff63d,6682b6e5aeee6ed0cb538ed2,28,Male,English,2024-07-01_07h05.13.452,ABmemTask3,2023.2.3,Win32,60.0240096,,,,,,,,,,,,,,,,,,,,,,,,,,,,,,,,,,,,,,,,,,,,,,,,,,,,,,,,,,,,,,,,,,,,,,,,,,,,,,,,,,,,,,,,,,,,,,,,,,,,,,,,,,,148.267,148.267,,,,,,,,,,,,,,,,,,,,,,,,,,,,,,,,,,,,,,,,,,,,,,,,,,,,,,,,,,,,,,,,,,,,,,,,,,,,,,,,,,,,,,,,,,,,,,,
,,,,,5ef8e0fc2ce3c6644665e347,6682b41eeb79ab8215dff63d,6682b6e5aeee6ed0cb538ed2,28,Male,English,2024-07-01_07h05.13.452,ABmemTask3,2023.2.3,Win32,60.0240096,,,,,,,,,,,,,,,,,,,,,,,,,,,,,,,,,,,,,,,,,,,,,,,,,,,,,,,,,,,,,,,,,,,,,,,,,,,,,,,,,,,,,,,,,,,,,,,,,,,,,,,,,,,148.27,148.27,,,,,,,,,,,,,,,,,,,,,,,,,,,,,,,,,,,,,,,,,,,,,,,,,,,,,,,,,,,,,,,,,,,,,,,,,,,,,,,,,,,,,,,,,,,,,,,
,,,,,5ef8e0fc2ce3c6644665e347,6682b41eeb79ab8215dff63d,6682b6e5aeee6ed0cb538ed2,28,Male,English,2024-07-01_07h05.13.452,ABmemTask3,2023.2.3,Win32,60.0240096,,,,,,,,,,,,,,,,,,,,,,,,,,,,,,,,,,,,,,,,,,,,,,,,,,,,,,,,,,,,,,,,,,,,,,,,,,,,,,,,,,,,,,,,,,,,,,,,,,,,,,,,,,,148.271,148.271,,,,,,,,,,,,,,,,,,,,,,,,,,,,,,,,,,,,,,,,,,,,,,,,,,,,,,,,,,,,,,,,,,,,,,,,,,,,,,,,,,,,,,,,,,,,,,,
,,,,,5ef8e0fc2ce3c6644665e347,6682b41eeb79ab8215dff63d,6682b6e5aeee6ed0cb538ed2,28,Male,English,2024-07-01_07h05.13.452,ABmemTask3,2023.2.3,Win32,60.0240096,,,,,,,,,,,,,,,,,,,,,,,,,,,,,,,,,,,,,,,,,,,,,,,,,,,,,,,,,,,,,,,,,,,,,,,,,,,,,,,,,,,,,,,,,,,,,,,,,,,,,,,,,,,148.273,148.273,,,,,,,,,,,,,,,,,,,,,,,,,,,,,,,,,,,,,,,,,,,,,,,,,,,,,,,,,,,,,,,,,,,,,,,,,,,,,,,,,,,,,,,,,,,,,,,
,,,,,5ef8e0fc2ce3c6644665e347,6682b41eeb79ab8215dff63d,6682b6e5aeee6ed0cb538ed2,28,Male,English,2024-07-01_07h05.13.452,ABmemTask3,2023.2.3,Win32,60.0240096,,,,,,,,,,,,,,,,,,,,,,,,,,,,,,,,,,,,,,,,,,,,,,,,,,,,,,,,,,,,,,,,,,,,,,,,,,,,,,,,,,,,,,,,,,,,,,,,,,,,,,,,,,,148.276,148.276,,,,,,,,,,,,,,,,,,,,,,,,,,,,,,,,,,,,,,,,,,,,,,,,,,,,,,,,,,,,,,,,,,,,,,,,,,,,,,,,,,,,,,,,,,,,,,,
,,,,,5ef8e0fc2ce3c6644665e347,6682b41eeb79ab8215dff63d,6682b6e5aeee6ed0cb538ed2,28,Male,English,2024-07-01_07h05.13.452,ABmemTask3,2023.2.3,Win32,60.0240096,,,,,,,,,,,,,,,,,,,,,,,,,,,,,,,,,,,,,,,,,,,,,,,,,,,,,,,,,,,,,,,,,,,,,,,,,,,,,,,,,,,,,,,,,,,,,,,,,,,,,,,,,,,148.278,148.278,,,,,,,,,,,,,,,,,,,,,,,,,,,,,,,,,,,,,,,,,,,,,,,,,,,,,,,,,,,,,,,,,,,,,,,,,,,,,,,,,,,,,,,,,,,,,,,
,,,,,5ef8e0fc2ce3c6644665e347,6682b41eeb79ab8215dff63d,6682b6e5aeee6ed0cb538ed2,28,Male,English,2024-07-01_07h05.13.452,ABmemTask3,2023.2.3,Win32,60.0240096,,,,,,,,,,,,,,,,,,,,,,,,,,,,,,,,,,,,,,,,,,,,,,,,,,,,,,,,,,,,,,,,,,,,,,,,,,,,,,,,,,,,,,,,,,,,,,,,,,,,,,,,,,,148.279,148.279,,,,,,,,,,,,,,,,,,,,,,,,,,,,,,,,,,,,,,,,,,,,,,,,,,,,,,,,,,,,,,,,,,,,,,,,,,,,,,,,,,,,,,,,,,,,,,,
,,,,,5ef8e0fc2ce3c6644665e347,6682b41eeb79ab8215dff63d,6682b6e5aeee6ed0cb538ed2,28,Male,English,2024-07-01_07h05.13.452,ABmemTask3,2023.2.3,Win32,60.0240096,,,,,,,,,,,,,,,,,,,,,,,,,,,,,,,,,,,,,,,,,,,,,,,,,,,,,,,,,,,,,,,,,,,,,,,,,,,,,,,,,,,,,,,,,,,,,,,,,,,,,,,,,,,148.281,148.281,,,,,,,,,,,,,,,,,,,,,,,,,,,,,,,,,,,,,,,,,,,,,,,,,,,,,,,,,,,,,,,,,,,,,,,,,,,,,,,,,,,,,,,,,,,,,,,
,,,,,5ef8e0fc2ce3c6644665e347,6682b41eeb79ab8215dff63d,6682b6e5aeee6ed0cb538ed2,28,Male,English,2024-07-01_07h05.13.452,ABmemTask3,2023.2.3,Win32,60.0240096,,,,,,,,,,,,,,,,,,,,,,,,,,,,,,,,,,,,,,,,,,,,,,,,,,,,,,,,,,,,,,,,,,,,,,,,,,,,,,,,,,,,,,,,,,,,,,,,,,,,,,,,,,,148.282,148.283,,,,,,,,,,,,,,,,,,,,,,,,,,,,,,,,,,,,,,,,,,,,,,,,,,,,,,,,,,,,,,,,,,,,,,,,,,,,,,,,,,,,,,,,,,,,,,,
,,,,,5ef8e0fc2ce3c6644665e347,6682b41eeb79ab8215dff63d,6682b6e5aeee6ed0cb538ed2,28,Male,English,2024-07-01_07h05.13.452,ABmemTask3,2023.2.3,Win32,60.0240096,,,,,,,,,,,,,,,,,,,,,,,,,,,,,,,,,,,,,,,,,,,,,,,,,,,,,,,,,,,,,,,,,,,,,,,,,,,,,,,,,,,,,,,,,,,,,,,,,,,,,,,,,,,148.284,148.284,,,,,,,,,,,,,,,,,,,,,,,,,,,,,,,,,,,,,,,,,,,,,,,,,,,,,,,,,,,,,,,,,,,,,,,,,,,,,,,,,,,,,,,,,,,,,,,
,,,,,5ef8e0fc2ce3c6644665e347,6682b41eeb79ab8215dff63d,6682b6e5aeee6ed0cb538ed2,28,Male,English,2024-07-01_07h05.13.452,ABmemTask3,2023.2.3,Win32,60.0240096,,,,,,,,,,,,,,,,,,,,,,,,,,,,,,,,,,,,,,,,,,,,,,,,,,,,,,,,,,,,,,,,,,,,,,,,,,,,,,,,,,,,,,,,,,,,,,,,,,,,,,,,,,,148.287,148.287,,,,,,,,,,,,,,,,,,,,,,,,,,,,,,,,,,,,,,,,,,,,,,,,,,,,,,,,,,,,,,,,,,,,,,,,,,,,,,,,,,,,,,,,,,,,,,,
,,,,,5ef8e0fc2ce3c6644665e347,6682b41eeb79ab8215dff63d,6682b6e5aeee6ed0cb538ed2,28,Male,English,2024-07-01_07h05.13.452,ABmemTask3,2023.2.3,Win32,60.0240096,,,,,,,,,,,,,,,,,,,,,,,,,,,,,,,,,,,,,,,,,,,,,,,,,,,,,,,,,,,,,,,,,,,,,,,,,,,,,,,,,,,,,,,,,,,,,,,,,,,,,,,,,,,148.288,148.288,,,,,,,,,,,,,,,,,,,,,,,,,,,,,,,,,,,,,,,,,,,,,,,,,,,,,,,,,,,,,,,,,,,,,,,,,,,,,,,,,,,,,,,,,,,,,,,
,,,,,5ef8e0fc2ce3c6644665e347,6682b41eeb79ab8215dff63d,6682b6e5aeee6ed0cb538ed2,28,Male,English,2024-07-01_07h05.13.452,ABmemTask3,2023.2.3,Win32,60.0240096,,,,,,,,,,,,,,,,,,,,,,,,,,,,,,,,,,,,,,,,,,,,,,,,,,,,,,,,,,,,,,,,,,,,,,,,,,,,,,,,,,,,,,,,,,,,,,,,,,,,,,,,,,,,,,,,148.288,166.109,space,17.785,,,,,,,,,,,,,,,,,,,,,,,,,,,,,,,,,,,,,,,,,,,,,,,,,,,,,,,,,,,,,,,,,,,,,,,,,,,,,,,,,,,,,,,,
,,,,,5ef8e0fc2ce3c6644665e347,6682b41eeb79ab8215dff63d,6682b6e5aeee6ed0cb538ed2,28,Male,English,2024-07-01_07h05.13.452,ABmemTask3,2023.2.3,Win32,60.0240096,,,,,,,,,,,,,,,,,,,,,,,,,,,,,,,,,166.111,600,166.609,,,,,,,,,,,,,,,,,,,,,,,,,,0,,,,,,,,,prac_MEM,old,,,,,,,,,,,10,,,,,,,,,,,,,,,,,,,,,,,,,,,,,,,,,,,166.609,171.124,-3,1,4.48,,171.124,172.123,0,0,0,3,1,4,1,pics/shorts01.jpg,,,,,,,,,,,,,,,,,,,,,,,,,,,,,,,,,,,,,,,,,,,,,,,,,,,,,,,,,,,,,,,,,,,,,,,
,,,,,5ef8e0fc2ce3c6644665e347,6682b41eeb79ab8215dff63d,6682b6e5aeee6ed0cb538ed2,28,Male,English,2024-07-01_07h05.13.452,ABmemTask3,2023.2.3,Win32,60.0240096,,,,,,,,,,,,,,,,,,,,,,,,,,,,,,,,,172.124,600,172.624,,,,,,,,,,,,,,,,,,,,,,,,,,0,,,,,,,,,prac_MEM,old,,,,,,,,,,,10,,,,,,,,,,,,,,,,,,,,,,,,,,,,,,,,,,,172.624,175.708,0,6,3.066,,175.709,176.705,0,1,1,6,1,12,5,pics/humanskull.jpg,,,,,,,,,,,,,,,,,,,,,,,,,,,,,,,,,,,,,,,,,,,,,,,,,,,,,,,,,,,,,,,,,,,,,,,
,,,,,5ef8e0fc2ce3c6644665e347,6682b41eeb79ab8215dff63d,6682b6e5aeee6ed0cb538ed2,28,Male,English,2024-07-01_07h05.13.452,ABmemTask3,2023.2.3,Win32,60.0240096,,,,,,,,,,,,,,,,,,,,,,,,,,,,,,,,,176.708,600,177.205,,,,,,,,,,,,,,,,,,,,,,,,,,0,,,,,,,,,prac_MEM,old,,,,,,,,,,,10,,,,,,,,,,,,,,,,,,,,,,,,,,,,,,,,,,,177.205,178.488,3,6,1.263,,178.489,179.488,0,2,2,0,1,1,1,pics/tree.jpg,,,,,,,,,,,,,,,,,,,,,,,,,,,,,,,,,,,,,,,,,,,,,,,,,,,,,,,,,,,,,,,,,,,,,,,
,,,,,5ef8e0fc2ce3c6644665e347,6682b41eeb79ab8215dff63d,6682b6e5aeee6ed0cb538ed2,28,Male,English,2024-07-01_07h05.13.452,ABmemTask3,2023.2.3,Win32,60.0240096,,,,,,,,,,,,,,,,,,,,,,,,,,,,,,,,,179.489,600,179.988,,,,,,,,,,,,,,,,,,,,,,,,,,0,,,,,,,,,prac_MEM,new,,,,,,,,,,,10,,,,,,,,,,,,,,,,,,,,,,,,,,,,,,,,,,,179.988,181.72,4,3,1.71,,181.72,182.72,0,3,3,8,1,999,999,pics/thread02.jpg,,,,,,,,,,,,,,,,,,,,,,,,,,,,,,,,,,,,,,,,,,,,,,,,,,,,,,,,,,,,,,,,,,,,,,,
,,,,,5ef8e0fc2ce3c6644665e347,6682b41eeb79ab8215dff63d,6682b6e5aeee6ed0cb538ed2,28,Male,English,2024-07-01_07h05.13.452,ABmemTask3,2023.2.3,Win32,60.0240096,,,,,,,,,,,,,,,,,,,,,,,,,,,,,,,,,182.721,600,183.22,,,,,,,,,,,,,,,,,,,,,,,,,,0,,,,,,,,,prac_MEM,old,,,,,,,,,,,10,,,,,,,,,,,,,,,,,,,,,,,,,,,,,,,,,,,183.22,185.069,7,6,1.83,,185.069,186.068,0,4,4,4,1,5,1,pics/tongs01b.jpg,,,,,,,,,,,,,,,,,,,,,,,,,,,,,,,,,,,,,,,,,,,,,,,,,,,,,,,,,,,,,,,,,,,,,,,
,,,,,5ef8e0fc2ce3c6644665e347,6682b41eeb79ab8215dff63d,6682b6e5aeee6ed0cb538ed2,28,Male,English,2024-07-01_07h05.13.452,ABmemTask3,2023.2.3,Win32,60.0240096,,,,,,,,,,,,,,,,,,,,,,,,,,,,,,,,,186.07,600,186.569,,,,,,,,,,,,,,,,,,,,,,,,,,0,,,,,,,,,prac_MEM,old,,,,,,,,,,,10,,,,,,,,,,,,,,,,,,,,,,,,,,,,,,,,,,,186.569,190.768,6,3,4.175,,190.768,191.767,0,5,5,1,1,2,1,pics/pants.jpg,,,,,,,,,,,,,,,,,,,,,,,,,,,,,,,,,,,,,,,,,,,,,,,,,,,,,,,,,,,,,,,,,,,,,,,
,,,,,5ef8e0fc2ce3c6644665e347,6682b41eeb79ab8215dff63d,6682b6e5aeee6ed0cb538ed2,28,Male,English,2024-07-01_07h05.13.452,ABmemTask3,2023.2.3,Win32,60.0240096,,,,,,,,,,,,,,,,,,,,,,,,,,,,,,,,,191.768,600,192.267,,,,,,,,,,,,,,,,,,,,,,,,,,0,,,,,,,,,prac_MEM,new,,,,,,,,,,,10,,,,,,,,,,,,,,,,,,,,,,,,,,,,,,,,,,,192.267,194.233,8,2,1.944,,194.233,195.232,0,6,6,7,1,999,999,pics/cherry01.jpg,,,,,,,,,,,,,,,,,,,,,,,,,,,,,,,,,,,,,,,,,,,,,,,,,,,,,,,,,,,,,,,,,,,,,,,
,,,,,5ef8e0fc2ce3c6644665e347,6682b41eeb79ab8215dff63d,6682b6e5aeee6ed0cb538ed2,28,Male,English,2024-07-01_07h05.13.452,ABmemTask3,2023.2.3,Win32,60.0240096,,,,,,,,,,,,,,,,,,,,,,,,,,,,,,,,,195.232,600,195.732,,,,,,,,,,,,,,,,,,,,,,,,,,0,,,,,,,,,prac_MEM,new,,,,,,,,,,,10,,,,,,,,,,,,,,,,,,,,,,,,,,,,,,,,,,,195.732,197.082,10,2,1.336,,197.082,198.081,0,7,7,9,1,999,999,pics/moth.jpg,,,,,,,,,,,,,,,,,,,,,,,,,,,,,,,,,,,,,,,,,,,,,,,,,,,,,,,,,,,,,,,,,,,,,,,
,,,,,5ef8e0fc2ce3c6644665e347,6682b41eeb79ab8215dff63d,6682b6e5aeee6ed0cb538ed2,28,Male,English,2024-07-01_07h05.13.452,ABmemTask3,2023.2.3,Win32,60.0240096,,,,,,,,,,,,,,,,,,,,,,,,,,,,,,,,,198.081,600,198.581,,,,,,,,,,,,,,,,,,,,,,,,,,0,,,,,,,,,prac_MEM,old,,,,,,,,,,,10,,,,,,,,,,,,,,,,,,,,,,,,,,,,,,,,,,,198.581,200.314,9,3,1.72,,200.314,201.314,0,8,8,5,1,11,5,pics/grater01a.jpg,,,,,,,,,,,,,,,,,,,,,,,,,,,,,,,,,,,,,,,,,,,,,,,,,,,,,,,,,,,,,,,,,,,,,,,
,,,,,5ef8e0fc2ce3c6644665e347,6682b41eeb79ab8215dff63d,6682b6e5aeee6ed0cb538ed2,28,Male,English,2024-07-01_07h05.13.452,ABmemTask3,2023.2.3,Win32,60.0240096,,,,,,,,,,,,,,,,,,,,,,,,,,,,,,,,,201.314,600,201.813,,,,,,,,,,,,,,,,,,,,,,,,,,0,,,,,,,,,prac_MEM,new,,,,,,,,,,,10,,,,,,,,,,,,,,,,,,,,,,,,,,,,,,,,,,,201.813,202.764,10,3,0.93,,202.764,203.764,0,9,9,10,1,999,999,pics/tomato01.jpg,,,,,,,,,,,,,,,,,,,,,,,,,,,,,,,,,,,,,,,,,,,,,,,,,,,,,,,,,,,,,,,,,,,,,,,
,,,,,5ef8e0fc2ce3c6644665e347,6682b41eeb79ab8215dff63d,6682b6e5aeee6ed0cb538ed2,28,Male,English,2024-07-01_07h05.13.452,ABmemTask3,2023.2.3,Win32,60.0240096,,,,,,,,,,,,,,,,,,,,,,,,,,,,,,,,,203.766,600,204.262,,,,,,,,,,,,,,,,,,,,,,,,,,0,,,,,,,,,prac_MEM,old,,,,,,,,,,,10,,,,,,,,,,,,,,,,,,,,,,,,,,,,,,,,,,,204.263,205.763,13,6,1.478,,205.763,206.762,0,10,10,2,1,3,1,pics/sturgeon.jpg,,,,,,,,,,,,,,,,,,,,,,,,,,,,,,,,,,,,,,,,,,,,,,,,,,,,,,,,,,,,,,,,,,,,,,,
,,,,,5ef8e0fc2ce3c6644665e347,6682b41eeb79ab8215dff63d,6682b6e5aeee6ed0cb538ed2,28,Male,English,2024-07-01_07h05.13.452,ABmemTask3,2023.2.3,Win32,60.0240096,,,,,,,,,,,,,,,,,,,,,,,,,,,,,,,,,,,,,,,,,,,,,,,,,,,,,,,,,,,,,,,,,,,,,,,,,,,,,,,,,,,,,,,,,,,,,,,,,,,,,,,,,,,,,,,,,,,,,,,,,,,,,,,,,,,,,206.762,207.978,207.978,207.978,,,,,,,,,,,,,,,,,,,,,,,,,,,,,,,,,,,,,,,,,,,,,,,,,,,,,,,,,,,,,,,,,,,
,,,,,5ef8e0fc2ce3c6644665e347,6682b41eeb79ab8215dff63d,6682b6e5aeee6ed0cb538ed2,28,Male,English,2024-07-01_07h05.13.452,ABmemTask3,2023.2.3,Win32,60.0240096,,,,,,,,,,,,,,,,,,space,18.426,,,,,,,,,,,,,,,,,,,,,,,,,,,,,,,,,,,,,,,,,,,,,,,,,,,,,,,,,,,,,,,,,,,,,,,,,,,,,,,,,,,,,,,,,,,,,,,,,,,,,,,,,,,,,,,,,,,,,,207.978,226.439,,,,,,,,,,,,,,,,,,,,,,,,,,,,,,,,,,,,,,,,,,,,,,,,,,,,,,,,,,,,,,,,,
,,,,,5ef8e0fc2ce3c6644665e347,6682b41eeb79ab8215dff63d,6682b6e5aeee6ed0cb538ed2,28,Male,English,2024-07-01_07h05.13.452,ABmemTask3,2023.2.3,Win32,60.0240096,,,,,,,,,,,,,,,,,,,,,,,,,,,,,,,,,,,,,,,,,,,,,,,,,,,,,,,,,,,,,,,,,,,,,,,,,,,,,,,,,,,,,,,,,,,,,,,,,,,,,,,,,,,,,,,,,,,,,,,,,,,,,,,,,,,,,,,,,,,226.439,236.519,space,10.036,,,,,,,,,,,,,,,,,,,,,,,,,,,,,,,,,,,,,,,,,,,,,,,,,,,,,,,,,,,,,
,,,,,5ef8e0fc2ce3c6644665e347,6682b41eeb79ab8215dff63d,6682b6e5aeee6ed0cb538ed2,28,Male,English,2024-07-01_07h05.13.452,ABmemTask3,2023.2.3,Win32,60.0240096,,,,,,,,,,,,,,,,,,,,,,,,,,,,,,,236.54,237.535,237.535,7,238.035,238.968,0.002,239.084,0.114,0.117,0.116,0.117,0.117,0.116,0.116,0.117,,,,239.084,239.951,right,0.848,,239.951,240.467,left,0.496,,0,0,2,240.467,241.467,,,,,,1_AB,L1_T1P_T2P,1,1,1,5,6,4,3,9,Ant,Did you see the Ant,0.12,0,resources/,pics/kangaroo.jpg,pics/giraffe.jpg,pics/footballhelmet.jpg,pics/onion.jpg,pics/ant.jpg,pics/stapler04b.jpg,pics/banjo.jpg,pics/zebra.jpg,pics/dromedary.jpg,blankImage,blankImage,blankImage,blankImage,blankImage,blankImage,blankImage,blankImage,ant,15,,,,,,,,,,,,,,,,,,,,,,,,,,,,,,,,,,,,,,,,,0,0,0,14,1,,,,,,,,,,,,,,,,,,,,,,,,,,,,,,,,,,,,,,,,,,,,,,,,,,,,,,,
,,,,,5ef8e0fc2ce3c6644665e347,6682b41eeb79ab8215dff63d,6682b6e5aeee6ed0cb538ed2,28,Male,English,2024-07-01_07h05.13.452,ABmemTask3,2023.2.3,Win32,60.0240096,,,,,,,,,,,,,,,,,,,,,,,,,,,,,,,241.468,242.467,242.467,7,242.967,244.133,0.001,244.249,0.115,0.117,0.116,0.117,0.118,0.115,0.118,0.116,0.117,0.116,,244.249,245.115,right,0.85,,245.115,245.366,left,0.242,,0,0,4,245.366,246.365,,,,,,1_AB,L1_T1P_T2P,1,1,1,7,8,6,3,11,pliers,Did you see the pliers,0.12,0,resources/,pics/mummy.jpg,pics/binder03b.jpg,pics/bowtie.jpg,pics/toiletpaper01a.jpg,pics/football.jpg,pics/blender.jpg,pics/needlenosepliers01.jpg,pics/stapler13.jpg,pics/zebra.jpg,pics/hammerheadshark.jpg,pics/sealion.jpg,blankImage,blankImage,blankImage,blankImage,blankImage,blankImage,needlenosepliers01,6,,,,,,,,,,,,,,,,,,,,,,,,,,,,,,,,,,,,,,,,,0,1,1,5,1,,,,,,,,,,,,,,,,,,,,,,,,,,,,,,,,,,,,,,,,,,,,,,,,,,,,,,,
,,,,,5ef8e0fc2ce3c6644665e347,6682b41eeb79ab8215dff63d,6682b6e5aeee6ed0cb538ed2,28,Male,English,2024-07-01_07h05.13.452,ABmemTask3,2023.2.3,Win32,60.0240096,,,,,,,,,,,,,,,,,,,,,,,,,,,,,,,246.366,247.365,247.365,7,247.865,249.381,0.001,249.498,0.115,0.117,0.116,0.118,0.116,0.117,0.116,0.118,0.116,0.117,0.116,249.498,250.547,left,1.029,,250.547,250.864,left,0.302,,0,0,6,250.864,251.864,,,,,,1_AB,L5_T1A_T2P,5,0,1,4,9,3,5,14,lemon,Did you see the lemon,0.12,0,resources/,pics/seaturtle.jpg,pics/lightswitch01.jpg,pics/candle01.jpg,pics/cannon.jpg,pics/seagull.jpg,pics/spoon01.jpg,pics/spiderweb.jpg,pics/sewingmachine01a.jpg,pics/stapler05.jpg,pics/binoculars01b.jpg,pics/zebra.jpg,pics/sealion.jpg,pics/shovel01.jpg,pics/wheel01.jpg,blankImage,blankImage,blankImage,lemon02,56,0.117,0.117,,,,,,,,,,,,,,,,,,,,,,,,,,,,,,,,,,,,,,,0,2,2,55,1,,,,,,,,,,,,,,,,,,,,,,,,,,,,,,,,,,,,,,,,,,,,,,,,,,,,,,,
,,,,,5ef8e0fc2ce3c6644665e347,6682b41eeb79ab8215dff63d,6682b6e5aeee6ed0cb538ed2,28,Male,English,2024-07-01_07h05.13.452,ABmemTask3,2023.2.3,Win32,60.0240096,,,,,,,,,,,,,,,,,,,,,,,,,,,,,,,251.864,252.864,252.864,7,253.363,254.647,0.001,254.762,0.115,0.117,0.117,0.116,0.118,0.116,0.117,0.116,0.117,0.116,0.117,254.763,255.329,right,0.547,,255.329,255.795,left,0.457,,0,0,8,255.796,256.795,,,,,,1_AB,L1_T1P_T2P,1,1,1,7,8,6,4,12,hammer,Did you see the hammer,0.12,0,resources/,pics/microscope.jpg,pics/blender.jpg,pics/dustpan.jpg,pics/snowshoe.jpg,pics/mummy.jpg,pics/bowtie.jpg,pics/hammer01.jpg,pics/stapler04b.jpg,pics/seaturtle.jpg,pics/candle01.jpg,pics/necklace.jpg,pics/cannon.jpg,blankImage,blankImage,blankImage,blankImage,blankImage,hammer01,21,,,,,,,,,,,,,,,,,,,,,,,,,,,,,,,,,,,,,,,,,0,3,3,20,1,,,,,,,,,,,,,,,,,,,,,,,,,,,,,,,,,,,,,,,,,,,,,,,,,,,,,,,
,,,,,5ef8e0fc2ce3c6644665e347,6682b41eeb79ab8215dff63d,6682b6e5aeee6ed0cb538ed2,28,Male,English,2024-07-01_07h05.13.452,ABmemTask3,2023.2.3,Win32,60.0240096,,,,,,,,,,,,,,,,,,,,,,,,,,,,,,,256.796,257.795,257.795,7,258.294,259.578,0.002,259.694,0.115,0.117,0.117,0.116,0.118,0.115,0.118,0.116,0.116,0.117,0.118,259.694,260.91,left,1.196,,260.91,261.11,right,0.184,,2,0,10,261.11,262.11,,,,,,1_AB,L5_T1A_T2P,5,0,1,4,9,3,3,12,rooster,Did you see the rooster,0.12,0,resources/,pics/table01.jpg,pics/icecube01.jpg,pics/dustpan.jpg,pics/lock03a.jpg,pics/sailboat.jpg,pics/salmon.jpg,pics/banjo.jpg,pics/zebra.jpg,pics/stapler09.jpg,pics/peach01.jpg,pics/chainsaw.jpg,pics/football.jpg,blankImage,blankImage,blankImage,blankImage,blankImage,rooster,55,,,,,,,,,,,,,,,,,,,,,,,,,,,,,,,,,,,,,,,,,0,4,4,54,1,,,,,,,,,,,,,,,,,,,,,,,,,,,,,,,,,,,,,,,,,,,,,,,,,,,,,,,
,,,,,5ef8e0fc2ce3c6644665e347,6682b41eeb79ab8215dff63d,6682b6e5aeee6ed0cb538ed2,28,Male,English,2024-07-01_07h05.13.452,ABmemTask3,2023.2.3,Win32,60.0240096,,,,,,,,,,,,,,,,,,,,,,,,,,,,,,,262.11,263.109,263.109,7,263.609,265.125,0.003,265.242,0.114,0.116,0.117,0.117,0.117,0.117,0.115,0.117,0.117,0.116,0.118,265.242,266.109,right,0.848,,266.11,266.309,left,0.184,,4,0,12,266.309,267.308,,,,,,1_AB,L5_T1P_T2A,5,1,0,6,11,5,3,14,Kiwi,Did you see the Kiwi,0.12,0,resources/,pics/candleholder01.jpg,pics/kangaroo.jpg,pics/banjo.jpg,pics/binoculars01b.jpg,pics/microscope.jpg,pics/kiwi03.jpg,pics/bowtie.jpg,pics/peanut01.jpg,pics/backpack01a.jpg,pics/zebra.jpg,pics/toiletpaper01a.jpg,pics/hen.jpg,pics/spoon01.jpg,pics/calendar.jpg,blankImage,blankImage,blankImage,kiwi03,59,0.117,0.115,,,,,,,,,,,,,,,,,,,,,,,,,,,,,,,,,,,,,,,0,5,5,58,1,,,,,,,,,,,,,,,,,,,,,,,,,,,,,,,,,,,,,,,,,,,,,,,,,,,,,,,
,,,,,5ef8e0fc2ce3c6644665e347,6682b41eeb79ab8215dff63d,6682b6e5aeee6ed0cb538ed2,28,Male,English,2024-07-01_07h05.13.452,ABmemTask3,2023.2.3,Win32,60.0240096,,,,,,,,,,,,,,,,,,,,,,,,,,,,,,,267.312,268.308,268.308,7,268.807,269.741,0.004,269.857,0.113,0.118,0.116,0.117,0.117,0.116,0.116,0.117,,,,269.857,270.707,right,0.83,,270.707,270.923,left,0.201,,4,0,14,270.924,271.923,,,,,,1_AB,L1_T1P_T2P,1,1,1,5,6,4,3,9,cabbage,Did you see the cabbage,0.12,0,resources/,pics/match.jpg,pics/icecube01.jpg,pics/noparkingsign.jpg,pics/christmaslights.jpg,pics/cabbage.jpg,pics/stapler03a.jpg,pics/carrot01.jpg,pics/dustpan.jpg,pics/cannon.jpg,blankImage,blankImage,blankImage,blankImage,blankImage,blankImage,blankImage,blankImage,cabbage,14,,,,,,,,,,,,,,,,,,,,,,,,,,,,,,,,,,,,,,,,,0,6,6,13,1,,,,,,,,,,,,,,,,,,,,,,,,,,,,,,,,,,,,,,,,,,,,,,,,,,,,,,,
,,,,,5ef8e0fc2ce3c6644665e347,6682b41eeb79ab8215dff63d,6682b6e5aeee6ed0cb538ed2,28,Male,English,2024-07-01_07h05.13.452,ABmemTask3,2023.2.3,Win32,60.0240096,,,,,,,,,,,,,,,,,,,,,,,,,,,,,,,271.924,272.923,272.923,7,273.423,274.822,0.002,274.939,0.115,0.116,0.118,0.116,0.117,0.116,0.117,0.116,0.117,0.117,0.116,274.94,275.805,left,0.845,,275.805,275.905,right,0.09,,2,0,16,275.905,276.904,,,,,,1_AB,L1_T1A_T2A,1,0,0,7,8,6,5,13,fan,Did you see the fan,0.12,0,resources/,pics/leaf02a.jpg,pics/dustpan.jpg,pics/pencil01.jpg,pics/kangaroo.jpg,pics/golfball.jpg,pics/lightswitch01.jpg,pics/nutcracker01.jpg,pics/calendar.jpg,pics/hose.jpg,pics/starfish01.jpg,pics/siamesecat.jpg,pics/bowlingpin.jpg,pics/necklace.jpg,blankImage,blankImage,blankImage,blankImage,fan,42,0.117,,,,,,,,,,,,,,,,,,,,,,,,,,,,,,,,,,,,,,,,0,7,7,41,1,,,,,,,,,,,,,,,,,,,,,,,,,,,,,,,,,,,,,,,,,,,,,,,,,,,,,,,
,,,,,5ef8e0fc2ce3c6644665e347,6682b41eeb79ab8215dff63d,6682b6e5aeee6ed0cb538ed2,28,Male,English,2024-07-01_07h05.13.452,ABmemTask3,2023.2.3,Win32,60.0240096,,,,,,,,,,,,,,,,,,,,,,,,,,,,,,,276.905,277.905,277.905,7,278.404,279.571,0.002,279.687,0.115,0.118,0.115,0.117,0.117,0.117,0.117,0.116,0.117,0.116,,279.688,280.52,left,0.816,,280.52,281.087,right,0.551,,0,0,18,281.087,282.086,,,,,,1_AB,L1_T1A_T2A,1,0,0,7,8,6,3,11,Poker chips,Did you see the Poker chips,0.12,0,resources/,pics/candle01.jpg,pics/proboscismonkey.jpg,pics/fanblades.jpg,pics/dromedary.jpg,pics/aquarium.jpg,pics/salmon.jpg,pics/hose.jpg,pics/kangaroo.jpg,pics/noparkingsign.jpg,pics/carrot01.jpg,pics/leaf02a.jpg,blankImage,blankImage,blankImage,blankImage,blankImage,blankImage,pokerchips,41,,,,,,,,,,,,,,,,,,,,,,,,,,,,,,,,,,,,,,,,,0,8,8,40,1,,,,,,,,,,,,,,,,,,,,,,,,,,,,,,,,,,,,,,,,,,,,,,,,,,,,,,,
,,,,,5ef8e0fc2ce3c6644665e347,6682b41eeb79ab8215dff63d,6682b6e5aeee6ed0cb538ed2,28,Male,English,2024-07-01_07h05.13.452,ABmemTask3,2023.2.3,Win32,60.0240096,,,,,,,,,,,,,,,,,,,,,,,,,,,,,,,282.086,283.086,283.086,7,283.586,284.986,0.002,285.102,0.115,0.117,0.117,0.116,0.117,0.116,0.117,0.117,0.116,0.117,0.116,285.102,285.568,right,0.448,,285.568,285.786,right,0.201,,2,0,20,285.786,286.785,,,,,,1_AB,L5_T1P_T2P,5,1,1,4,9,3,4,13,Forklift,Did you see the Forklift,0.12,0,resources/,pics/dustpan.jpg,pics/table01.jpg,pics/sink.jpg,pics/forklift.jpg,pics/dromedary.jpg,pics/proboscismonkey.jpg,pics/cymbal.jpg,pics/shovel01.jpg,pics/stapler10.jpg,pics/backpack01a.jpg,pics/binder03b.jpg,pics/banjo.jpg,pics/candleholder01.jpg,blankImage,blankImage,blankImage,blankImage,forklift,47,0.117,,,,,,,,,,,,,,,,,,,,,,,,,,,,,,,,,,,,,,,,0,9,9,46,1,,,,,,,,,,,,,,,,,,,,,,,,,,,,,,,,,,,,,,,,,,,,,,,,,,,,,,,
,,,,,5ef8e0fc2ce3c6644665e347,6682b41eeb79ab8215dff63d,6682b6e5aeee6ed0cb538ed2,28,Male,English,2024-07-01_07h05.13.452,ABmemTask3,2023.2.3,Win32,60.0240096,,,,,,,,,,,,,,,,,,,,,,,,,,,,,,,286.786,287.785,287.785,7,288.284,289.567,0.002,289.683,0.115,0.117,0.117,0.117,0.116,0.117,0.116,0.117,0.116,0.117,0.117,289.683,290.134,right,0.439,,290.134,290.434,right,0.286,,4,0,22,290.434,291.433,,,,,,1_AB,L1_T1P_T2P,1,1,1,6,7,5,5,12,rope,Did you see the rope,0.12,0,resources/,pics/toiletpaper01a.jpg,pics/sewingmachine01a.jpg,pics/birdhouse.jpg,pics/sealion.jpg,pics/safetypin.jpg,pics/rope03.jpg,pics/stapler04.jpg,pics/binder03b.jpg,pics/ashtray01.jpg,pics/sandbarshark.jpg,pics/chainsaw.jpg,pics/nutcracker01.jpg,blankImage,blankImage,blankImage,blankImage,blankImage,rope03,4,,,,,,,,,,,,,,,,,,,,,,,,,,,,,,,,,,,,,,,,,0,10,10,3,1,,,,,,,,,,,,,,,,,,,,,,,,,,,,,,,,,,,,,,,,,,,,,,,,,,,,,,,
,,,,,5ef8e0fc2ce3c6644665e347,6682b41eeb79ab8215dff63d,6682b6e5aeee6ed0cb538ed2,28,Male,English,2024-07-01_07h05.13.452,ABmemTask3,2023.2.3,Win32,60.0240096,,,,,,,,,,,,,,,,,,,,,,,,,,,,,,,291.433,292.433,292.433,7,292.933,294.1,0.002,294.216,0.115,0.116,0.117,0.117,0.117,0.116,0.117,0.116,0.117,0.117,,294.216,295.165,left,0.937,,295.165,295.415,left,0.241,,4,0,24,295.415,296.415,,,,,,1_AB,L1_T1A_T2P,1,0,1,5,6,4,5,11,Recorder,Did you see the Recorder,0.12,0,resources/,pics/bowtie.jpg,pics/nutcracker01.jpg,pics/hairdryer02a.jpg,pics/shovel01.jpg,pics/onion.jpg,pics/stapler13.jpg,pics/safetypin.jpg,pics/spiderweb.jpg,pics/seagull.jpg,pics/dustpan.jpg,pics/icecube01.jpg,blankImage,blankImage,blankImage,blankImage,blankImage,blankImage,recorder04,28,,,,,,,,,,,,,,,,,,,,,,,,,,,,,,,,,,,,,,,,,0,11,11,27,1,,,,,,,,,,,,,,,,,,,,,,,,,,,,,,,,,,,,,,,,,,,,,,,,,,,,,,,
,,,,,5ef8e0fc2ce3c6644665e347,6682b41eeb79ab8215dff63d,6682b6e5aeee6ed0cb538ed2,28,Male,English,2024-07-01_07h05.13.452,ABmemTask3,2023.2.3,Win32,60.0240096,,,,,,,,,,,,,,,,,,,,,,,,,,,,,,,296.418,297.415,297.415,7,297.914,298.848,0.005,298.964,0.113,0.116,0.118,0.115,0.117,0.117,0.116,0.117,,,,298.964,299.481,right,0.507,,299.481,299.681,right,0.183,,6,0,26,299.681,300.681,,,,,,1_AB,L1_T1P_T2P,1,1,1,4,5,3,4,9,antenna,Did you see the antenna,0.12,0,resources/,pics/microscope.jpg,pics/spoon01.jpg,pics/dromedary.jpg,pics/antenna.jpg,pics/stapler03.jpg,pics/hen.jpg,pics/leaf02a.jpg,pics/candle01.jpg,pics/sealion.jpg,blankImage,blankImage,blankImage,blankImage,blankImage,blankImage,blankImage,blankImage,antenna,9,,,,,,,,,,,,,,,,,,,,,,,,,,,,,,,,,,,,,,,,,0,12,12,8,1,,,,,,,,,,,,,,,,,,,,,,,,,,,,,,,,,,,,,,,,,,,,,,,,,,,,,,,
,,,,,5ef8e0fc2ce3c6644665e347,6682b41eeb79ab8215dff63d,6682b6e5aeee6ed0cb538ed2,28,Male,English,2024-07-01_07h05.13.452,ABmemTask3,2023.2.3,Win32,60.0240096,,,,,,,,,,,,,,,,,,,,,,,,,,,,,,,300.683,301.679,301.68,7,302.179,303.229,0.002,303.346,0.116,0.117,0.116,0.116,0.119,0.115,0.118,0.115,0.116,,,303.346,304.362,left,0.995,,304.362,304.496,right,0.121,,8,0,28,304.496,305.495,,,,,,1_AB,L1_T1A_T2P,1,0,1,5,6,4,4,10,button,Did you see the button,0.12,0,resources/,pics/pencil01.jpg,pics/necklace.jpg,pics/sink.jpg,pics/noparkingsign.jpg,pics/banjo.jpg,pics/stapler03b.jpg,pics/candle01.jpg,pics/icecube01.jpg,pics/shovel01.jpg,pics/pencilsharpener02a.jpg,blankImage,blankImage,blankImage,blankImage,blankImage,blankImage,blankImage,button01,25,,,,,,,,,,,,,,,,,,,,,,,,,,,,,,,,,,,,,,,,,0,13,13,24,1,,,,,,,,,,,,,,,,,,,,,,,,,,,,,,,,,,,,,,,,,,,,,,,,,,,,,,,
,,,,,5ef8e0fc2ce3c6644665e347,6682b41eeb79ab8215dff63d,6682b6e5aeee6ed0cb538ed2,28,Male,English,2024-07-01_07h05.13.452,ABmemTask3,2023.2.3,Win32,60.0240096,,,,,,,,,,,,,,,,,,,,,,,,,,,,,,,305.497,306.495,306.495,7,306.995,307.928,0.002,308.044,0.115,0.117,0.115,0.118,0.116,0.117,0.117,0.117,,,,308.044,309.061,left,0.994,,309.061,309.378,left,0.299,,6,0,30,309.378,310.377,,,,,,1_AB,L1_T1P_T2P,1,1,1,5,6,4,3,9,paint brush,Did you see the paint brush,0.12,0,resources/,pics/nutcracker01.jpg,pics/piggybank.jpg,pics/spiderweb.jpg,pics/table01.jpg,pics/paintbrush01.jpg,pics/stapler09.jpg,pics/hose.jpg,pics/cannon.jpg,pics/mummy.jpg,blankImage,blankImage,blankImage,blankImage,blankImage,blankImage,blankImage,blankImage,paintbrush01,20,,,,,,,,,,,,,,,,,,,,,,,,,,,,,,,,,,,,,,,,,0,14,14,19,1,,,,,,,,,,,,,,,,,,,,,,,,,,,,,,,,,,,,,,,,,,,,,,,,,,,,,,,
,,,,,5ef8e0fc2ce3c6644665e347,6682b41eeb79ab8215dff63d,6682b6e5aeee6ed0cb538ed2,28,Male,English,2024-07-01_07h05.13.452,ABmemTask3,2023.2.3,Win32,60.0240096,,,,,,,,,,,,,,,,,,,,,,,,,,,,,,,310.378,311.376,311.376,7,311.876,313.043,0.002,313.159,0.115,0.116,0.117,0.117,0.117,0.117,0.116,0.117,0.116,0.117,,313.159,314.009,left,0.831,,314.009,314.392,left,0.367,,6,0,32,314.392,315.392,,,,,,1_AB,L1_T1P_T2A,1,1,0,6,7,5,4,11,lamp,Did you see the lamp,0.12,0,resources/,pics/chainsaw.jpg,pics/fanblades.jpg,pics/salmon.jpg,pics/proboscismonkey.jpg,pics/boot02b.jpg,pics/lamp04a.jpg,pics/blender.jpg,pics/sink.jpg,pics/pencil01.jpg,pics/floortile02.jpg,pics/shovel01.jpg,blankImage,blankImage,blankImage,blankImage,blankImage,blankImage,lamp04a,37,,,,,,,,,,,,,,,,,,,,,,,,,,,,,,,,,,,,,,,,,0,15,15,36,1,,,,,,,,,,,,,,,,,,,,,,,,,,,,,,,,,,,,,,,,,,,,,,,,,,,,,,,
,,,,,5ef8e0fc2ce3c6644665e347,6682b41eeb79ab8215dff63d,6682b6e5aeee6ed0cb538ed2,28,Male,English,2024-07-01_07h05.13.452,ABmemTask3,2023.2.3,Win32,60.0240096,,,,,,,,,,,,,,,,,,,,,,,,,,,,,,,315.393,316.391,316.391,7,316.891,318.408,0.002,318.525,0.116,0.116,0.116,0.117,0.117,0.117,0.116,0.117,0.116,0.117,0.117,318.525,319.04,right,0.501,,319.04,319.291,right,0.232,,8,0,34,319.291,320.29,,,,,,1_AB,L5_T1P_T2P,5,1,1,6,11,5,3,14,truck,Did you see the truck,0.12,0,resources/,pics/calendar.jpg,pics/mummy.jpg,pics/ashtray01.jpg,pics/pencilsharpener02a.jpg,pics/dustpan.jpg,pics/boxtruck.jpg,pics/lightswitch01.jpg,pics/pictureframe04.jpg,pics/starfish01.jpg,pics/zebra.jpg,pics/stapler12.jpg,pics/bowtie.jpg,pics/candleholder01.jpg,pics/candle01.jpg,blankImage,blankImage,blankImage,boxtruck,50,0.117,0.116,,,,,,,,,,,,,,,,,,,,,,,,,,,,,,,,,,,,,,,0,16,16,49,1,,,,,,,,,,,,,,,,,,,,,,,,,,,,,,,,,,,,,,,,,,,,,,,,,,,,,,,
,,,,,5ef8e0fc2ce3c6644665e347,6682b41eeb79ab8215dff63d,6682b6e5aeee6ed0cb538ed2,28,Male,English,2024-07-01_07h05.13.452,ABmemTask3,2023.2.3,Win32,60.0240096,,,,,,,,,,,,,,,,,,,,,,,,,,,,,,,320.29,321.29,321.29,7,321.79,323.19,0.001,323.306,0.116,0.116,0.117,0.117,0.117,0.116,0.117,0.117,0.117,0.116,0.116,323.306,324.856,left,1.527,,324.856,325.288,right,0.419,,10,0,36,325.288,326.288,,,,,,1_AB,L1_T1A_T2P,1,0,1,7,8,6,5,13,Basketball,Did you see the Basketball,0.12,0,resources/,pics/cork02.jpg,pics/table01.jpg,pics/christmaslights.jpg,pics/nutcracker01.jpg,pics/golfball.jpg,pics/hammerheadshark.jpg,pics/seaturtle.jpg,pics/stapler04b.jpg,pics/lock03a.jpg,pics/snowshoe.jpg,pics/sewingmachine01a.jpg,pics/peach01.jpg,pics/hose.jpg,blankImage,blankImage,blankImage,blankImage,basketball01,24,0.117,,,,,,,,,,,,,,,,,,,,,,,,,,,,,,,,,,,,,,,,0,17,17,23,1,,,,,,,,,,,,,,,,,,,,,,,,,,,,,,,,,,,,,,,,,,,,,,,,,,,,,,,
,,,,,5ef8e0fc2ce3c6644665e347,6682b41eeb79ab8215dff63d,6682b6e5aeee6ed0cb538ed2,28,Male,English,2024-07-01_07h05.13.452,ABmemTask3,2023.2.3,Win32,60.0240096,,,,,,,,,,,,,,,,,,,,,,,,,,,,,,,326.288,327.289,327.29,7,327.788,329.187,0.006,329.304,0.111,0.117,0.116,0.117,0.116,0.117,0.116,0.117,0.116,0.118,0.116,329.304,329.638,right,0.314,,329.638,329.804,right,0.148,,12,0,38,329.804,330.804,,,,,,1_AB,L1_T1P_T2P,1,1,1,7,8,6,5,13,strawberry,Did you see the strawberry,0.12,0,resources/,pics/sealion.jpg,pics/backpack01a.jpg,pics/binoculars01b.jpg,pics/ball02.jpg,pics/proboscismonkey.jpg,pics/pictureframe04.jpg,pics/strawberry.jpg,pics/stapler12.jpg,pics/seaturtle.jpg,pics/dustpan.jpg,pics/bowlingpin.jpg,pics/hammerheadshark.jpg,pics/hen.jpg,blankImage,blankImage,blankImage,blankImage,strawberry,10,0.117,,,,,,,,,,,,,,,,,,,,,,,,,,,,,,,,,,,,,,,,0,18,18,9,1,,,,,,,,,,,,,,,,,,,,,,,,,,,,,,,,,,,,,,,,,,,,,,,,,,,,,,,
,,,,,5ef8e0fc2ce3c6644665e347,6682b41eeb79ab8215dff63d,6682b6e5aeee6ed0cb538ed2,28,Male,English,2024-07-01_07h05.13.452,ABmemTask3,2023.2.3,Win32,60.0240096,,,,,,,,,,,,,,,,,,,,,,,,,,,,,,,330.804,331.803,331.803,7,332.303,333.353,0.002,333.469,0.114,0.118,0.116,0.117,0.116,0.117,0.116,0.117,0.117,,,333.469,334.153,right,0.671,,334.153,334.319,right,0.149,,14,0,40,334.319,335.318,,,,,,1_AB,L1_T1P_T2P,1,1,1,4,5,3,5,10,vacuum,Did you see the vacuum,0.12,0,resources/,pics/birdhouse.jpg,pics/floortile02.jpg,pics/toiletpaper01a.jpg,pics/vacuumcleaner01.jpg,pics/stapler02.jpg,pics/spoon01.jpg,pics/banjo.jpg,pics/binder03b.jpg,pics/leaf02a.jpg,pics/aquarium.jpg,blankImage,blankImage,blankImage,blankImage,blankImage,blankImage,blankImage,vacuumcleaner01,5,,,,,,,,,,,,,,,,,,,,,,,,,,,,,,,,,,,,,,,,,0,19,19,4,1,,,,,,,,,,,,,,,,,,,,,,,,,,,,,,,,,,,,,,,,,,,,,,,,,,,,,,,
,,,,,5ef8e0fc2ce3c6644665e347,6682b41eeb79ab8215dff63d,6682b6e5aeee6ed0cb538ed2,28,Male,English,2024-07-01_07h05.13.452,ABmemTask3,2023.2.3,Win32,60.0240096,,,,,,,,,,,,,,,,,,,,,,,,,,,,,,,335.32,336.318,336.318,7,336.818,337.984,0.002,338.101,0.115,0.116,0.118,0.116,0.117,0.116,0.117,0.116,0.118,0.115,,338.101,338.534,right,0.419,,338.534,338.684,right,0.134,,16,0,42,338.684,339.684,,,,,,1_AB,L1_T1P_T2P,1,1,1,7,8,6,3,11,toothpick,Did you see the toothpick,0.12,0,resources/,pics/candleholder01.jpg,pics/blender.jpg,pics/siamesecat.jpg,pics/peanut01.jpg,pics/spiderweb.jpg,pics/football.jpg,pics/toothpick02.jpg,pics/stapler04b.jpg,pics/seagull.jpg,pics/pictureframe04.jpg,pics/shipinabottle.jpg,blankImage,blankImage,blankImage,blankImage,blankImage,blankImage,toothpick02,17,,,,,,,,,,,,,,,,,,,,,,,,,,,,,,,,,,,,,,,,,0,20,20,16,1,,,,,,,,,,,,,,,,,,,,,,,,,,,,,,,,,,,,,,,,,,,,,,,,,,,,,,,
,,,,,5ef8e0fc2ce3c6644665e347,6682b41eeb79ab8215dff63d,6682b6e5aeee6ed0cb538ed2,28,Male,English,2024-07-01_07h05.13.452,ABmemTask3,2023.2.3,Win32,60.0240096,,,,,,,,,,,,,,,,,,,,,,,,,,,,,,,339.684,340.683,340.683,7,341.183,342.116,0.002,342.232,0.115,0.117,0.117,0.117,0.115,0.117,0.117,0.116,,,,342.232,343.249,left,0.997,,343.249,343.433,right,0.173,,18,0,44,343.433,344.432,,,,,,1_AB,L1_T1A_T2P,1,0,1,5,6,4,3,9,Trailer,Did you see the Trailer,0.12,0,resources/,pics/pencil01.jpg,pics/football.jpg,pics/hairdryer02a.jpg,pics/wheel01.jpg,pics/chainsaw.jpg,pics/stapler10.jpg,pics/peanut01.jpg,pics/triangle.jpg,pics/sink.jpg,blankImage,blankImage,blankImage,blankImage,blankImage,blankImage,blankImage,blankImage,boxtrailer,29,,,,,,,,,,,,,,,,,,,,,,,,,,,,,,,,,,,,,,,,,0,21,21,28,1,,,,,,,,,,,,,,,,,,,,,,,,,,,,,,,,,,,,,,,,,,,,,,,,,,,,,,,
,,,,,5ef8e0fc2ce3c6644665e347,6682b41eeb79ab8215dff63d,6682b6e5aeee6ed0cb538ed2,28,Male,English,2024-07-01_07h05.13.452,ABmemTask3,2023.2.3,Win32,60.0240096,,,,,,,,,,,,,,,,,,,,,,,,,,,,,,,344.433,345.432,345.432,7,345.932,347.448,0.002,347.564,0.115,0.116,0.117,0.117,0.116,0.117,0.116,0.116,0.118,0.116,0.117,347.564,348.381,right,0.795,,348.381,348.53,left,0.137,,18,0,46,348.53,349.53,,,,,,1_AB,L5_T1P_T2P,5,1,1,4,9,3,5,14,pliers,Did you see the pliers,0.12,0,resources/,pics/calendar.jpg,pics/footballhelmet.jpg,pics/seaturtle.jpg,pics/pliers02b.jpg,pics/wheel01.jpg,pics/cannon.jpg,pics/proboscismonkey.jpg,pics/shovel01.jpg,pics/stapler06.jpg,pics/football.jpg,pics/hose.jpg,pics/dustpan.jpg,pics/spiderweb.jpg,pics/golfball.jpg,blankImage,blankImage,blankImage,pliers02b,48,0.116,0.117,,,,,,,,,,,,,,,,,,,,,,,,,,,,,,,,,,,,,,,0,22,22,47,1,,,,,,,,,,,,,,,,,,,,,,,,,,,,,,,,,,,,,,,,,,,,,,,,,,,,,,,
,,,,,5ef8e0fc2ce3c6644665e347,6682b41eeb79ab8215dff63d,6682b6e5aeee6ed0cb538ed2,28,Male,English,2024-07-01_07h05.13.452,ABmemTask3,2023.2.3,Win32,60.0240096,,,,,,,,,,,,,,,,,,,,,,,,,,,,,,,349.531,350.53,350.53,7,351.03,352.197,0.001,352.313,0.115,0.118,0.116,0.117,0.116,0.117,0.117,0.117,0.116,0.117,,352.313,353.129,left,0.796,,353.129,353.412,left,0.272,,18,0,48,353.412,354.412,,,,,,1_AB,L1_T1A_T2P,1,0,1,7,8,6,3,11,turkey,Did you see the turkey,0.12,0,resources/,pics/proboscismonkey.jpg,pics/blender.jpg,pics/sealion.jpg,pics/snowshoe.jpg,pics/carrot01.jpg,pics/microscope.jpg,pics/piggybank.jpg,pics/stapler12.jpg,pics/peanut01.jpg,pics/dustpan.jpg,pics/footballhelmet.jpg,blankImage,blankImage,blankImage,blankImage,blankImage,blankImage,turkey,26,,,,,,,,,,,,,,,,,,,,,,,,,,,,,,,,,,,,,,,,,0,23,23,25,1,,,,,,,,,,,,,,,,,,,,,,,,,,,,,,,,,,,,,,,,,,,,,,,,,,,,,,,
,,,,,5ef8e0fc2ce3c6644665e347,6682b41eeb79ab8215dff63d,6682b6e5aeee6ed0cb538ed2,28,Male,English,2024-07-01_07h05.13.452,ABmemTask3,2023.2.3,Win32,60.0240096,,,,,,,,,,,,,,,,,,,,,,,,,,,,,,,354.413,355.411,355.411,7,355.911,357.545,0.002,357.661,0.116,0.116,0.117,0.116,0.117,0.117,0.116,0.117,0.116,0.117,0.116,357.661,358.111,right,0.434,,358.111,358.311,right,0.184,,20,0,50,358.311,359.311,,,,,,1_AB,L5_T1P_T2P,5,1,1,6,11,5,4,15,toast,Did you see the toast,0.12,0,resources/,pics/piggybank.jpg,pics/leaf02a.jpg,pics/carrot01.jpg,pics/birdhouse.jpg,pics/bowlingpin.jpg,pics/toast.jpg,pics/spiderweb.jpg,pics/cork02.jpg,pics/sink.jpg,pics/nutcracker01.jpg,pics/stapler02.jpg,pics/ashtray01.jpg,pics/fanblades.jpg,pics/pencil01.jpg,pics/lightswitch01.jpg,blankImage,blankImage,toast,46,0.117,0.121,0.113,,,,,,,,,,,,,,,,,,,,,,,,,,,,,,,,,,,,,,0,24,24,45,1,,,,,,,,,,,,,,,,,,,,,,,,,,,,,,,,,,,,,,,,,,,,,,,,,,,,,,,
,,,,,5ef8e0fc2ce3c6644665e347,6682b41eeb79ab8215dff63d,6682b6e5aeee6ed0cb538ed2,28,Male,English,2024-07-01_07h05.13.452,ABmemTask3,2023.2.3,Win32,60.0240096,,,,,,,,,,,,,,,,,,,,,,,,,,,,,,,359.314,360.309,360.309,7,360.81,362.326,0.005,362.442,0.112,0.117,0.116,0.117,0.116,0.117,0.117,0.117,0.116,0.116,0.118,362.442,362.892,right,0.43,,362.892,363.092,right,0.183,,22,0,52,363.092,364.092,,,,,,1_AB,L5_T1P_T2P,5,1,1,5,10,4,4,14,Fox,Did you see the Fox,0.12,0,resources/,pics/hammerheadshark.jpg,pics/bowlingpin.jpg,pics/pictureframe04.jpg,pics/peanut01.jpg,pics/redfox.jpg,pics/cymbal.jpg,pics/spoon01.jpg,pics/banjo.jpg,pics/butterfly.jpg,pics/stapler11.jpg,pics/football.jpg,pics/safetypin.jpg,pics/triangle.jpg,pics/onion.jpg,blankImage,blankImage,blankImage,redfox,45,0.115,0.117,,,,,,,,,,,,,,,,,,,,,,,,,,,,,,,,,,,,,,,0,25,25,44,1,,,,,,,,,,,,,,,,,,,,,,,,,,,,,,,,,,,,,,,,,,,,,,,,,,,,,,,
,,,,,5ef8e0fc2ce3c6644665e347,6682b41eeb79ab8215dff63d,6682b6e5aeee6ed0cb538ed2,28,Male,English,2024-07-01_07h05.13.452,ABmemTask3,2023.2.3,Win32,60.0240096,,,,,,,,,,,,,,,,,,,,,,,,,,,,,,,364.092,365.091,365.091,7,365.592,366.759,0.001,366.874,0.115,0.117,0.117,0.117,0.116,0.117,0.116,0.117,0.116,0.118,,366.874,367.358,right,0.469,,367.358,367.54,right,0.174,,24,0,54,367.542,368.54,,,,,,1_AB,L1_T1P_T2P,1,1,1,7,8,6,3,11,sock,Did you see the sock,0.12,0,resources/,pics/hen.jpg,pics/christmaslights.jpg,pics/salmon.jpg,pics/sealion.jpg,pics/seaturtle.jpg,pics/giraffe.jpg,pics/athleticsock.jpg,pics/stapler01.jpg,pics/shovel01.jpg,pics/leaf02a.jpg,pics/backpack01a.jpg,blankImage,blankImage,blankImage,blankImage,blankImage,blankImage,athleticsock,11,,,,,,,,,,,,,,,,,,,,,,,,,,,,,,,,,,,,,,,,,0,26,26,10,1,,,,,,,,,,,,,,,,,,,,,,,,,,,,,,,,,,,,,,,,,,,,,,,,,,,,,,,
,,,,,5ef8e0fc2ce3c6644665e347,6682b41eeb79ab8215dff63d,6682b6e5aeee6ed0cb538ed2,28,Male,English,2024-07-01_07h05.13.452,ABmemTask3,2023.2.3,Win32,60.0240096,,,,,,,,,,,,,,,,,,,,,,,,,,,,,,,368.542,369.54,369.54,7,370.04,371.323,0.003,371.44,0.114,0.117,0.116,0.117,0.118,0.115,0.117,0.116,0.116,0.117,0.118,371.44,371.873,right,0.421,,371.873,372.073,right,0.19,,26,0,56,372.073,373.072,,,,,,1_AB,L5_T1P_T2P,5,1,1,4,9,3,3,12,Sheep,Did you see the Sheep,0.12,0,resources/,pics/icecube01.jpg,pics/cymbal.jpg,pics/wheel01.jpg,pics/sheep.jpg,pics/starfish01.jpg,pics/safetypin.jpg,pics/siamesecat.jpg,pics/lock03a.jpg,pics/stapler01.jpg,pics/sink.jpg,pics/fanblades.jpg,pics/bowlingpin.jpg,blankImage,blankImage,blankImage,blankImage,blankImage,sheep,52,,,,,,,,,,,,,,,,,,,,,,,,,,,,,,,,,,,,,,,,,0,27,27,51,1,,,,,,,,,,,,,,,,,,,,,,,,,,,,,,,,,,,,,,,,,,,,,,,,,,,,,,,
,,,,,5ef8e0fc2ce3c6644665e347,6682b41eeb79ab8215dff63d,6682b6e5aeee6ed0cb538ed2,28,Male,English,2024-07-01_07h05.13.452,ABmemTask3,2023.2.3,Win32,60.0240096,,,,,,,,,,,,,,,,,,,,,,,,,,,,,,,373.072,374.071,374.071,7,374.572,376.438,0.001,376.554,0.116,0.116,0.117,0.117,0.117,0.116,0.116,0.118,0.116,0.117,0.117,376.554,377.787,left,1.218,,377.787,378.103,right,0.307,,24,0,58,378.104,379.104,,,,,,1_AB,L5_T1A_T2A,5,0,0,7,12,6,5,17,Bib,Did you see the Bib,0.12,0,resources/,pics/hammerheadshark.jpg,pics/wheel01.jpg,pics/binder03b.jpg,pics/hairdryer02a.jpg,pics/christmaslights.jpg,pics/sandbarshark.jpg,pics/binoculars01b.jpg,pics/piggybank.jpg,pics/aquarium.jpg,pics/candleholder01.jpg,pics/sink.jpg,pics/calendar.jpg,pics/birdhouse.jpg,pics/bowtie.jpg,pics/onion.jpg,pics/golfball.jpg,pics/sailboat.jpg,bib,62,0.116,0.116,0.117,,,,,,,,,,,,,,,,,,,,,,,,,,,,,,,,,,,,,,0,28,28,61,1,0.117,0.117,,,,,,,,,,,,,,,,,,,,,,,,,,,,,,,,,,,,,,,,,,,,,,,,,,,,,
,,,,,5ef8e0fc2ce3c6644665e347,6682b41eeb79ab8215dff63d,6682b6e5aeee6ed0cb538ed2,28,Male,English,2024-07-01_07h05.13.452,ABmemTask3,2023.2.3,Win32,60.0240096,,,,,,,,,,,,,,,,,,,,,,,,,,,,,,,379.104,380.103,380.103,7,380.603,382.12,0.002,382.236,0.115,0.117,0.116,0.117,0.116,0.118,0.116,0.116,0.117,0.117,0.116,382.236,382.536,right,0.283,,382.536,382.719,right,0.173,,26,0,60,382.719,383.719,,,,,,1_AB,L5_T1P_T2P,5,1,1,4,9,3,5,14,asparagus,Did you see the asparagus,0.12,0,resources/,pics/siamesecat.jpg,pics/starfish01.jpg,pics/aquarium.jpg,pics/asparagus.jpg,pics/salmon.jpg,pics/binoculars01b.jpg,pics/ball02.jpg,pics/calendar.jpg,pics/stapler10.jpg,pics/giraffe.jpg,pics/dromedary.jpg,pics/seaturtle.jpg,pics/sandbarshark.jpg,pics/shipinabottle.jpg,blankImage,blankImage,blankImage,asparagus,44,0.117,0.117,,,,,,,,,,,,,,,,,,,,,,,,,,,,,,,,,,,,,,,0,29,29,43,1,,,,,,,,,,,,,,,,,,,,,,,,,,,,,,,,,,,,,,,,,,,,,,,,,,,,,,,
,,,,,5ef8e0fc2ce3c6644665e347,6682b41eeb79ab8215dff63d,6682b6e5aeee6ed0cb538ed2,28,Male,English,2024-07-01_07h05.13.452,ABmemTask3,2023.2.3,Win32,60.0240096,,,,,,,,,,,,,,,,,,,,,,,,,,,,,,,383.719,384.719,384.719,7,385.218,386.734,0.001,386.851,0.116,0.117,0.117,0.116,0.116,0.117,0.117,0.116,0.117,0.117,0.116,386.851,387.735,left,0.863,,387.735,387.835,right,0.085,,26,0,62,387.835,388.833,,,,,,1_AB,L5_T1P_T2P,5,1,1,6,11,5,3,14,mail box,Did you see the mail box,0.12,0,resources/,pics/pictureframe04.jpg,pics/seaturtle.jpg,pics/blender.jpg,pics/carrot01.jpg,pics/nutcracker01.jpg,pics/mailbox02.jpg,pics/seagull.jpg,pics/sink.jpg,pics/siamesecat.jpg,pics/spiderweb.jpg,pics/stapler08.jpg,pics/safetypin.jpg,pics/candle01.jpg,pics/mummy.jpg,blankImage,blankImage,blankImage,mailbox02,43,0.118,0.115,,,,,,,,,,,,,,,,,,,,,,,,,,,,,,,,,,,,,,,0,30,30,42,1,,,,,,,,,,,,,,,,,,,,,,,,,,,,,,,,,,,,,,,,,,,,,,,,,,,,,,,
,,,,,5ef8e0fc2ce3c6644665e347,6682b41eeb79ab8215dff63d,6682b6e5aeee6ed0cb538ed2,28,Male,English,2024-07-01_07h05.13.452,ABmemTask3,2023.2.3,Win32,60.0240096,,,,,,,,,,,,,,,,,,,,,,,,,,,,,,,388.836,389.834,389.834,7,390.333,391.966,0.007,392.082,0.11,0.117,0.117,0.116,0.117,0.117,0.116,0.117,0.116,0.116,0.117,392.082,393,left,0.9,,393,393.149,right,0.132,,28,0,64,393.149,394.149,,,,,,1_AB,L5_T1A_T2P,5,0,1,5,10,4,5,15,scorpion,Did you see the scorpion,0.12,0,resources/,pics/pictureframe04.jpg,pics/binder03b.jpg,pics/pencil01.jpg,pics/leaf02a.jpg,pics/icecube01.jpg,pics/dromedary.jpg,pics/toiletpaper01a.jpg,pics/peanut01.jpg,pics/golfball.jpg,pics/stapler03.jpg,pics/carrot01.jpg,pics/peach01.jpg,pics/sealion.jpg,pics/football.jpg,pics/zebra.jpg,blankImage,blankImage,scorpion,54,0.117,0.117,0.116,,,,,,,,,,,,,,,,,,,,,,,,,,,,,,,,,,,,,,0,31,31,53,1,,,,,,,,,,,,,,,,,,,,,,,,,,,,,,,,,,,,,,,,,,,,,,,,,,,,,,,
,,,,,5ef8e0fc2ce3c6644665e347,6682b41eeb79ab8215dff63d,6682b6e5aeee6ed0cb538ed2,28,Male,English,2024-07-01_07h05.13.452,ABmemTask3,2023.2.3,Win32,60.0240096,,,,,,,,,,,,,,,,,,,,,,,,,,,,,,,394.149,395.149,395.149,7,395.648,396.931,0.001,397.048,0.115,0.118,0.116,0.117,0.117,0.117,0.116,0.116,0.117,0.116,0.117,397.048,397.615,right,0.546,,397.615,398.38,right,0.752,,30,0,66,398.381,399.38,,,,,,1_AB,L1_T1P_T2P,1,1,1,6,7,5,5,12,Bear,Did you see the Bear,0.12,0,resources/,pics/necklace.jpg,pics/hen.jpg,pics/dromedary.jpg,pics/piggybank.jpg,pics/sandbarshark.jpg,pics/grizzly.jpg,pics/stapler12.jpg,pics/bowlingpin.jpg,pics/christmaslights.jpg,pics/icecube01.jpg,pics/match.jpg,pics/lock03a.jpg,blankImage,blankImage,blankImage,blankImage,blankImage,grizzly,18,,,,,,,,,,,,,,,,,,,,,,,,,,,,,,,,,,,,,,,,,0,32,32,17,1,,,,,,,,,,,,,,,,,,,,,,,,,,,,,,,,,,,,,,,,,,,,,,,,,,,,,,,
,,,,,5ef8e0fc2ce3c6644665e347,6682b41eeb79ab8215dff63d,6682b6e5aeee6ed0cb538ed2,28,Male,English,2024-07-01_07h05.13.452,ABmemTask3,2023.2.3,Win32,60.0240096,,,,,,,,,,,,,,,,,,,,,,,,,,,,,,,399.38,400.38,400.38,7,400.88,402.162,0.002,402.279,0.115,0.116,0.117,0.117,0.117,0.116,0.117,0.116,0.117,0.116,0.117,402.279,403.245,right,0.946,,403.245,403.412,right,0.153,,32,0,68,403.412,404.412,,,,,,1_AB,L1_T1P_T2P,1,1,1,7,8,6,4,12,Turnstile,Did you see the Turnstile,0.12,0,resources/,pics/golfball.jpg,pics/hose.jpg,pics/siamesecat.jpg,pics/binoculars01b.jpg,pics/hen.jpg,pics/candleholder01.jpg,pics/turnstile.jpg,pics/stapler03a.jpg,pics/giraffe.jpg,pics/pictureframe04.jpg,pics/sandbarshark.jpg,pics/spoon01.jpg,blankImage,blankImage,blankImage,blankImage,blankImage,turnstile,13,,,,,,,,,,,,,,,,,,,,,,,,,,,,,,,,,,,,,,,,,0,33,33,12,1,,,,,,,,,,,,,,,,,,,,,,,,,,,,,,,,,,,,,,,,,,,,,,,,,,,,,,,
,,,,,5ef8e0fc2ce3c6644665e347,6682b41eeb79ab8215dff63d,6682b6e5aeee6ed0cb538ed2,28,Male,English,2024-07-01_07h05.13.452,ABmemTask3,2023.2.3,Win32,60.0240096,,,,,,,,,,,,,,,,,,,,,,,,,,,,,,,404.412,405.411,405.411,7,405.912,407.427,0.001,407.544,0.115,0.117,0.117,0.116,0.117,0.117,0.117,0.116,0.116,0.117,0.117,407.544,408.477,right,0.912,,408.477,408.611,left,0.12,,34,0,70,408.611,409.61,,,,,,1_AB,L5_T1P_T2A,5,1,0,4,9,3,5,14,Frisbee,Did you see the Frisbee,0.12,0,resources/,pics/giraffe.jpg,pics/christmaslights.jpg,pics/bowtie.jpg,pics/frisbee.jpg,pics/banjo.jpg,pics/calendar.jpg,pics/butterfly.jpg,pics/onion.jpg,pics/starfish01.jpg,pics/footballhelmet.jpg,pics/blender.jpg,pics/candleholder01.jpg,pics/hairdryer02a.jpg,pics/dromedary.jpg,blankImage,blankImage,blankImage,frisbee,58,0.116,0.117,,,,,,,,,,,,,,,,,,,,,,,,,,,,,,,,,,,,,,,0,34,34,57,1,,,,,,,,,,,,,,,,,,,,,,,,,,,,,,,,,,,,,,,,,,,,,,,,,,,,,,,
,,,,,5ef8e0fc2ce3c6644665e347,6682b41eeb79ab8215dff63d,6682b6e5aeee6ed0cb538ed2,28,Male,English,2024-07-01_07h05.13.452,ABmemTask3,2023.2.3,Win32,60.0240096,,,,,,,,,,,,,,,,,,,,,,,,,,,,,,,409.61,410.609,410.609,7,411.109,412.276,0.002,412.392,0.116,0.116,0.117,0.117,0.116,0.117,0.116,0.117,0.116,0.117,,412.392,413.358,right,0.948,,413.358,413.525,right,0.15,,32,0,72,413.525,414.525,,,,,,1_AB,L1_T1P_T2A,1,1,0,7,8,6,3,11,Spear,Did you see the Spear,0.12,0,resources/,pics/butterfly.jpg,pics/banjo.jpg,pics/chainsaw.jpg,pics/christmaslights.jpg,pics/dustpan.jpg,pics/shovel01.jpg,pics/spear02.jpg,pics/table01.jpg,pics/starfish01.jpg,pics/bowlingpin.jpg,pics/carrot01.jpg,blankImage,blankImage,blankImage,blankImage,blankImage,blankImage,spear02,39,,,,,,,,,,,,,,,,,,,,,,,,,,,,,,,,,,,,,,,,,0,35,35,38,1,,,,,,,,,,,,,,,,,,,,,,,,,,,,,,,,,,,,,,,,,,,,,,,,,,,,,,,
,,,,,5ef8e0fc2ce3c6644665e347,6682b41eeb79ab8215dff63d,6682b6e5aeee6ed0cb538ed2,28,Male,English,2024-07-01_07h05.13.452,ABmemTask3,2023.2.3,Win32,60.0240096,,,,,,,,,,,,,,,,,,,,,,,,,,,,,,,414.526,415.525,415.525,7,416.024,417.774,0.001,417.89,0.117,0.116,0.116,0.118,0.116,0.116,0.118,0.116,0.117,0.116,0.117,417.89,419.007,right,1.099,,419.007,419.807,left,0.784,,34,0,74,419.807,420.806,,,,,,1_AB,L5_T1P_T2A,5,1,0,6,11,5,5,16,belt,Did you see the belt,0.12,0,resources/,pics/banjo.jpg,pics/birdhouse.jpg,pics/spoon01.jpg,pics/table01.jpg,pics/candle01.jpg,pics/belt02a.jpg,pics/peach01.jpg,pics/chainsaw.jpg,pics/toiletpaper01a.jpg,pics/proboscismonkey.jpg,pics/cymbal.jpg,pics/binoculars01b.jpg,pics/cannon.jpg,pics/noparkingsign.jpg,pics/sailboat.jpg,pics/carrot01.jpg,blankImage,belt02a,61,0.117,0.117,0.116,,,,,,,,,,,,,,,,,,,,,,,,,,,,,,,,,,,,,,0,36,36,60,1,0.116,,,,,,,,,,,,,,,,,,,,,,,,,,,,,,,,,,,,,,,,,,,,,,,,,,,,,,
,,,,,5ef8e0fc2ce3c6644665e347,6682b41eeb79ab8215dff63d,6682b6e5aeee6ed0cb538ed2,28,Male,English,2024-07-01_07h05.13.452,ABmemTask3,2023.2.3,Win32,60.0240096,,,,,,,,,,,,,,,,,,,,,,,,,,,,,,,420.812,421.805,421.805,7,422.306,423.355,0.003,423.472,0.114,0.117,0.116,0.117,0.116,0.117,0.116,0.118,0.116,,,423.472,424.621,right,1.133,,424.621,424.888,right,0.253,,32,0,76,424.888,425.888,,,,,,1_AB,L1_T1P_T2A,1,1,0,6,7,5,3,10,Duct tape,Did you see the Duct tape,0.12,0,resources/,pics/butterfly.jpg,pics/noparkingsign.jpg,pics/pictureframe04.jpg,pics/cork02.jpg,pics/fanblades.jpg,pics/ducttape.jpg,pics/icecube01.jpg,pics/siamesecat.jpg,pics/sink.jpg,pics/sandbarshark.jpg,blankImage,blankImage,blankImage,blankImage,blankImage,blankImage,blankImage,ducttape,36,,,,,,,,,,,,,,,,,,,,,,,,,,,,,,,,,,,,,,,,,0,37,37,35,1,,,,,,,,,,,,,,,,,,,,,,,,,,,,,,,,,,,,,,,,,,,,,,,,,,,,,,,
,,,,,5ef8e0fc2ce3c6644665e347,6682b41eeb79ab8215dff63d,6682b6e5aeee6ed0cb538ed2,28,Male,English,2024-07-01_07h05.13.452,ABmemTask3,2023.2.3,Win32,60.0240096,,,,,,,,,,,,,,,,,,,,,,,,,,,,,,,425.888,426.887,426.887,7,427.388,428.437,0.002,428.554,0.115,0.116,0.117,0.117,0.116,0.116,0.117,0.117,0.116,,,428.554,429.687,right,1.113,,429.687,430.336,left,0.634,,28,0,78,430.337,431.336,,,,,,1_AB,L1_T1A_T2P,1,0,1,5,6,4,4,10,Rabbit,Did you see the Rabbit,0.12,0,resources/,pics/cannon.jpg,pics/proboscismonkey.jpg,pics/salmon.jpg,pics/nutcracker01.jpg,pics/seagull.jpg,pics/stapler02.jpg,pics/table01.jpg,pics/laptop01a.jpg,pics/necklace.jpg,pics/pencilsharpener02a.jpg,blankImage,blankImage,blankImage,blankImage,blankImage,blankImage,blankImage,jackrabbit,31,,,,,,,,,,,,,,,,,,,,,,,,,,,,,,,,,,,,,,,,,0,38,38,30,1,,,,,,,,,,,,,,,,,,,,,,,,,,,,,,,,,,,,,,,,,,,,,,,,,,,,,,,
,,,,,5ef8e0fc2ce3c6644665e347,6682b41eeb79ab8215dff63d,6682b6e5aeee6ed0cb538ed2,28,Male,English,2024-07-01_07h05.13.452,ABmemTask3,2023.2.3,Win32,60.0240096,,,,,,,,,,,,,,,,,,,,,,,,,,,,,,,431.337,432.336,432.336,7,432.835,434.469,0.002,434.584,0.115,0.117,0.117,0.116,0.116,0.118,0.116,0.117,0.117,0.116,0.116,434.585,434.884,right,0.289,,434.885,435.068,right,0.173,,30,0,80,435.068,436.068,,,,,,1_AB,L5_T1P_T2P,5,1,1,5,10,4,5,15,dolphin,Did you see the dolphin,0.12,0,resources/,pics/banjo.jpg,pics/shipinabottle.jpg,pics/laptop01a.jpg,pics/onion.jpg,pics/dolphin01.jpg,pics/sink.jpg,pics/seaturtle.jpg,pics/butterfly.jpg,pics/hen.jpg,pics/stapler10.jpg,pics/proboscismonkey.jpg,pics/starfish01.jpg,pics/salmon.jpg,pics/spiderweb.jpg,pics/cymbal.jpg,blankImage,blankImage,dolphin01,49,0.118,0.116,0.117,,,,,,,,,,,,,,,,,,,,,,,,,,,,,,,,,,,,,,0,39,39,48,1,,,,,,,,,,,,,,,,,,,,,,,,,,,,,,,,,,,,,,,,,,,,,,,,,,,,,,,
,,,,,5ef8e0fc2ce3c6644665e347,6682b41eeb79ab8215dff63d,6682b6e5aeee6ed0cb538ed2,28,Male,English,2024-07-01_07h05.13.452,ABmemTask3,2023.2.3,Win32,60.0240096,,,,,,,,,,,,,,,,,,,,,,,,,,,,,,,436.068,437.067,437.067,7,437.567,439.317,0.001,439.433,0.115,0.118,0.116,0.118,0.115,0.118,0.117,0.116,0.116,0.117,0.116,439.433,440.782,left,1.334,,440.782,441.432,right,0.633,,26,0,82,441.433,442.432,,,,,,1_AB,L5_T1P_T2A,5,1,0,7,12,6,4,16,boat,Did you see the boat,0.12,0,resources/,pics/butterfly.jpg,pics/onion.jpg,pics/hose.jpg,pics/ball02.jpg,pics/ashtray01.jpg,pics/bowtie.jpg,pics/boat.jpg,pics/seaturtle.jpg,pics/blender.jpg,pics/zebra.jpg,pics/pictureframe04.jpg,pics/shovel01.jpg,pics/spoon01.jpg,pics/peanut01.jpg,pics/nutcracker01.jpg,pics/aquarium.jpg,blankImage,boat,60,0.117,0.116,0.118,,,,,,,,,,,,,,,,,,,,,,,,,,,,,,,,,,,,,,0,40,40,59,1,0.116,,,,,,,,,,,,,,,,,,,,,,,,,,,,,,,,,,,,,,,,,,,,,,,,,,,,,,
,,,,,5ef8e0fc2ce3c6644665e347,6682b41eeb79ab8215dff63d,6682b6e5aeee6ed0cb538ed2,28,Male,English,2024-07-01_07h05.13.452,ABmemTask3,2023.2.3,Win32,60.0240096,,,,,,,,,,,,,,,,,,,,,,,,,,,,,,,442.433,443.432,443.432,7,443.932,444.981,0.003,445.098,0.115,0.116,0.117,0.116,0.117,0.118,0.115,0.117,0.116,,,445.098,445.914,left,0.801,,445.914,446.647,right,0.724,,22,0,84,446.647,447.647,,,,,,1_AB,L1_T1P_T2A,1,1,0,6,7,5,3,10,Electric toothbrush,Did you see the Electric toothbrush,0.12,0,resources/,pics/football.jpg,pics/sailboat.jpg,pics/cymbal.jpg,pics/hen.jpg,pics/pencil01.jpg,pics/electrictoothbrush01c.jpg,pics/bowlingpin.jpg,pics/wheel01.jpg,pics/birdhouse.jpg,pics/leaf02a.jpg,blankImage,blankImage,blankImage,blankImage,blankImage,blankImage,blankImage,electrictoothbrush01c,34,,,,,,,,,,,,,,,,,,,,,,,,,,,,,,,,,,,,,,,,,0,41,41,33,1,,,,,,,,,,,,,,,,,,,,,,,,,,,,,,,,,,,,,,,,,,,,,,,,,,,,,,,
,,,,,5ef8e0fc2ce3c6644665e347,6682b41eeb79ab8215dff63d,6682b6e5aeee6ed0cb538ed2,28,Male,English,2024-07-01_07h05.13.452,ABmemTask3,2023.2.3,Win32,60.0240096,,,,,,,,,,,,,,,,,,,,,,,,,,,,,,,447.648,448.646,448.647,7,449.146,450.313,0.002,450.43,0.115,0.117,0.117,0.117,0.116,0.117,0.116,0.117,0.117,0.116,,450.43,451.229,right,0.784,,451.229,451.813,left,0.567,,22,0,86,451.813,452.812,,,,,,1_AB,L1_T1P_T2P,1,1,1,7,8,6,3,11,medal,Did you see the medal,0.12,0,resources/,pics/hen.jpg,pics/starfish01.jpg,pics/nutcracker01.jpg,pics/ball02.jpg,pics/fanblades.jpg,pics/christmaslights.jpg,pics/medal02b.jpg,pics/stapler09.jpg,pics/carrot01.jpg,pics/hammerheadshark.jpg,pics/sailboat.jpg,blankImage,blankImage,blankImage,blankImage,blankImage,blankImage,medal02b,19,,,,,,,,,,,,,,,,,,,,,,,,,,,,,,,,,,,,,,,,,0,42,42,18,1,,,,,,,,,,,,,,,,,,,,,,,,,,,,,,,,,,,,,,,,,,,,,,,,,,,,,,,
,,,,,5ef8e0fc2ce3c6644665e347,6682b41eeb79ab8215dff63d,6682b6e5aeee6ed0cb538ed2,28,Male,English,2024-07-01_07h05.13.452,ABmemTask3,2023.2.3,Win32,60.0240096,,,,,,,,,,,,,,,,,,,,,,,,,,,,,,,452.815,453.812,453.812,7,454.311,455.245,0.004,455.361,0.114,0.116,0.117,0.117,0.116,0.117,0.117,0.116,,,,455.361,456.544,left,1.168,,456.544,456.894,left,0.333,,24,0,88,456.894,457.894,,,,,,1_AB,L1_T1A_T2A,1,0,0,4,5,3,4,9,License Plate,Did you see the License Plate,0.12,0,resources/,pics/snowshoe.jpg,pics/kangaroo.jpg,pics/noparkingsign.jpg,pics/match.jpg,pics/hose.jpg,pics/blender.jpg,pics/ashtray01.jpg,pics/ball02.jpg,pics/sink.jpg,blankImage,blankImage,blankImage,blankImage,blankImage,blankImage,blankImage,blankImage,licenseplate,40,,,,,,,,,,,,,,,,,,,,,,,,,,,,,,,,,,,,,,,,,0,43,43,39,1,,,,,,,,,,,,,,,,,,,,,,,,,,,,,,,,,,,,,,,,,,,,,,,,,,,,,,,
,,,,,5ef8e0fc2ce3c6644665e347,6682b41eeb79ab8215dff63d,6682b6e5aeee6ed0cb538ed2,28,Male,English,2024-07-01_07h05.13.452,ABmemTask3,2023.2.3,Win32,60.0240096,,,,,,,,,,,,,,,,,,,,,,,,,,,,,,,457.895,458.893,458.893,7,459.392,460.676,0.003,460.792,0.115,0.116,0.117,0.117,0.117,0.117,0.116,0.117,0.116,0.117,0.116,460.792,461.21,right,0.399,,461.21,461.426,right,0.201,,26,0,90,461.426,462.425,,,,,,1_AB,L1_T1P_T2P,1,1,1,6,7,5,5,12,jeep,Did you see the jeep,0.12,0,resources/,pics/sandbarshark.jpg,pics/laptop01a.jpg,pics/peach01.jpg,pics/binoculars01b.jpg,pics/giraffe.jpg,pics/jeep.jpg,pics/stapler03b.jpg,pics/fanblades.jpg,pics/cannon.jpg,pics/starfish01.jpg,pics/piggybank.jpg,pics/noparkingsign.jpg,blankImage,blankImage,blankImage,blankImage,blankImage,jeep,2,,,,,,,,,,,,,,,,,,,,,,,,,,,,,,,,,,,,,,,,,0,44,44,1,1,,,,,,,,,,,,,,,,,,,,,,,,,,,,,,,,,,,,,,,,,,,,,,,,,,,,,,,
,,,,,5ef8e0fc2ce3c6644665e347,6682b41eeb79ab8215dff63d,6682b6e5aeee6ed0cb538ed2,28,Male,English,2024-07-01_07h05.13.452,ABmemTask3,2023.2.3,Win32,60.0240096,,,,,,,,,,,,,,,,,,,,,,,,,,,,,,,462.426,463.425,463.425,7,463.925,465.091,0.001,465.207,0.117,0.115,0.118,0.116,0.116,0.117,0.116,0.118,0.115,0.118,,465.208,465.924,right,0.694,,465.924,466.141,left,0.205,,28,0,92,466.141,467.141,,,,,,1_AB,L1_T1P_T2A,1,1,0,7,8,6,3,11,garlic,Did you see the garlic,0.12,0,resources/,pics/zebra.jpg,pics/banjo.jpg,pics/pencilsharpener02a.jpg,pics/football.jpg,pics/candle01.jpg,pics/footballhelmet.jpg,pics/garlic01a.jpg,pics/birdhouse.jpg,pics/peach01.jpg,pics/pictureframe04.jpg,pics/binder03b.jpg,blankImage,blankImage,blankImage,blankImage,blankImage,blankImage,garlic01a,33,,,,,,,,,,,,,,,,,,,,,,,,,,,,,,,,,,,,,,,,,0,45,45,32,1,,,,,,,,,,,,,,,,,,,,,,,,,,,,,,,,,,,,,,,,,,,,,,,,,,,,,,,
,,,,,5ef8e0fc2ce3c6644665e347,6682b41eeb79ab8215dff63d,6682b6e5aeee6ed0cb538ed2,28,Male,English,2024-07-01_07h05.13.452,ABmemTask3,2023.2.3,Win32,60.0240096,,,,,,,,,,,,,,,,,,,,,,,,,,,,,,,467.141,468.14,468.14,7,468.64,469.456,0.001,469.573,0.117,0.116,0.116,0.117,0.116,0.117,0.116,,,,,469.573,470.373,right,0.781,,470.373,470.689,left,0.306,,28,0,94,470.689,471.689,,,,,,1_AB,L1_T1P_T2P,1,1,1,4,5,3,3,8,Recycling bin,Did you see the Recycling bin,0.12,0,resources/,pics/microscope.jpg,pics/dustpan.jpg,pics/seagull.jpg,pics/recyclingbin.jpg,pics/stapler06.jpg,pics/bowtie.jpg,pics/dromedary.jpg,pics/salmon.jpg,blankImage,blankImage,blankImage,blankImage,blankImage,blankImage,blankImage,blankImage,blankImage,recyclingbin,16,,,,,,,,,,,,,,,,,,,,,,,,,,,,,,,,,,,,,,,,,0,46,46,15,1,,,,,,,,,,,,,,,,,,,,,,,,,,,,,,,,,,,,,,,,,,,,,,,,,,,,,,,
,,,,,5ef8e0fc2ce3c6644665e347,6682b41eeb79ab8215dff63d,6682b6e5aeee6ed0cb538ed2,28,Male,English,2024-07-01_07h05.13.452,ABmemTask3,2023.2.3,Win32,60.0240096,,,,,,,,,,,,,,,,,,,,,,,,,,,,,,,471.689,472.688,472.688,7,473.188,474.238,0.001,474.355,0.117,0.116,0.118,0.115,0.117,0.117,0.117,0.116,0.116,,,474.355,474.888,right,0.513,,474.888,475.071,right,0.167,,30,0,96,475.071,476.07,,,,,,1_AB,L1_T1P_T2P,1,1,1,5,6,4,4,10,thermometer,Did you see the thermometer,0.12,0,resources/,pics/triangle.jpg,pics/shovel01.jpg,pics/mummy.jpg,pics/noparkingsign.jpg,pics/thermometer02b.jpg,pics/stapler04.jpg,pics/piggybank.jpg,pics/golfball.jpg,pics/laptop01a.jpg,pics/aquarium.jpg,blankImage,blankImage,blankImage,blankImage,blankImage,blankImage,blankImage,thermometer02b,8,,,,,,,,,,,,,,,,,,,,,,,,,,,,,,,,,,,,,,,,,0,47,47,7,1,,,,,,,,,,,,,,,,,,,,,,,,,,,,,,,,,,,,,,,,,,,,,,,,,,,,,,,
,,,,,5ef8e0fc2ce3c6644665e347,6682b41eeb79ab8215dff63d,6682b6e5aeee6ed0cb538ed2,28,Male,English,2024-07-01_07h05.13.452,ABmemTask3,2023.2.3,Win32,60.0240096,,,,,,,,,,,,,,,,,,,,,,,,,,,,,,,476.071,477.071,477.071,7,477.57,479.203,0.001,479.319,0.116,0.117,0.116,0.116,0.117,0.117,0.117,0.117,0.117,0.115,0.116,479.32,479.753,right,0.416,,479.753,479.92,right,0.15,,32,0,98,479.92,480.918,,,,,,1_AB,L5_T1P_T2P,5,1,1,5,10,4,5,15,ribbon,Did you see the ribbon,0.12,0,resources/,pics/giraffe.jpg,pics/boot02b.jpg,pics/cymbal.jpg,pics/leaf02a.jpg,pics/ribbon04.jpg,pics/lightswitch01.jpg,pics/necklace.jpg,pics/calendar.jpg,pics/kangaroo.jpg,pics/stapler12.jpg,pics/hose.jpg,pics/carrot01.jpg,pics/match.jpg,pics/sink.jpg,pics/candleholder01.jpg,blankImage,blankImage,ribbon04,53,0.117,0.116,0.118,,,,,,,,,,,,,,,,,,,,,,,,,,,,,,,,,,,,,,0,48,48,52,1,,,,,,,,,,,,,,,,,,,,,,,,,,,,,,,,,,,,,,,,,,,,,,,,,,,,,,,
,,,,,5ef8e0fc2ce3c6644665e347,6682b41eeb79ab8215dff63d,6682b6e5aeee6ed0cb538ed2,28,Male,English,2024-07-01_07h05.13.452,ABmemTask3,2023.2.3,Win32,60.0240096,,,,,,,,,,,,,,,,,,,,,,,,,,,,,,,480.92,481.918,481.918,7,482.419,483.235,0.003,483.351,0.114,0.117,0.116,0.117,0.116,0.116,0.117,,,,,483.351,484.334,left,0.965,,484.334,484.718,left,0.369,,32,0,100,484.718,485.718,,,,,,1_AB,L1_T1A_T2P,1,0,1,4,5,3,3,8,Parking meter,Did you see the Parking meter,0.12,0,resources/,pics/leaf02a.jpg,pics/carrot01.jpg,pics/sink.jpg,pics/butterfly.jpg,pics/stapler10.jpg,pics/pictureframe04.jpg,pics/spiderweb.jpg,pics/icecube01.jpg,blankImage,blankImage,blankImage,blankImage,blankImage,blankImage,blankImage,blankImage,blankImage,parkingmeter,30,,,,,,,,,,,,,,,,,,,,,,,,,,,,,,,,,,,,,,,,,0,49,49,29,1,,,,,,,,,,,,,,,,,,,,,,,,,,,,,,,,,,,,,,,,,,,,,,,,,,,,,,,
,,,,,5ef8e0fc2ce3c6644665e347,6682b41eeb79ab8215dff63d,6682b6e5aeee6ed0cb538ed2,28,Male,English,2024-07-01_07h05.13.452,ABmemTask3,2023.2.3,Win32,60.0240096,,,,,,,,,,,,,,,,,,,,,,,,,,,,,,,485.718,486.718,486.718,7,487.217,488.616,0.007,488.733,0.11,0.116,0.117,0.117,0.117,0.116,0.117,0.116,0.117,0.117,0.116,488.734,489.299,right,0.539,,489.299,489.533,right,0.215,,34,0,102,489.533,490.533,,,,,,1_AB,L1_T1P_T2P,1,1,1,7,8,6,5,13,Totem Pole,Did you see the Totem Pole,0.12,0,resources/,pics/laptop01a.jpg,pics/carrot01.jpg,pics/wheel01.jpg,pics/icecube01.jpg,pics/ashtray01.jpg,pics/lock03a.jpg,pics/totempole.jpg,pics/stapler08.jpg,pics/golfball.jpg,pics/pencil01.jpg,pics/banjo.jpg,pics/sandbarshark.jpg,pics/shipinabottle.jpg,blankImage,blankImage,blankImage,blankImage,totempole,22,0.117,,,,,,,,,,,,,,,,,,,,,,,,,,,,,,,,,,,,,,,,0,50,50,21,1,,,,,,,,,,,,,,,,,,,,,,,,,,,,,,,,,,,,,,,,,,,,,,,,,,,,,,,
,,,,,5ef8e0fc2ce3c6644665e347,6682b41eeb79ab8215dff63d,6682b6e5aeee6ed0cb538ed2,28,Male,English,2024-07-01_07h05.13.452,ABmemTask3,2023.2.3,Win32,60.0240096,,,,,,,,,,,,,,,,,,,,,,,,,,,,,,,490.534,491.532,491.532,7,492.032,493.315,0.002,493.431,0.115,0.117,0.117,0.116,0.117,0.116,0.116,0.117,0.117,0.116,0.117,493.431,494.265,right,0.822,,494.265,494.382,left,0.107,,36,0,104,494.382,495.381,,,,,,1_AB,L1_T1P_T2A,1,1,0,7,8,6,4,12,Tennis racket,Did you see the Tennis racket,0.12,0,resources/,pics/banjo.jpg,pics/leaf02a.jpg,pics/shovel01.jpg,pics/microscope.jpg,pics/cork02.jpg,pics/seagull.jpg,pics/tennisracket.jpg,pics/binder03b.jpg,pics/floortile02.jpg,pics/carrot01.jpg,pics/candle01.jpg,pics/siamesecat.jpg,blankImage,blankImage,blankImage,blankImage,blankImage,tennisracket,38,,,,,,,,,,,,,,,,,,,,,,,,,,,,,,,,,,,,,,,,,0,51,51,37,1,,,,,,,,,,,,,,,,,,,,,,,,,,,,,,,,,,,,,,,,,,,,,,,,,,,,,,,
,,,,,5ef8e0fc2ce3c6644665e347,6682b41eeb79ab8215dff63d,6682b6e5aeee6ed0cb538ed2,28,Male,English,2024-07-01_07h05.13.452,ABmemTask3,2023.2.3,Win32,60.0240096,,,,,,,,,,,,,,,,,,,,,,,,,,,,,,,495.381,496.381,496.381,7,496.88,498.047,0.002,498.164,0.115,0.116,0.117,0.118,0.116,0.117,0.116,0.117,0.117,0.117,,498.164,499.03,right,0.844,,499.03,499.296,left,0.25,,36,0,106,499.297,500.295,,,,,,1_AB,L1_T1P_T2P,1,1,1,7,8,6,3,11,Eiffel tower,Did you see the Eiffel tower,0.12,0,resources/,pics/seagull.jpg,pics/cymbal.jpg,pics/match.jpg,pics/binoculars01b.jpg,pics/ball02.jpg,pics/onion.jpg,pics/eiffeltower.jpg,pics/stapler11.jpg,pics/peach01.jpg,pics/sandbarshark.jpg,pics/boot02b.jpg,blankImage,blankImage,blankImage,blankImage,blankImage,blankImage,eiffeltower,1,,,,,,,,,,,,,,,,,,,,,,,,,,,,,,,,,,,,,,,,,0,52,52,0,1,,,,,,,,,,,,,,,,,,,,,,,,,,,,,,,,,,,,,,,,,,,,,,,,,,,,,,,
,,,,,5ef8e0fc2ce3c6644665e347,6682b41eeb79ab8215dff63d,6682b6e5aeee6ed0cb538ed2,28,Male,English,2024-07-01_07h05.13.452,ABmemTask3,2023.2.3,Win32,60.0240096,,,,,,,,,,,,,,,,,,,,,,,,,,,,,,,500.296,501.296,501.296,7,501.795,503.545,0.003,503.661,0.114,0.117,0.117,0.116,0.117,0.117,0.116,0.117,0.116,0.117,0.116,503.661,503.978,right,0.305,,503.978,504.194,right,0.205,,38,0,108,504.194,505.194,,,,,,1_AB,L5_T1P_T2P,5,1,1,6,11,5,5,16,cruise ship,Did you see the cruise ship,0.12,0,resources/,pics/seaturtle.jpg,pics/ashtray01.jpg,pics/pencil01.jpg,pics/fanblades.jpg,pics/triangle.jpg,pics/cruiseship.jpg,pics/wheel01.jpg,pics/dustpan.jpg,pics/starfish01.jpg,pics/banjo.jpg,pics/stapler12.jpg,pics/match.jpg,pics/cannon.jpg,pics/sandbarshark.jpg,pics/sink.jpg,pics/zebra.jpg,blankImage,cruiseship,51,0.117,0.117,0.116,,,,,,,,,,,,,,,,,,,,,,,,,,,,,,,,,,,,,,0,53,53,50,1,0.117,,,,,,,,,,,,,,,,,,,,,,,,,,,,,,,,,,,,,,,,,,,,,,,,,,,,,,
,,,,,5ef8e0fc2ce3c6644665e347,6682b41eeb79ab8215dff63d,6682b6e5aeee6ed0cb538ed2,28,Male,English,2024-07-01_07h05.13.452,ABmemTask3,2023.2.3,Win32,60.0240096,,,,,,,,,,,,,,,,,,,,,,,,,,,,,,,505.194,506.194,506.194,7,506.694,508.093,0.001,508.209,0.116,0.116,0.117,0.117,0.116,0.117,0.116,0.117,0.117,0.117,0.116,508.209,509.142,left,0.918,,509.142,509.343,right,0.186,,40,0,110,509.343,510.342,,,,,,1_AB,L1_T1A_T2P,1,0,1,7,8,6,5,13,statue,Did you see the statue,0.12,0,resources/,pics/giraffe.jpg,pics/seaturtle.jpg,pics/peach01.jpg,pics/boot02b.jpg,pics/backpack01a.jpg,pics/sandbarshark.jpg,pics/microscope.jpg,pics/stapler07.jpg,pics/snowshoe.jpg,pics/laptop01a.jpg,pics/necklace.jpg,pics/zebra.jpg,pics/carrot01.jpg,blankImage,blankImage,blankImage,blankImage,statue,27,0.116,,,,,,,,,,,,,,,,,,,,,,,,,,,,,,,,,,,,,,,,0,54,54,26,1,,,,,,,,,,,,,,,,,,,,,,,,,,,,,,,,,,,,,,,,,,,,,,,,,,,,,,,
,,,,,5ef8e0fc2ce3c6644665e347,6682b41eeb79ab8215dff63d,6682b6e5aeee6ed0cb538ed2,28,Male,English,2024-07-01_07h05.13.452,ABmemTask3,2023.2.3,Win32,60.0240096,,,,,,,,,,,,,,,,,,,,,,,,,,,,,,,510.343,511.342,511.342,7,511.842,512.775,0.001,512.892,0.116,0.117,0.116,0.117,0.116,0.118,0.116,0.116,,,,512.892,514.008,right,1.098,,514.008,514.124,left,0.101,,42,0,112,514.125,515.124,,,,,,1_AB,L1_T1P_T2A,1,1,0,4,5,3,4,9,blueberry,Did you see the blueberry,0.12,0,resources/,pics/sealion.jpg,pics/piggybank.jpg,pics/sink.jpg,pics/blueberry01.jpg,pics/onion.jpg,pics/sailboat.jpg,pics/seaturtle.jpg,pics/hen.jpg,pics/fanblades.jpg,blankImage,blankImage,blankImage,blankImage,blankImage,blankImage,blankImage,blankImage,blueberry01,35,,,,,,,,,,,,,,,,,,,,,,,,,,,,,,,,,,,,,,,,,0,55,55,34,1,,,,,,,,,,,,,,,,,,,,,,,,,,,,,,,,,,,,,,,,,,,,,,,,,,,,,,,
,,,,,5ef8e0fc2ce3c6644665e347,6682b41eeb79ab8215dff63d,6682b6e5aeee6ed0cb538ed2,28,Male,English,2024-07-01_07h05.13.452,ABmemTask3,2023.2.3,Win32,60.0240096,,,,,,,,,,,,,,,,,,,,,,,,,,,,,,,515.124,516.123,516.124,7,516.624,517.791,0.001,517.906,0.115,0.117,0.117,0.116,0.117,0.117,0.116,0.117,0.116,0.118,,517.906,518.806,left,0.886,,518.806,519.089,left,0.266,,42,0,114,519.089,520.089,,,,,,1_AB,L1_T1P_T2A,1,1,0,7,8,6,3,11,eggplant,Did you see the eggplant,0.12,0,resources/,pics/salmon.jpg,pics/fanblades.jpg,pics/hammerheadshark.jpg,pics/wheel01.jpg,pics/snowshoe.jpg,pics/birdhouse.jpg,pics/eggplant.jpg,pics/spiderweb.jpg,pics/zebra.jpg,pics/pencilsharpener02a.jpg,pics/backpack01a.jpg,blankImage,blankImage,blankImage,blankImage,blankImage,blankImage,eggplant,32,,,,,,,,,,,,,,,,,,,,,,,,,,,,,,,,,,,,,,,,,0,56,56,31,1,,,,,,,,,,,,,,,,,,,,,,,,,,,,,,,,,,,,,,,,,,,,,,,,,,,,,,,
,,,,,5ef8e0fc2ce3c6644665e347,6682b41eeb79ab8215dff63d,6682b6e5aeee6ed0cb538ed2,28,Male,English,2024-07-01_07h05.13.452,ABmemTask3,2023.2.3,Win32,60.0240096,,,,,,,,,,,,,,,,,,,,,,,,,,,,,,,520.093,521.089,521.089,7,521.589,523.222,0.003,523.338,0.115,0.116,0.117,0.116,0.116,0.116,0.118,0.116,0.116,0.117,0.117,523.338,524.387,left,1.039,,524.387,524.67,left,0.268,,42,0,116,524.67,525.67,,,,,,1_AB,L5_T1A_T2P,5,0,1,7,12,6,3,15,scissors,Did you see the scissors,0.12,0,resources/,pics/cannon.jpg,pics/mummy.jpg,pics/shovel01.jpg,pics/christmaslights.jpg,pics/snowshoe.jpg,pics/candle01.jpg,pics/bowtie.jpg,pics/giraffe.jpg,pics/carrot01.jpg,pics/spoon01.jpg,pics/seaturtle.jpg,pics/stapler10.jpg,pics/footballhelmet.jpg,pics/onion.jpg,pics/wheel01.jpg,blankImage,blankImage,scissors01,57,0.117,0.116,0.117,,,,,,,,,,,,,,,,,,,,,,,,,,,,,,,,,,,,,,0,57,57,56,1,,,,,,,,,,,,,,,,,,,,,,,,,,,,,,,,,,,,,,,,,,,,,,,,,,,,,,,
,,,,,5ef8e0fc2ce3c6644665e347,6682b41eeb79ab8215dff63d,6682b6e5aeee6ed0cb538ed2,28,Male,English,2024-07-01_07h05.13.452,ABmemTask3,2023.2.3,Win32,60.0240096,,,,,,,,,,,,,,,,,,,,,,,,,,,,,,,525.672,526.67,526.67,7,527.17,528.104,0.002,528.219,0.115,0.117,0.117,0.116,0.117,0.117,0.116,0.117,,,,528.219,529.486,left,1.249,,529.486,529.653,right,0.156,,42,0,118,529.653,530.653,,,,,,1_AB,L1_T1P_T2P,1,1,1,4,5,3,4,9,Chefs hat,Did you see the Chefs hat,0.12,0,resources/,pics/sewingmachine01a.jpg,pics/icecube01.jpg,pics/fanblades.jpg,pics/chefshat.jpg,pics/stapler06.jpg,pics/ashtray01.jpg,pics/blender.jpg,pics/sandbarshark.jpg,pics/lock03a.jpg,blankImage,blankImage,blankImage,blankImage,blankImage,blankImage,blankImage,blankImage,chefshat,12,,,,,,,,,,,,,,,,,,,,,,,,,,,,,,,,,,,,,,,,,0,58,58,11,1,,,,,,,,,,,,,,,,,,,,,,,,,,,,,,,,,,,,,,,,,,,,,,,,,,,,,,,
,,,,,5ef8e0fc2ce3c6644665e347,6682b41eeb79ab8215dff63d,6682b6e5aeee6ed0cb538ed2,28,Male,English,2024-07-01_07h05.13.452,ABmemTask3,2023.2.3,Win32,60.0240096,,,,,,,,,,,,,,,,,,,,,,,,,,,,,,,530.654,531.652,531.652,7,532.152,533.319,0.003,533.435,0.114,0.117,0.116,0.117,0.116,0.117,0.117,0.116,0.117,0.117,,533.435,534.051,right,0.597,,534.051,534.251,right,0.185,,44,0,120,534.251,535.251,,,,,,1_AB,L1_T1P_T2P,1,1,1,7,8,6,3,11,bird,Did you see the bird,0.12,0,resources/,pics/sealion.jpg,pics/backpack01a.jpg,pics/hose.jpg,pics/table01.jpg,pics/wheel01.jpg,pics/seaturtle.jpg,pics/americangoldfinch.jpg,pics/stapler08.jpg,pics/siamesecat.jpg,pics/hammerheadshark.jpg,pics/ashtray01.jpg,blankImage,blankImage,blankImage,blankImage,blankImage,blankImage,americangoldfinch,23,,,,,,,,,,,,,,,,,,,,,,,,,,,,,,,,,,,,,,,,,0,59,59,22,1,,,,,,,,,,,,,,,,,,,,,,,,,,,,,,,,,,,,,,,,,,,,,,,,,,,,,,,
,,,,,5ef8e0fc2ce3c6644665e347,6682b41eeb79ab8215dff63d,6682b6e5aeee6ed0cb538ed2,28,Male,English,2024-07-01_07h05.13.452,ABmemTask3,2023.2.3,Win32,60.0240096,,,,,,,,,,,,,,,,,,,,,,,,,,,,,,,535.252,536.251,536.251,7,536.75,537.8,0.003,537.916,0.115,0.116,0.116,0.116,0.118,0.117,0.116,0.117,0.116,,,537.916,538.633,right,0.696,,538.633,538.817,left,0.168,,44,0,122,538.817,539.816,,,,,,1_AB,L1_T1P_T2P,1,1,1,4,5,3,5,10,flute,Did you see the flute,0.12,0,resources/,pics/peach01.jpg,pics/seaturtle.jpg,pics/dromedary.jpg,pics/recorder01.jpg,pics/stapler08.jpg,pics/giraffe.jpg,pics/blender.jpg,pics/necklace.jpg,pics/sink.jpg,pics/dustpan.jpg,blankImage,blankImage,blankImage,blankImage,blankImage,blankImage,blankImage,recorder01,7,,,,,,,,,,,,,,,,,,,,,,,,,,,,,,,,,,,,,,,,,0,60,60,6,1,,,,,,,,,,,,,,,,,,,,,,,,,,,,,,,,,,,,,,,,,,,,,,,,,,,,,,,
,,,,,5ef8e0fc2ce3c6644665e347,6682b41eeb79ab8215dff63d,6682b6e5aeee6ed0cb538ed2,28,Male,English,2024-07-01_07h05.13.452,ABmemTask3,2023.2.3,Win32,60.0240096,,,,,,,,,,,,,,,,,,,,,,,,,,,,,,,539.817,540.816,540.816,7,541.315,542.365,0.002,542.481,0.115,0.117,0.117,0.117,0.115,0.118,0.116,0.117,0.117,,,542.481,543.148,right,0.649,,543.148,543.464,right,0.301,,46,0,124,543.465,544.465,,,,,,1_AB,L1_T1P_T2P,1,1,1,4,5,3,5,10,chair,Did you see the chair,0.12,0,resources/,pics/zebra.jpg,pics/floortile02.jpg,pics/cork02.jpg,pics/chair.jpg,pics/stapler07.jpg,pics/sealion.jpg,pics/shovel01.jpg,pics/piggybank.jpg,pics/candleholder01.jpg,pics/laptop01a.jpg,blankImage,blankImage,blankImage,blankImage,blankImage,blankImage,blankImage,chair,3,,,,,,,,,,,,,,,,,,,,,,,,,,,,,,,,,,,,,,,,,0,61,61,2,1,,,,,,,,,,,,,,,,,,,,,,,,,,,,,,,,,,,,,,,,,,,,,,,,,,,,,,,
,,,,,5ef8e0fc2ce3c6644665e347,6682b41eeb79ab8215dff63d,6682b6e5aeee6ed0cb538ed2,28,Male,English,2024-07-01_07h05.13.452,ABmemTask3,2023.2.3,Win32,60.0240096,,,,,,,,,,,,,,,,,,,,,,,,,,,,,,,,,,,,,,,,,,,,,,,,,,,,,,,,,,,,,,,,,,,,,,,,,,,,,,,,,,,,,,,,,,,,,,,,,,,,,,,,,,,544.465,547.313,space,2.818,,,,,,,,,,,,,,,,,,,,,,,,,,,,,,,,,,,,,,,,,,,,,,,,,,,,,,,,,,,,,,,,,,,,,,,,,,,,,,,,,,,,,,,,,,,,,
,,,,,5ef8e0fc2ce3c6644665e347,6682b41eeb79ab8215dff63d,6682b6e5aeee6ed0cb538ed2,28,Male,English,2024-07-01_07h05.13.452,ABmemTask3,2023.2.3,Win32,60.0240096,,,space,3.419,,,,,,,,,,,,,,,,,,,,,,,,,,,,,,,,,,,,,,,,,,,,,,,,,,,,,,,,,,,,,,,,,,,,,,,,,,,,,,,,,,,,,,,,,,,,,,,,,,,,,,,,,,,,,,,,,,,,,,,,,,,,,,,,,,,,,,,,,,,,,,,,,,,547.314,550.761,,,,,,,,,,,,,,,,,,,,,,,,,,,,,,,,,,,,,,,,,,,,,,,,,,,
,,,,,5ef8e0fc2ce3c6644665e347,6682b41eeb79ab8215dff63d,6682b6e5aeee6ed0cb538ed2,28,Male,English,2024-07-01_07h05.13.452,ABmemTask3,2023.2.3,Win32,60.0240096,,,,,,,,,,,,,,,,,,,,,,,,,,,,,,,,,,,,,,,,,,,,,,,,,,,,,,,,,,,,,,,,,,,,,,,,,,,,,,,,,,,,,,,,,,,,,,,,,,,,,,,,,,,,,,,,,,,,,,,,,,,,,,,,,,,,,,,,,,,,,,,,,,,,,,,,,550.761,562.525,space,11.724,,,,,,,,,,,,,,,,,,,,,,,,,,,,,,,,,,,,,,,,,,,,,,,
,,,,,5ef8e0fc2ce3c6644665e347,6682b41eeb79ab8215dff63d,6682b6e5aeee6ed0cb538ed2,28,Male,English,2024-07-01_07h05.13.452,ABmemTask3,2023.2.3,Win32,60.0240096,,,,,,,,,,,,,,,,,,,,,,,,,,,,,,,562.54,563.541,563.541,7,564.041,565.09,0.004,565.207,0.113,0.117,0.117,0.115,0.117,0.117,0.117,0.116,0.116,,,565.207,565.841,right,0.616,,,,,,,1,46,2,565.841,566.84,,,,,,2_AB,L1_T1P_T2P,1,1,1,5,6,4,4,10,bottle cap,Did you see the bottle cap,0.12,0,resources/,pics/banjo.jpg,pics/football.jpg,pics/sink.jpg,pics/binoculars01b.jpg,pics/bottlecap.jpg,pics/stapler01.jpg,pics/peach01.jpg,pics/piggybank.jpg,pics/sandbarshark.jpg,pics/table01.jpg,blankImage,blankImage,blankImage,blankImage,blankImage,blankImage,blankImage,bottlecap,19,,,,,,,,,,,,,,,,,,,,,,,,,,,,,,,,,,,,,,,,,,,,,,,,,,,,,,,0,0,0,18,1,,,,,,,,,,,,,,,,,,,,,,,,,,,,,,,,,,,,,,,,,
,,,,,5ef8e0fc2ce3c6644665e347,6682b41eeb79ab8215dff63d,6682b6e5aeee6ed0cb538ed2,28,Male,English,2024-07-01_07h05.13.452,ABmemTask3,2023.2.3,Win32,60.0240096,,,,,,,,,,,,,,,,,,,,,,,,,,,,,,,566.841,567.84,567.84,7,568.34,569.389,0.002,569.506,0.115,0.117,0.116,0.116,0.117,0.117,0.116,0.117,0.116,,,569.506,569.905,right,0.381,,,,,,,2,46,4,569.905,570.906,,,,,,2_AB,L1_T1P_T2P,1,1,1,5,6,4,4,10,violin,Did you see the violin,0.12,0,resources/,pics/chainsaw.jpg,pics/mummy.jpg,pics/binder03b.jpg,pics/shipinabottle.jpg,pics/violin.jpg,pics/stapler03.jpg,pics/butterfly.jpg,pics/peanut01.jpg,pics/candle01.jpg,pics/sewingmachine01a.jpg,blankImage,blankImage,blankImage,blankImage,blankImage,blankImage,blankImage,violin,18,,,,,,,,,,,,,,,,,,,,,,,,,,,,,,,,,,,,,,,,,,,,,,,,,,,,,,,0,1,1,17,1,,,,,,,,,,,,,,,,,,,,,,,,,,,,,,,,,,,,,,,,,
,,,,,5ef8e0fc2ce3c6644665e347,6682b41eeb79ab8215dff63d,6682b6e5aeee6ed0cb538ed2,28,Male,English,2024-07-01_07h05.13.452,ABmemTask3,2023.2.3,Win32,60.0240096,,,,,,,,,,,,,,,,,,,,,,,,,,,,,,,570.906,571.905,571.905,7,572.405,574.154,0.002,574.271,0.115,0.116,0.117,0.116,0.117,0.117,0.117,0.115,0.116,0.117,0.117,574.271,574.721,right,0.434,,,,,,,3,46,6,574.721,575.72,,,,,,2_AB,L5_T1P_T2P,5,1,1,7,12,6,4,16,printer,Did you see the printer,0.12,0,resources/,pics/laptop01a.jpg,pics/peanut01.jpg,pics/backpack01a.jpg,pics/snowshoe.jpg,pics/lock03a.jpg,pics/table01.jpg,pics/printer02.jpg,pics/leaf02a.jpg,pics/match.jpg,pics/piggybank.jpg,pics/binoculars01b.jpg,pics/stapler08.jpg,pics/floortile02.jpg,pics/noparkingsign.jpg,pics/wheel01.jpg,pics/mummy.jpg,blankImage,printer02,44,0.116,0.117,0.117,,,,,,,,,,,,,,,,,,,,,,,,,,,,,,,,,,,,,,,,,,,0.116,,,,,,,,,0,2,2,43,1,,,,,,,,,,,,,,,,,,,,,,,,,,,,,,,,,,,,,,,,,
,,,,,5ef8e0fc2ce3c6644665e347,6682b41eeb79ab8215dff63d,6682b6e5aeee6ed0cb538ed2,28,Male,English,2024-07-01_07h05.13.452,ABmemTask3,2023.2.3,Win32,60.0240096,,,,,,,,,,,,,,,,,,,,,,,,,,,,,,,575.72,576.719,576.719,7,577.22,578.387,0.001,578.503,0.116,0.117,0.116,0.117,0.117,0.116,0.116,0.117,0.116,0.118,,578.503,579.169,left,0.649,,,,,,,4,46,8,579.169,580.169,,,,,,2_AB,L1_T1A_T2P,1,0,1,6,7,5,4,11,Eye,Did you see the Eye,0.12,0,resources/,pics/spoon01.jpg,pics/ball02.jpg,pics/sandbarshark.jpg,pics/pencil01.jpg,pics/icecube01.jpg,pics/floortile02.jpg,pics/stapler03.jpg,pics/binder03b.jpg,pics/hairdryer02a.jpg,pics/laptop01a.jpg,pics/sewingmachine01a.jpg,blankImage,blankImage,blankImage,blankImage,blankImage,blankImage,eye,24,,,,,,,,,,,,,,,,,,,,,,,,,,,,,,,,,,,,,,,,,,,,,,,,,,,,,,,0,3,3,23,1,,,,,,,,,,,,,,,,,,,,,,,,,,,,,,,,,,,,,,,,,
,,,,,5ef8e0fc2ce3c6644665e347,6682b41eeb79ab8215dff63d,6682b6e5aeee6ed0cb538ed2,28,Male,English,2024-07-01_07h05.13.452,ABmemTask3,2023.2.3,Win32,60.0240096,,,,,,,,,,,,,,,,,,,,,,,,,,,,,,,580.169,581.169,581.169,7,581.668,582.718,0.002,582.835,0.116,0.116,0.116,0.117,0.117,0.117,0.116,0.117,0.117,,,582.835,583.334,right,0.479,,,,,,,5,46,10,583.334,584.334,,,,,,2_AB,L1_T1P_T2P,1,1,1,4,5,3,5,10,buffalo,Did you see the buffalo,0.12,0,resources/,pics/pictureframe04.jpg,pics/lock03a.jpg,pics/birdhouse.jpg,pics/bison.jpg,pics/stapler11.jpg,pics/kangaroo.jpg,pics/mummy.jpg,pics/zebra.jpg,pics/binoculars01b.jpg,pics/microscope.jpg,blankImage,blankImage,blankImage,blankImage,blankImage,blankImage,blankImage,bison,12,,,,,,,,,,,,,,,,,,,,,,,,,,,,,,,,,,,,,,,,,,,,,,,,,,,,,,,0,4,4,11,1,,,,,,,,,,,,,,,,,,,,,,,,,,,,,,,,,,,,,,,,,
,,,,,5ef8e0fc2ce3c6644665e347,6682b41eeb79ab8215dff63d,6682b6e5aeee6ed0cb538ed2,28,Male,English,2024-07-01_07h05.13.452,ABmemTask3,2023.2.3,Win32,60.0240096,,,,,,,,,,,,,,,,,,,,,,,,,,,,,,,584.335,585.333,585.333,7,585.834,586.883,0.002,586.999,0.114,0.117,0.117,0.116,0.117,0.116,0.117,0.117,0.117,,,586.999,587.733,right,0.712,,,,,,,6,46,12,587.733,588.734,,,,,,2_AB,L1_T1P_T2P,1,1,1,4,5,3,5,10,cloud,Did you see the cloud,0.12,0,resources/,pics/laptop01a.jpg,pics/hose.jpg,pics/kangaroo.jpg,pics/cloud.jpg,pics/stapler05.jpg,pics/wheel01.jpg,pics/nutcracker01.jpg,pics/backpack01a.jpg,pics/hen.jpg,pics/chainsaw.jpg,blankImage,blankImage,blankImage,blankImage,blankImage,blankImage,blankImage,cloud,16,,,,,,,,,,,,,,,,,,,,,,,,,,,,,,,,,,,,,,,,,,,,,,,,,,,,,,,0,5,5,15,1,,,,,,,,,,,,,,,,,,,,,,,,,,,,,,,,,,,,,,,,,
,,,,,5ef8e0fc2ce3c6644665e347,6682b41eeb79ab8215dff63d,6682b6e5aeee6ed0cb538ed2,28,Male,English,2024-07-01_07h05.13.452,ABmemTask3,2023.2.3,Win32,60.0240096,,,,,,,,,,,,,,,,,,,,,,,,,,,,,,,588.737,589.733,589.733,7,590.232,591.281,0.004,591.398,0.113,0.117,0.117,0.116,0.117,0.117,0.117,0.115,0.117,,,591.398,592.365,left,0.948,,,,,,,7,46,14,592.365,593.364,,,,,,2_AB,L1_T1A_T2P,1,0,1,4,5,3,5,10,spice rack,Did you see the spice rack,0.12,0,resources/,pics/hammerheadshark.jpg,pics/pictureframe04.jpg,pics/boot02b.jpg,pics/starfish01.jpg,pics/stapler12.jpg,pics/leaf02a.jpg,pics/necklace.jpg,pics/hose.jpg,pics/salmon.jpg,pics/cymbal.jpg,blankImage,blankImage,blankImage,blankImage,blankImage,blankImage,blankImage,spicerack,27,,,,,,,,,,,,,,,,,,,,,,,,,,,,,,,,,,,,,,,,,,,,,,,,,,,,,,,0,6,6,26,1,,,,,,,,,,,,,,,,,,,,,,,,,,,,,,,,,,,,,,,,,
,,,,,5ef8e0fc2ce3c6644665e347,6682b41eeb79ab8215dff63d,6682b6e5aeee6ed0cb538ed2,28,Male,English,2024-07-01_07h05.13.452,ABmemTask3,2023.2.3,Win32,60.0240096,,,,,,,,,,,,,,,,,,,,,,,,,,,,,,,593.365,594.364,594.364,7,594.864,596.496,0.001,596.613,0.116,0.116,0.117,0.117,0.116,0.117,0.116,0.117,0.117,0.117,0.116,596.613,597.113,right,0.477,,,,,,,8,46,16,597.113,598.113,,,,,,2_AB,L5_T1P_T2A,5,1,0,5,10,4,5,15,wheel barrow,Did you see the wheel barrow,0.12,0,resources/,pics/safetypin.jpg,pics/sealion.jpg,pics/binoculars01b.jpg,pics/bowlingpin.jpg,pics/wheelbarrow01.jpg,pics/pictureframe04.jpg,pics/zebra.jpg,pics/mummy.jpg,pics/cork02.jpg,pics/starfish01.jpg,pics/necklace.jpg,pics/bowtie.jpg,pics/cannon.jpg,pics/siamesecat.jpg,pics/dromedary.jpg,blankImage,blankImage,wheelbarrow01,59,0.118,0.115,0.116,,,,,,,,,,,,,,,,,,,,,,,,,,,,,,,,,,,,,,,,,,,,,,,,,,,,0,7,7,58,1,,,,,,,,,,,,,,,,,,,,,,,,,,,,,,,,,,,,,,,,,
,,,,,5ef8e0fc2ce3c6644665e347,6682b41eeb79ab8215dff63d,6682b6e5aeee6ed0cb538ed2,28,Male,English,2024-07-01_07h05.13.452,ABmemTask3,2023.2.3,Win32,60.0240096,,,,,,,,,,,,,,,,,,,,,,,,,,,,,,,598.113,599.112,599.112,7,599.612,601.011,0.002,601.128,0.116,0.116,0.116,0.117,0.117,0.117,0.117,0.116,0.117,0.116,0.117,601.128,601.612,left,0.466,,,,,,,7,46,18,601.612,602.611,,,,,,2_AB,L5_T1P_T2P,5,1,1,4,9,3,4,13,earrings,Did you see the earrings,0.12,0,resources/,pics/pencil01.jpg,pics/onion.jpg,pics/toiletpaper01a.jpg,pics/earring01.jpg,pics/seagull.jpg,pics/proboscismonkey.jpg,pics/carrot01.jpg,pics/pencilsharpener02a.jpg,pics/stapler11.jpg,pics/hairdryer02a.jpg,pics/peanut01.jpg,pics/zebra.jpg,pics/lightswitch01.jpg,blankImage,blankImage,blankImage,blankImage,earring01,46,0.116,,,,,,,,,,,,,,,,,,,,,,,,,,,,,,,,,,,,,,,,,,,,,,,,,,,,,,0,8,8,45,1,,,,,,,,,,,,,,,,,,,,,,,,,,,,,,,,,,,,,,,,,
,,,,,5ef8e0fc2ce3c6644665e347,6682b41eeb79ab8215dff63d,6682b6e5aeee6ed0cb538ed2,28,Male,English,2024-07-01_07h05.13.452,ABmemTask3,2023.2.3,Win32,60.0240096,,,,,,,,,,,,,,,,,,,,,,,,,,,,,,,602.612,603.611,603.611,7,604.111,605.977,0.001,606.094,0.116,0.117,0.117,0.115,0.118,0.116,0.117,0.116,0.117,0.116,0.117,606.094,606.676,right,0.57,,,,,,,8,46,20,606.676,607.676,,,,,,2_AB,L5_T1P_T2P,5,1,1,7,12,6,5,17,handcuffs,Did you see the handcuffs,0.12,0,resources/,pics/bowlingpin.jpg,pics/football.jpg,pics/microscope.jpg,pics/pictureframe04.jpg,pics/cork02.jpg,pics/chainsaw.jpg,pics/handcuffs.jpg,pics/zebra.jpg,pics/giraffe.jpg,pics/sailboat.jpg,pics/backpack01a.jpg,pics/stapler03.jpg,pics/candleholder01.jpg,pics/safetypin.jpg,pics/sink.jpg,pics/snowshoe.jpg,pics/proboscismonkey.jpg,handcuffs,49,0.116,0.118,0.116,,,,,,,,,,,,,,,,,,,,,,,,,,,,,,,,,,,,,,,,,,,0.117,0.116,,,,,,,,0,9,9,48,1,,,,,,,,,,,,,,,,,,,,,,,,,,,,,,,,,,,,,,,,,
,,,,,5ef8e0fc2ce3c6644665e347,6682b41eeb79ab8215dff63d,6682b6e5aeee6ed0cb538ed2,28,Male,English,2024-07-01_07h05.13.452,ABmemTask3,2023.2.3,Win32,60.0240096,,,,,,,,,,,,,,,,,,,,,,,,,,,,,,,607.677,608.676,608.676,7,609.176,610.109,0.002,610.225,0.114,0.118,0.116,0.117,0.116,0.117,0.117,0.116,,,,610.225,610.825,right,0.581,,,,,,,9,46,22,610.826,611.825,,,,,,2_AB,L1_T1P_T2P,1,1,1,5,6,4,3,9,toaster,Did you see the toaster,0.12,0,resources/,pics/cannon.jpg,pics/candle01.jpg,pics/pencil01.jpg,pics/hose.jpg,pics/toaster01.jpg,pics/stapler08.jpg,pics/christmaslights.jpg,pics/sailboat.jpg,pics/lock03a.jpg,blankImage,blankImage,blankImage,blankImage,blankImage,blankImage,blankImage,blankImage,toaster01,6,,,,,,,,,,,,,,,,,,,,,,,,,,,,,,,,,,,,,,,,,,,,,,,,,,,,,,,0,10,10,5,1,,,,,,,,,,,,,,,,,,,,,,,,,,,,,,,,,,,,,,,,,
,,,,,5ef8e0fc2ce3c6644665e347,6682b41eeb79ab8215dff63d,6682b6e5aeee6ed0cb538ed2,28,Male,English,2024-07-01_07h05.13.452,ABmemTask3,2023.2.3,Win32,60.0240096,,,,,,,,,,,,,,,,,,,,,,,,,,,,,,,611.826,612.824,612.824,7,613.324,614.258,0.003,614.374,0.114,0.117,0.117,0.116,0.117,0.116,0.117,0.117,,,,614.374,615.407,left,1.014,,,,,,,10,46,24,615.407,616.406,,,,,,2_AB,L1_T1A_T2P,1,0,1,4,5,3,4,9,granola bar,Did you see the granola bar,0.12,0,resources/,pics/hairdryer02a.jpg,pics/microscope.jpg,pics/triangle.jpg,pics/calendar.jpg,pics/stapler04.jpg,pics/sailboat.jpg,pics/floortile02.jpg,pics/backpack01a.jpg,pics/pencil01.jpg,blankImage,blankImage,blankImage,blankImage,blankImage,blankImage,blankImage,blankImage,granolabar01,30,,,,,,,,,,,,,,,,,,,,,,,,,,,,,,,,,,,,,,,,,,,,,,,,,,,,,,,0,11,11,29,1,,,,,,,,,,,,,,,,,,,,,,,,,,,,,,,,,,,,,,,,,
,,,,,5ef8e0fc2ce3c6644665e347,6682b41eeb79ab8215dff63d,6682b6e5aeee6ed0cb538ed2,28,Male,English,2024-07-01_07h05.13.452,ABmemTask3,2023.2.3,Win32,60.0240096,,,,,,,,,,,,,,,,,,,,,,,,,,,,,,,616.407,617.406,617.407,7,617.907,618.959,0.001,619.072,0.115,0.116,0.117,0.117,0.116,0.117,0.117,0.12,0.117,,,619.073,619.473,right,0.375,,,,,,,11,46,26,619.473,620.472,,,,,,2_AB,L1_T1P_T2P,1,1,1,6,7,5,3,10,condom,Did you see the condom,0.12,0,resources/,pics/snowshoe.jpg,pics/lock03a.jpg,pics/sailboat.jpg,pics/football.jpg,pics/shipinabottle.jpg,pics/condom.jpg,pics/stapler13.jpg,pics/peanut01.jpg,pics/golfball.jpg,pics/cork02.jpg,blankImage,blankImage,blankImage,blankImage,blankImage,blankImage,blankImage,condom,5,,,,,,,,,,,,,,,,,,,,,,,,,,,,,,,,,,,,,,,,,,,,,,,,,,,,,,,0,12,12,4,1,,,,,,,,,,,,,,,,,,,,,,,,,,,,,,,,,,,,,,,,,
