consent1.started,consent1.stopped,key_resp_8.keys,key_resp_8.rt,key_resp_8.duration,PROLIFIC_PID,STUDY_ID,SESSION_ID,age,sex,native language,date,expName,psychopyVersion,OS,frameRate,consent2.started,consent2.stopped,key_resp_9.keys,key_resp_9.rt,key_resp_9.duration,consent3.started,consent3.stopped,key_resp_10.keys,key_resp_10.rt,key_resp_10.duration,consent4.started,consent4.stopped,key_resp_11.keys,key_resp_11.rt,key_resp_11.duration,consent5.started,consent5.stopped,key_resp_12.keys,key_resp_12.rt,key_resp_12.duration,bonusInstruct.started,bonusInstruct.stopped,key_resp_14.keys,key_resp_14.rt,key_resp_14.duration,practiceInstruct.started,practiceInstruct.stopped,key_resp.keys,key_resp.rt,key_resp.duration,cueWord_2.started,cueWord_2.stopped,fix.started,frameTarget,fix.stopped,trial.started,img1Add,trial.stopped,img2Add,img3Add,img4Add,img5Add,img6Add,img7Add,img8Add,img9Add,img10Add,img11Add,img12Add,prompt1.started,prompt1.stopped,key_resp_2.keys,key_resp_2.rt,key_resp_2.duration,prompt2.started,prompt2.stopped,key_resp_3.keys,key_resp_3.rt,key_resp_3.duration,runningAcc_AB,runningTotal,runningCount_AB,feedback.started,feedback.stopped,trials.thisRepN,trials.thisTrialN,trials.thisN,trials.thisIndex,trials.ran,TrialType,CondType,Lag,T1_PA,T2_PA,T1Loc,T2Loc,PreDistractor,PostDistractor,TotalImg,cueWord,T1cue,StimLength,isi,PicFolder,Img1,Img2,Img3,Img4,Img5,Img6,Img7,Img8,Img9,Img10,Img11,Img12,Img13,Img14,Img15,Img16,Img17,T1_Identity,trialID,img13Add,img14Add,img15Add,ABfeedback.started,ABfeedback.stopped,key_resp_13.keys,key_resp_13.rt,key_resp_13.duration,MemPracticeInstruction.started,MemPracticeInstruction.stopped,key_resp_5.keys,key_resp_5.rt,key_resp_5.duration,memTrial.started,memTrial.stopped,Mem_runningPoints,key_resp_4.keys,key_resp_4.rt,key_resp_4.duration,memTrialFeedback.started,memTrialFeedback.stopped,trials_2.thisRepN,trials_2.thisTrialN,trials_2.thisN,trials_2.thisIndex,trials_2.ran,ABtrialID,priorLag,image,memFeedback.started,memFeedback.frame,memFeedback.ended,memFeedback.stopped,bonus.started,bonus.stopped,memoryBlockABInstruct.started,memoryBlockABInstruct.stopped,key_resp_6.keys,key_resp_6.rt,key_resp_6.duration,AB_block_1.thisRepN,AB_block_1.thisTrialN,AB_block_1.thisN,AB_block_1.thisIndex,AB_block_1.ran,img16Add,img17Add,AB_break1.started,AB_break1.stopped,PerceiveBlockABInstruct.started,PerceiveBlockABInstruct.stopped,key_resp_7.keys,key_resp_7.rt,key_resp_7.duration,AB_block_2.thisRepN,AB_block_2.thisTrialN,AB_block_2.thisN,AB_block_2.thisIndex,AB_block_2.ran,AB_break2.started,AB_break2.stopped,AB_block_3.thisRepN,AB_block_3.thisTrialN,AB_block_3.thisN,AB_block_3.thisIndex,AB_block_3.ran,AB_break3.started,AB_break3.stopped,AB_block_4.thisRepN,AB_block_4.thisTrialN,AB_block_4.thisN,AB_block_4.thisIndex,AB_block_4.ran,AB_break4.started,AB_break4.stopped,AB_block_5.thisRepN,AB_block_5.thisTrialN,AB_block_5.thisN,AB_block_5.thisIndex,AB_block_5.ran,AB_break5.started,AB_break5.stopped,AB_block_6.thisRepN,AB_block_6.thisTrialN,AB_block_6.thisN,AB_block_6.thisIndex,AB_block_6.ran,AB_break6.started,AB_break6.stopped,MemInstructionSURPRISE.started,MemInstructionSURPRISE.stopped,MemInstruction.started,MemInstruction.stopped,memBreak.started,memBreak.stopped,Mem_block_1.thisRepN,Mem_block_1.thisTrialN,Mem_block_1.thisN,Mem_block_1.thisIndex,Mem_block_1.ran
0.0002,23.5185,space,23.4971,,66310f1cfffdab7496cd1aa6,6682b41eeb79ab8215dff63d,6682bc570f780ca1ccd0354d,40,male,english,2024-07-01_09h31.52.092,ABmemTask3,2023.2.3,MacIntel,58.13953488,,,,,,,,,,,,,,,,,,,,,,,,,,,,,,,,,,,,,,,,,,,,,,,,,,,,,,,,,,,,,,,,,,,,,,,,,,,,,,,,,,,,,,,,,,,,,,,,,,,,,,,,,,,,,,,,,,,,,,,,,,,,,,,,,,,,,,,,,,,,,,,,,,,,,,,,,,,,,,,,,,,,,,,,,,,,,,,,,,,,,,,,,,,,,,,,,,,,,,,,,,,
,,,,,66310f1cfffdab7496cd1aa6,6682b41eeb79ab8215dff63d,6682bc570f780ca1ccd0354d,40,male,english,2024-07-01_09h31.52.092,ABmemTask3,2023.2.3,MacIntel,58.13953488,23.5187,76.5549,space,53.0023,,,,,,,,,,,,,,,,,,,,,,,,,,,,,,,,,,,,,,,,,,,,,,,,,,,,,,,,,,,,,,,,,,,,,,,,,,,,,,,,,,,,,,,,,,,,,,,,,,,,,,,,,,,,,,,,,,,,,,,,,,,,,,,,,,,,,,,,,,,,,,,,,,,,,,,,,,,,,,,,,,,,,,,,,,,,,,,,,,,,,,,,,,,,,,,,,,,,,,,
,,,,,66310f1cfffdab7496cd1aa6,6682b41eeb79ab8215dff63d,6682bc570f780ca1ccd0354d,40,male,english,2024-07-01_09h31.52.092,ABmemTask3,2023.2.3,MacIntel,58.13953488,,,,,,76.5552,90.8047,space,14.2225,,,,,,,,,,,,,,,,,,,,,,,,,,,,,,,,,,,,,,,,,,,,,,,,,,,,,,,,,,,,,,,,,,,,,,,,,,,,,,,,,,,,,,,,,,,,,,,,,,,,,,,,,,,,,,,,,,,,,,,,,,,,,,,,,,,,,,,,,,,,,,,,,,,,,,,,,,,,,,,,,,,,,,,,,,,,,,,,,,,,,,,,,,,,,,,,,,
,,,,,66310f1cfffdab7496cd1aa6,6682b41eeb79ab8215dff63d,6682bc570f780ca1ccd0354d,40,male,english,2024-07-01_09h31.52.092,ABmemTask3,2023.2.3,MacIntel,58.13953488,,,,,,,,,,,90.8048,104.306,space,13.4719,,,,,,,,,,,,,,,,,,,,,,,,,,,,,,,,,,,,,,,,,,,,,,,,,,,,,,,,,,,,,,,,,,,,,,,,,,,,,,,,,,,,,,,,,,,,,,,,,,,,,,,,,,,,,,,,,,,,,,,,,,,,,,,,,,,,,,,,,,,,,,,,,,,,,,,,,,,,,,,,,,,,,,,,,,,,,,,,,,,,,,,,,,,,,
,,,,,66310f1cfffdab7496cd1aa6,6682b41eeb79ab8215dff63d,6682bc570f780ca1ccd0354d,40,male,english,2024-07-01_09h31.52.092,ABmemTask3,2023.2.3,MacIntel,58.13953488,,,,,,,,,,,,,,,,104.3063,113.8394,space,9.4986,,,,,,,,,,,,,,,,,,,,,,,,,,,,,,,,,,,,,,,,,,,,,,,,,,,,,,,,,,,,,,,,,,,,,,,,,,,,,,,,,,,,,,,,,,,,,,,,,,,,,,,,,,,,,,,,,,,,,,,,,,,,,,,,,,,,,,,,,,,,,,,,,,,,,,,,,,,,,,,,,,,,,,,,,,,,,,,,,,,,,,,,
,,,,,66310f1cfffdab7496cd1aa6,6682b41eeb79ab8215dff63d,6682bc570f780ca1ccd0354d,40,male,english,2024-07-01_09h31.52.092,ABmemTask3,2023.2.3,MacIntel,58.13953488,,,,,,,,,,,,,,,,,,,,,113.8397,149.0565,space,35.1827,,,,,,,,,,,,,,,,,,,,,,,,,,,,,,,,,,,,,,,,,,,,,,,,,,,,,,,,,,,,,,,,,,,,,,,,,,,,,,,,,,,,,,,,,,,,,,,,,,,,,,,,,,,,,,,,,,,,,,,,,,,,,,,,,,,,,,,,,,,,,,,,,,,,,,,,,,,,,,,,,,,,,,,,,,,,,,,,,,,
,,,,,66310f1cfffdab7496cd1aa6,6682b41eeb79ab8215dff63d,6682bc570f780ca1ccd0354d,40,male,english,2024-07-01_09h31.52.092,ABmemTask3,2023.2.3,MacIntel,58.13953488,,,,,,,,,,,,,,,,,,,,,,,,,,149.0568,190.8914,space,41.809,,,,,,,,,,,,,,,,,,,,,,,,,,,,,,,,,,,,,,,,,,,,,,,,,,,,,,,,,,,,,,,,,,,,,,,,,,,,,,,,,,,,,,,,,,,,,,,,,,,,,,,,,,,,,,,,,,,,,,,,,,,,,,,,,,,,,,,,,,,,,,,,,,,,,,,,,,,,,,,,,,,,,,,,,,,,,,
,,,,,66310f1cfffdab7496cd1aa6,6682b41eeb79ab8215dff63d,6682bc570f780ca1ccd0354d,40,male,english,2024-07-01_09h31.52.092,ABmemTask3,2023.2.3,MacIntel,58.13953488,,,,,,,,,,,,,,,,,,,,,,,,,,,,,,,190.9119,191.9077,191.9079,15,192.4076,195.158,0.0027,195.4073,0.2481,0.2497,0.2499,0.2501,0.2496,0.2505,0.2499,0.2493,0.2508,0.2491,0.2509,195.408,197.7743,right,2.3411,,197.7744,199.2246,left,1.4321,,2,0,2,199.2248,200.2246,0,0,0,0,1,prac_AB,L1_T1P_T2A,1,1,0,6,7,5,5,12,cat,Did you see the cat,0.25,0,resources/,pics/shipinabottle.jpg,pics/table01.jpg,pics/dustpan.jpg,pics/golfball.jpg,pics/giraffe.jpg,pics/cat.jpg,pics/peanut01.jpg,pics/pictureframe04.jpg,pics/fanblades.jpg,pics/laptop01a.jpg,pics/ball02.jpg,pics/blender.jpg,blankImage,blankImage,blankImage,blankImage,blankImage,cat,8,,,,,,,,,,,,,,,,,,,,,,,,,,,,,,,,,,,,,,,,,,,,,,,,,,,,,,,,,,,,,,,,,,,,,,,,,,,,,,,,,,,,,,,,,,,,,,,,,,,,
,,,,,66310f1cfffdab7496cd1aa6,6682b41eeb79ab8215dff63d,6682bc570f780ca1ccd0354d,40,male,english,2024-07-01_09h31.52.092,ABmemTask3,2023.2.3,MacIntel,58.13953488,,,,,,,,,,,,,,,,,,,,,,,,,,,,,,,200.2378,201.241,201.2411,14,201.7411,203.8415,0.0016,204.0741,0.2323,0.2334,0.2333,0.2333,0.2325,0.2342,0.2334,0.2331,0.2335,,,204.0743,207.4748,right,3.3762,,207.4749,208.3247,right,0.8349,,4,0,4,208.3248,209.3246,0,1,1,1,1,prac_AB,L1_T1P_T2P,1,1,1,5,6,4,4,10,tree,Did you see the tree,0.24,0,resources/,pics/carrot01.jpg,pics/hammerheadshark.jpg,pics/kangaroo.jpg,pics/proboscismonkey.jpg,pics/tree.jpg,pics/stapler07.jpg,pics/siamesecat.jpg,pics/ball02.jpg,pics/pictureframe04.jpg,pics/mummy.jpg,blankImage,blankImage,blankImage,blankImage,blankImage,blankImage,blankImage,tree,1,,,,,,,,,,,,,,,,,,,,,,,,,,,,,,,,,,,,,,,,,,,,,,,,,,,,,,,,,,,,,,,,,,,,,,,,,,,,,,,,,,,,,,,,,,,,,,,,,,,,
,,,,,66310f1cfffdab7496cd1aa6,6682b41eeb79ab8215dff63d,6682bc570f780ca1ccd0354d,40,male,english,2024-07-01_09h31.52.092,ABmemTask3,2023.2.3,MacIntel,58.13953488,,,,,,,,,,,,,,,,,,,,,,,,,,,,,,,209.3392,210.3414,210.3414,13,210.8413,213.2251,0.0017,213.4414,0.2157,0.2166,0.2167,0.2166,0.2167,0.2168,0.2166,0.2168,0.2165,0.2168,0.2165,213.4416,215.2083,left,1.7461,,215.2083,216.1582,right,0.9349,,6,0,6,216.1583,217.1582,0,2,2,2,1,prac_AB,L1_T1A_T2P,1,0,1,7,8,6,4,12,grapes,Did you see the grapes,0.23,0,resources/,pics/sailboat.jpg,pics/butterfly.jpg,pics/giraffe.jpg,pics/spoon01.jpg,pics/hose.jpg,pics/nutcracker01.jpg,pics/table01.jpg,pics/stapler13.jpg,pics/pencil01.jpg,pics/football.jpg,pics/triangle.jpg,pics/hairdryer02a.jpg,blankImage,blankImage,blankImage,blankImage,blankImage,grape01,6,,,,,,,,,,,,,,,,,,,,,,,,,,,,,,,,,,,,,,,,,,,,,,,,,,,,,,,,,,,,,,,,,,,,,,,,,,,,,,,,,,,,,,,,,,,,,,,,,,,,
,,,,,66310f1cfffdab7496cd1aa6,6682b41eeb79ab8215dff63d,6682bc570f780ca1ccd0354d,40,male,english,2024-07-01_09h31.52.092,ABmemTask3,2023.2.3,MacIntel,58.13953488,,,,,,,,,,,,,,,,,,,,,,,,,,,,,,,217.1721,218.1749,218.175,13,218.6751,221.7088,0.0018,221.9251,0.2153,0.2168,0.2166,0.2165,0.2167,0.2169,0.2165,0.2166,0.2169,0.2164,0.2169,221.9252,224.1576,right,2.212,,224.1577,225.7919,right,1.6188,,8,0,8,225.792,226.7919,0,3,3,3,1,prac_AB,L5_T1P_T2P,5,1,1,7,12,6,3,15,Human skull,Did you see the Human skull,0.22,0,resources/,pics/peach01.jpg,pics/proboscismonkey.jpg,pics/hose.jpg,pics/laptop01a.jpg,pics/hammerheadshark.jpg,pics/nutcracker01.jpg,pics/humanskull.jpg,pics/table01.jpg,pics/icecube01.jpg,pics/boot02b.jpg,pics/calendar.jpg,pics/stapler03a.jpg,pics/ashtray01.jpg,pics/giraffe.jpg,pics/dromedary.jpg,blankImage,blankImage,humanskull,12,0.2169,0.2163,0.2168,,,,,,,,,,,,,,,,,,,,,,,,,,,,,,,,,,,,,,,,,,,,,,,,,,,,,,,,,,,,,,,,,,,,,,,,,,,,,,,,,,,,,,,,,,,,,,,,,
,,,,,66310f1cfffdab7496cd1aa6,6682b41eeb79ab8215dff63d,6682bc570f780ca1ccd0354d,40,male,english,2024-07-01_09h31.52.092,ABmemTask3,2023.2.3,MacIntel,58.13953488,,,,,,,,,,,,,,,,,,,,,,,,,,,,,,,226.8066,227.8086,227.8087,12,228.3085,230.3092,0.0018,230.5085,0.1988,0.2002,0.1999,0.2001,0.1998,0.2001,0.2001,0.1999,0.2,0.2002,,230.5086,233.2253,left,2.6969,,233.2255,234.4588,right,1.2164,,10,0,10,234.4588,235.4588,0,4,4,4,1,prac_AB,L1_T1A_T2P,1,0,1,7,8,6,3,11,dog,Did you see the dog,0.21,0,resources/,pics/ball02.jpg,pics/binder03b.jpg,pics/dromedary.jpg,pics/shipinabottle.jpg,pics/proboscismonkey.jpg,pics/laptop01a.jpg,pics/chainsaw.jpg,pics/stapler13.jpg,pics/nutcracker01.jpg,pics/carrot01.jpg,pics/calendar.jpg,blankImage,blankImage,blankImage,blankImage,blankImage,blankImage,saintbernard,7,,,,,,,,,,,,,,,,,,,,,,,,,,,,,,,,,,,,,,,,,,,,,,,,,,,,,,,,,,,,,,,,,,,,,,,,,,,,,,,,,,,,,,,,,,,,,,,,,,,,
,,,,,66310f1cfffdab7496cd1aa6,6682b41eeb79ab8215dff63d,6682bc570f780ca1ccd0354d,40,male,english,2024-07-01_09h31.52.092,ABmemTask3,2023.2.3,MacIntel,58.13953488,,,,,,,,,,,,,,,,,,,,,,,,,,,,,,,235.4726,236.4756,236.4757,12,236.9755,239.776,0.0014,239.9757,0.1993,0.1999,0.2001,0.1999,0.2001,0.2,0.2,0.2001,0.1999,0.2001,0.1999,239.9758,243.1926,right,3.1927,,243.1928,243.9592,right,0.7514,,12,0,12,243.9593,244.9592,0,5,5,5,1,prac_AB,L5_T1P_T2P,5,1,1,5,10,4,5,15,grater,Did you see the grater,0.2,0,resources/,pics/pencil01.jpg,pics/laptop01a.jpg,pics/hammerheadshark.jpg,pics/cork02.jpg,pics/grater01a.jpg,pics/shipinabottle.jpg,pics/binder03b.jpg,pics/dromedary.jpg,pics/pictureframe04.jpg,pics/stapler04b.jpg,pics/fanblades.jpg,pics/aquarium.jpg,pics/hairdryer02a.jpg,pics/lightswitch01.jpg,pics/piggybank.jpg,blankImage,blankImage,grater01a,11,0.2001,0.1999,0.2,,,,,,,,,,,,,,,,,,,,,,,,,,,,,,,,,,,,,,,,,,,,,,,,,,,,,,,,,,,,,,,,,,,,,,,,,,,,,,,,,,,,,,,,,,,,,,,,,
,,,,,66310f1cfffdab7496cd1aa6,6682b41eeb79ab8215dff63d,6682bc570f780ca1ccd0354d,40,male,english,2024-07-01_09h31.52.092,ABmemTask3,2023.2.3,MacIntel,58.13953488,,,,,,,,,,,,,,,,,,,,,,,,,,,,,,,244.9721,245.9758,245.9759,11,246.4759,247.943,0.0015,248.1259,0.1824,0.1835,0.1832,0.1832,0.1835,0.1832,0.1834,0.1833,,,,248.1261,249.842,right,1.6944,,249.8421,250.6262,left,0.7681,,14,0,14,250.6264,251.6261,0,6,6,6,1,prac_AB,L1_T1P_T2A,1,1,0,4,5,3,4,9,chalk,Did you see the chalk,0.19,0,resources/,pics/necklace.jpg,pics/starfish01.jpg,pics/safetypin.jpg,pics/chalk.jpg,pics/candleholder01.jpg,pics/bowtie.jpg,pics/match.jpg,pics/candle01.jpg,pics/pencilsharpener02a.jpg,blankImage,blankImage,blankImage,blankImage,blankImage,blankImage,blankImage,blankImage,chalk,9,,,,,,,,,,,,,,,,,,,,,,,,,,,,,,,,,,,,,,,,,,,,,,,,,,,,,,,,,,,,,,,,,,,,,,,,,,,,,,,,,,,,,,,,,,,,,,,,,,,,
,,,,,66310f1cfffdab7496cd1aa6,6682b41eeb79ab8215dff63d,6682bc570f780ca1ccd0354d,40,male,english,2024-07-01_09h31.52.092,ABmemTask3,2023.2.3,MacIntel,58.13953488,,,,,,,,,,,,,,,,,,,,,,,,,,,,,,,251.6383,252.626,252.626,10,253.1262,254.6266,0.0018,254.7927,0.1656,0.1667,0.1667,0.1666,0.1667,0.1667,0.1666,0.1666,0.1668,,,254.7929,256.2929,left,1.4773,,256.293,257.1596,right,0.8516,,14,0,16,257.1597,258.1596,0,7,7,7,1,prac_AB,L1_T1P_T2P,1,1,1,5,6,4,4,10,pants,Did you see the pants,0.18,0,resources/,pics/kangaroo.jpg,pics/safetypin.jpg,pics/salmon.jpg,pics/sandbarshark.jpg,pics/pants.jpg,pics/stapler03a.jpg,pics/sink.jpg,pics/calendar.jpg,pics/butterfly.jpg,pics/fanblades.jpg,blankImage,blankImage,blankImage,blankImage,blankImage,blankImage,blankImage,pants,2,,,,,,,,,,,,,,,,,,,,,,,,,,,,,,,,,,,,,,,,,,,,,,,,,,,,,,,,,,,,,,,,,,,,,,,,,,,,,,,,,,,,,,,,,,,,,,,,,,,,
,,,,,66310f1cfffdab7496cd1aa6,6682b41eeb79ab8215dff63d,6682bc570f780ca1ccd0354d,40,male,english,2024-07-01_09h31.52.092,ABmemTask3,2023.2.3,MacIntel,58.13953488,,,,,,,,,,,,,,,,,,,,,,,,,,,,,,,258.1717,259.1597,259.1597,10,259.6596,261.9935,0.0016,262.1597,0.1658,0.1666,0.1666,0.1669,0.1666,0.1665,0.1667,0.1667,0.1665,0.167,0.1666,262.1599,263.793,left,1.6222,,263.793,264.5264,right,0.7208,,16,0,18,264.5264,265.5265,0,8,8,8,1,prac_AB,L5_T1A_T2P,5,0,1,7,12,6,3,15,shirt,Did you see the shirt,0.17,0,resources/,pics/banjo.jpg,pics/chainsaw.jpg,pics/sailboat.jpg,pics/shipinabottle.jpg,pics/lightswitch01.jpg,pics/starfish01.jpg,pics/hen.jpg,pics/ball02.jpg,pics/bowlingpin.jpg,pics/hammerheadshark.jpg,pics/footballhelmet.jpg,pics/stapler10.jpg,pics/laptop01a.jpg,pics/cannon.jpg,pics/golfball.jpg,blankImage,blankImage,shirt02,13,0.1666,0.1666,0.1667,,,,,,,,,,,,,,,,,,,,,,,,,,,,,,,,,,,,,,,,,,,,,,,,,,,,,,,,,,,,,,,,,,,,,,,,,,,,,,,,,,,,,,,,,,,,,,,,,
,,,,,66310f1cfffdab7496cd1aa6,6682b41eeb79ab8215dff63d,6682bc570f780ca1ccd0354d,40,male,english,2024-07-01_09h31.52.092,ABmemTask3,2023.2.3,MacIntel,58.13953488,,,,,,,,,,,,,,,,,,,,,,,,,,,,,,,265.5396,266.5433,266.5434,9,267.0432,268.5436,0.0012,268.6933,0.1493,0.15,0.1501,0.1499,0.1502,0.1502,0.15,0.1498,0.15,0.15,,268.6935,270.3933,right,1.6782,,270.3934,271.6768,right,1.2666,,18,0,20,271.6768,272.6767,0,9,9,9,1,prac_AB,L1_T1P_T2P,1,1,1,7,8,6,3,11,tongs,Did you see the tongs,0.16,0,resources/,pics/sewingmachine01a.jpg,pics/shovel01.jpg,pics/football.jpg,pics/hen.jpg,pics/banjo.jpg,pics/zebra.jpg,pics/tongs01b.jpg,pics/stapler11.jpg,pics/shipinabottle.jpg,pics/match.jpg,pics/candle01.jpg,blankImage,blankImage,blankImage,blankImage,blankImage,blankImage,tongs01b,5,,,,,,,,,,,,,,,,,,,,,,,,,,,,,,,,,,,,,,,,,,,,,,,,,,,,,,,,,,,,,,,,,,,,,,,,,,,,,,,,,,,,,,,,,,,,,,,,,,,,
,,,,,66310f1cfffdab7496cd1aa6,6682b41eeb79ab8215dff63d,6682bc570f780ca1ccd0354d,40,male,english,2024-07-01_09h31.52.092,ABmemTask3,2023.2.3,MacIntel,58.13953488,,,,,,,,,,,,,,,,,,,,,,,,,,,,,,,272.6906,273.6933,273.6934,9,274.1933,275.8439,0.0015,275.9934,0.1491,0.15,0.15,0.15,0.1506,0.1494,0.1501,0.1499,0.1502,0.1499,0.15,275.9936,278.3105,right,2.2958,,278.3106,279.0937,left,0.7728,,16,0,22,279.0938,280.0936,0,10,10,10,1,prac_AB,L1_T1A_T2A,1,0,0,7,8,6,4,12,camera,Did you see the camera,0.15,0,resources/,pics/lightswitch01.jpg,pics/table01.jpg,pics/aquarium.jpg,pics/boot02b.jpg,pics/butterfly.jpg,pics/chainsaw.jpg,pics/binoculars01b.jpg,pics/giraffe.jpg,pics/triangle.jpg,pics/microscope.jpg,pics/mummy.jpg,pics/icecube01.jpg,blankImage,blankImage,blankImage,blankImage,blankImage,camera01a,10,,,,,,,,,,,,,,,,,,,,,,,,,,,,,,,,,,,,,,,,,,,,,,,,,,,,,,,,,,,,,,,,,,,,,,,,,,,,,,,,,,,,,,,,,,,,,,,,,,,,
,,,,,66310f1cfffdab7496cd1aa6,6682b41eeb79ab8215dff63d,6682bc570f780ca1ccd0354d,40,male,english,2024-07-01_09h31.52.092,ABmemTask3,2023.2.3,MacIntel,58.13953488,,,,,,,,,,,,,,,,,,,,,,,,,,,,,,,280.1065,281.1103,281.1104,8,281.6102,282.8108,0.0016,282.9436,0.1324,0.1333,0.1334,0.1334,0.1333,0.1335,0.133,0.1335,0.1334,,,282.9438,284.3438,right,1.378,,284.3439,284.9771,right,0.6173,,18,0,24,284.9773,285.9771,0,11,11,11,1,prac_AB,L1_T1P_T2P,1,1,1,6,7,5,3,10,shorts,Did you see the shorts,0.14,0,resources/,pics/snowshoe.jpg,pics/chainsaw.jpg,pics/sailboat.jpg,pics/ball02.jpg,pics/candleholder01.jpg,pics/shorts01.jpg,pics/stapler07.jpg,pics/peach01.jpg,pics/proboscismonkey.jpg,pics/hen.jpg,blankImage,blankImage,blankImage,blankImage,blankImage,blankImage,blankImage,shorts01,4,,,,,,,,,,,,,,,,,,,,,,,,,,,,,,,,,,,,,,,,,,,,,,,,,,,,,,,,,,,,,,,,,,,,,,,,,,,,,,,,,,,,,,,,,,,,,,,,,,,,
,,,,,66310f1cfffdab7496cd1aa6,6682b41eeb79ab8215dff63d,6682bc570f780ca1ccd0354d,40,male,english,2024-07-01_09h31.52.092,ABmemTask3,2023.2.3,MacIntel,58.13953488,,,,,,,,,,,,,,,,,,,,,,,,,,,,,,,285.9907,286.9938,286.9939,8,287.4939,289.0942,0.0013,289.2272,0.1326,0.1333,0.1335,0.1332,0.1333,0.1334,0.1334,0.1332,0.1333,0.1334,0.1334,289.2273,291.5107,right,2.2583,,291.5107,292.3276,left,0.8012,,20,0,26,292.3276,293.3274,0,12,12,12,1,prac_AB,L5_T1P_T2A,5,1,0,5,10,4,3,13,fish,Did you see the fish,0.13,0,resources/,pics/football.jpg,pics/safetypin.jpg,pics/shovel01.jpg,pics/sink.jpg,pics/holdfast.jpg,pics/nutcracker01.jpg,pics/starfish01.jpg,pics/onion.jpg,pics/footballhelmet.jpg,pics/boot02b.jpg,pics/sewingmachine01a.jpg,pics/kangaroo.jpg,pics/banjo.jpg,blankImage,blankImage,blankImage,blankImage,holdfast,14,0.1332,,,,,,,,,,,,,,,,,,,,,,,,,,,,,,,,,,,,,,,,,,,,,,,,,,,,,,,,,,,,,,,,,,,,,,,,,,,,,,,,,,,,,,,,,,,,,,,,,,,
,,,,,66310f1cfffdab7496cd1aa6,6682b41eeb79ab8215dff63d,6682bc570f780ca1ccd0354d,40,male,english,2024-07-01_09h31.52.092,ABmemTask3,2023.2.3,MacIntel,58.13953488,,,,,,,,,,,,,,,,,,,,,,,,,,,,,,,293.3412,294.3545,294.3547,7,294.8441,295.8945,0.0013,296.0107,0.1159,0.1168,0.1167,0.1166,0.1167,0.1167,0.1167,0.1166,0.1167,,,296.0108,297.1943,right,1.1668,,297.1944,297.7775,right,0.5716,,22,0,28,297.7776,298.7776,0,13,13,13,1,prac_AB,L1_T1P_T2P,1,1,1,5,6,4,4,10,fish,Did you see the fish,0.12,0,resources/,pics/butterfly.jpg,pics/banjo.jpg,pics/leaf02a.jpg,pics/dustpan.jpg,pics/sturgeon.jpg,pics/stapler02.jpg,pics/necklace.jpg,pics/shovel01.jpg,pics/starfish01.jpg,pics/chainsaw.jpg,blankImage,blankImage,blankImage,blankImage,blankImage,blankImage,blankImage,sturgeon,3,,,,,,,,,,,,,,,,,,,,,,,,,,,,,,,,,,,,,,,,,,,,,,,,,,,,,,,,,,,,,,,,,,,,,,,,,,,,,,,,,,,,,,,,,,,,,,,,,,,,
,,,,,66310f1cfffdab7496cd1aa6,6682b41eeb79ab8215dff63d,6682bc570f780ca1ccd0354d,40,male,english,2024-07-01_09h31.52.092,ABmemTask3,2023.2.3,MacIntel,58.13953488,,,,,,,,,,,,,,,,,,,,,,,,,,,,,,,,,,,,,,,,,,,,,,,,,,,,,,,,,,,,,,,,,,,,,,,,,,,,,,,,,,,,,,,,,,,,,,,,,,,,,,,,,,,298.7787,306.9451,space,8.1509,,,,,,,,,,,,,,,,,,,,,,,,,,,,,,,,,,,,,,,,,,,,,,,,,,,,,,,,,,,,,,,,,,,,,,,,,,,,,,,,,,,,,,,,,,,,,
,,,,,66310f1cfffdab7496cd1aa6,6682b41eeb79ab8215dff63d,6682bc570f780ca1ccd0354d,40,male,english,2024-07-01_09h31.52.092,ABmemTask3,2023.2.3,MacIntel,58.13953488,,,,,,,,,,,,,,,,,,,,,,,,,,,,,,,,,,,,,,,,,,,,,,,,,,,,,,,,,,,,,,,,,,,,,,,,,,,,,,,,,,,,,,,,,,,,,,,,,,,,,,,,,,,306.9597,306.9624,,,,,,,,,,,,,,,,,,,,,,,,,,,,,,,,,,,,,,,,,,,,,,,,,,,,,,,,,,,,,,,,,,,,,,,,,,,,,,,,,,,,,,,,,,,,,,,
,,,,,66310f1cfffdab7496cd1aa6,6682b41eeb79ab8215dff63d,6682bc570f780ca1ccd0354d,40,male,english,2024-07-01_09h31.52.092,ABmemTask3,2023.2.3,MacIntel,58.13953488,,,,,,,,,,,,,,,,,,,,,,,,,,,,,,,,,,,,,,,,,,,,,,,,,,,,,,,,,,,,,,,,,,,,,,,,,,,,,,,,,,,,,,,,,,,,,,,,,,,,,,,,,,,306.9645,306.9646,,,,,,,,,,,,,,,,,,,,,,,,,,,,,,,,,,,,,,,,,,,,,,,,,,,,,,,,,,,,,,,,,,,,,,,,,,,,,,,,,,,,,,,,,,,,,,,
,,,,,66310f1cfffdab7496cd1aa6,6682b41eeb79ab8215dff63d,6682bc570f780ca1ccd0354d,40,male,english,2024-07-01_09h31.52.092,ABmemTask3,2023.2.3,MacIntel,58.13953488,,,,,,,,,,,,,,,,,,,,,,,,,,,,,,,,,,,,,,,,,,,,,,,,,,,,,,,,,,,,,,,,,,,,,,,,,,,,,,,,,,,,,,,,,,,,,,,,,,,,,,,,,,,306.9661,306.9661,,,,,,,,,,,,,,,,,,,,,,,,,,,,,,,,,,,,,,,,,,,,,,,,,,,,,,,,,,,,,,,,,,,,,,,,,,,,,,,,,,,,,,,,,,,,,,,
,,,,,66310f1cfffdab7496cd1aa6,6682b41eeb79ab8215dff63d,6682bc570f780ca1ccd0354d,40,male,english,2024-07-01_09h31.52.092,ABmemTask3,2023.2.3,MacIntel,58.13953488,,,,,,,,,,,,,,,,,,,,,,,,,,,,,,,,,,,,,,,,,,,,,,,,,,,,,,,,,,,,,,,,,,,,,,,,,,,,,,,,,,,,,,,,,,,,,,,,,,,,,,,,,,,306.9682,306.9682,,,,,,,,,,,,,,,,,,,,,,,,,,,,,,,,,,,,,,,,,,,,,,,,,,,,,,,,,,,,,,,,,,,,,,,,,,,,,,,,,,,,,,,,,,,,,,,
,,,,,66310f1cfffdab7496cd1aa6,6682b41eeb79ab8215dff63d,6682bc570f780ca1ccd0354d,40,male,english,2024-07-01_09h31.52.092,ABmemTask3,2023.2.3,MacIntel,58.13953488,,,,,,,,,,,,,,,,,,,,,,,,,,,,,,,,,,,,,,,,,,,,,,,,,,,,,,,,,,,,,,,,,,,,,,,,,,,,,,,,,,,,,,,,,,,,,,,,,,,,,,,,,,,306.9696,306.9697,,,,,,,,,,,,,,,,,,,,,,,,,,,,,,,,,,,,,,,,,,,,,,,,,,,,,,,,,,,,,,,,,,,,,,,,,,,,,,,,,,,,,,,,,,,,,,,
,,,,,66310f1cfffdab7496cd1aa6,6682b41eeb79ab8215dff63d,6682bc570f780ca1ccd0354d,40,male,english,2024-07-01_09h31.52.092,ABmemTask3,2023.2.3,MacIntel,58.13953488,,,,,,,,,,,,,,,,,,,,,,,,,,,,,,,,,,,,,,,,,,,,,,,,,,,,,,,,,,,,,,,,,,,,,,,,,,,,,,,,,,,,,,,,,,,,,,,,,,,,,,,,,,,306.9708,306.9708,,,,,,,,,,,,,,,,,,,,,,,,,,,,,,,,,,,,,,,,,,,,,,,,,,,,,,,,,,,,,,,,,,,,,,,,,,,,,,,,,,,,,,,,,,,,,,,
,,,,,66310f1cfffdab7496cd1aa6,6682b41eeb79ab8215dff63d,6682bc570f780ca1ccd0354d,40,male,english,2024-07-01_09h31.52.092,ABmemTask3,2023.2.3,MacIntel,58.13953488,,,,,,,,,,,,,,,,,,,,,,,,,,,,,,,,,,,,,,,,,,,,,,,,,,,,,,,,,,,,,,,,,,,,,,,,,,,,,,,,,,,,,,,,,,,,,,,,,,,,,,,,,,,306.9725,306.9726,,,,,,,,,,,,,,,,,,,,,,,,,,,,,,,,,,,,,,,,,,,,,,,,,,,,,,,,,,,,,,,,,,,,,,,,,,,,,,,,,,,,,,,,,,,,,,,
,,,,,66310f1cfffdab7496cd1aa6,6682b41eeb79ab8215dff63d,6682bc570f780ca1ccd0354d,40,male,english,2024-07-01_09h31.52.092,ABmemTask3,2023.2.3,MacIntel,58.13953488,,,,,,,,,,,,,,,,,,,,,,,,,,,,,,,,,,,,,,,,,,,,,,,,,,,,,,,,,,,,,,,,,,,,,,,,,,,,,,,,,,,,,,,,,,,,,,,,,,,,,,,,,,,306.9738,306.9738,,,,,,,,,,,,,,,,,,,,,,,,,,,,,,,,,,,,,,,,,,,,,,,,,,,,,,,,,,,,,,,,,,,,,,,,,,,,,,,,,,,,,,,,,,,,,,,
,,,,,66310f1cfffdab7496cd1aa6,6682b41eeb79ab8215dff63d,6682bc570f780ca1ccd0354d,40,male,english,2024-07-01_09h31.52.092,ABmemTask3,2023.2.3,MacIntel,58.13953488,,,,,,,,,,,,,,,,,,,,,,,,,,,,,,,,,,,,,,,,,,,,,,,,,,,,,,,,,,,,,,,,,,,,,,,,,,,,,,,,,,,,,,,,,,,,,,,,,,,,,,,,,,,306.9749,306.9749,,,,,,,,,,,,,,,,,,,,,,,,,,,,,,,,,,,,,,,,,,,,,,,,,,,,,,,,,,,,,,,,,,,,,,,,,,,,,,,,,,,,,,,,,,,,,,,
,,,,,66310f1cfffdab7496cd1aa6,6682b41eeb79ab8215dff63d,6682bc570f780ca1ccd0354d,40,male,english,2024-07-01_09h31.52.092,ABmemTask3,2023.2.3,MacIntel,58.13953488,,,,,,,,,,,,,,,,,,,,,,,,,,,,,,,,,,,,,,,,,,,,,,,,,,,,,,,,,,,,,,,,,,,,,,,,,,,,,,,,,,,,,,,,,,,,,,,,,,,,,,,,,,,306.9757,306.9758,,,,,,,,,,,,,,,,,,,,,,,,,,,,,,,,,,,,,,,,,,,,,,,,,,,,,,,,,,,,,,,,,,,,,,,,,,,,,,,,,,,,,,,,,,,,,,,
,,,,,66310f1cfffdab7496cd1aa6,6682b41eeb79ab8215dff63d,6682bc570f780ca1ccd0354d,40,male,english,2024-07-01_09h31.52.092,ABmemTask3,2023.2.3,MacIntel,58.13953488,,,,,,,,,,,,,,,,,,,,,,,,,,,,,,,,,,,,,,,,,,,,,,,,,,,,,,,,,,,,,,,,,,,,,,,,,,,,,,,,,,,,,,,,,,,,,,,,,,,,,,,,,,,306.9771,306.9771,,,,,,,,,,,,,,,,,,,,,,,,,,,,,,,,,,,,,,,,,,,,,,,,,,,,,,,,,,,,,,,,,,,,,,,,,,,,,,,,,,,,,,,,,,,,,,,
,,,,,66310f1cfffdab7496cd1aa6,6682b41eeb79ab8215dff63d,6682bc570f780ca1ccd0354d,40,male,english,2024-07-01_09h31.52.092,ABmemTask3,2023.2.3,MacIntel,58.13953488,,,,,,,,,,,,,,,,,,,,,,,,,,,,,,,,,,,,,,,,,,,,,,,,,,,,,,,,,,,,,,,,,,,,,,,,,,,,,,,,,,,,,,,,,,,,,,,,,,,,,,,,,,,306.978,306.978,,,,,,,,,,,,,,,,,,,,,,,,,,,,,,,,,,,,,,,,,,,,,,,,,,,,,,,,,,,,,,,,,,,,,,,,,,,,,,,,,,,,,,,,,,,,,,,
,,,,,66310f1cfffdab7496cd1aa6,6682b41eeb79ab8215dff63d,6682bc570f780ca1ccd0354d,40,male,english,2024-07-01_09h31.52.092,ABmemTask3,2023.2.3,MacIntel,58.13953488,,,,,,,,,,,,,,,,,,,,,,,,,,,,,,,,,,,,,,,,,,,,,,,,,,,,,,,,,,,,,,,,,,,,,,,,,,,,,,,,,,,,,,,,,,,,,,,,,,,,,,,,,,,306.979,306.979,,,,,,,,,,,,,,,,,,,,,,,,,,,,,,,,,,,,,,,,,,,,,,,,,,,,,,,,,,,,,,,,,,,,,,,,,,,,,,,,,,,,,,,,,,,,,,,
,,,,,66310f1cfffdab7496cd1aa6,6682b41eeb79ab8215dff63d,6682bc570f780ca1ccd0354d,40,male,english,2024-07-01_09h31.52.092,ABmemTask3,2023.2.3,MacIntel,58.13953488,,,,,,,,,,,,,,,,,,,,,,,,,,,,,,,,,,,,,,,,,,,,,,,,,,,,,,,,,,,,,,,,,,,,,,,,,,,,,,,,,,,,,,,,,,,,,,,,,,,,,,,,,,,306.9804,306.9805,,,,,,,,,,,,,,,,,,,,,,,,,,,,,,,,,,,,,,,,,,,,,,,,,,,,,,,,,,,,,,,,,,,,,,,,,,,,,,,,,,,,,,,,,,,,,,,
,,,,,66310f1cfffdab7496cd1aa6,6682b41eeb79ab8215dff63d,6682bc570f780ca1ccd0354d,40,male,english,2024-07-01_09h31.52.092,ABmemTask3,2023.2.3,MacIntel,58.13953488,,,,,,,,,,,,,,,,,,,,,,,,,,,,,,,,,,,,,,,,,,,,,,,,,,,,,,,,,,,,,,,,,,,,,,,,,,,,,,,,,,,,,,,,,,,,,,,,,,,,,,,,,,,306.9814,306.9814,,,,,,,,,,,,,,,,,,,,,,,,,,,,,,,,,,,,,,,,,,,,,,,,,,,,,,,,,,,,,,,,,,,,,,,,,,,,,,,,,,,,,,,,,,,,,,,
,,,,,66310f1cfffdab7496cd1aa6,6682b41eeb79ab8215dff63d,6682bc570f780ca1ccd0354d,40,male,english,2024-07-01_09h31.52.092,ABmemTask3,2023.2.3,MacIntel,58.13953488,,,,,,,,,,,,,,,,,,,,,,,,,,,,,,,,,,,,,,,,,,,,,,,,,,,,,,,,,,,,,,,,,,,,,,,,,,,,,,,,,,,,,,,,,,,,,,,,,,,,,,,,,,,306.9823,306.9823,,,,,,,,,,,,,,,,,,,,,,,,,,,,,,,,,,,,,,,,,,,,,,,,,,,,,,,,,,,,,,,,,,,,,,,,,,,,,,,,,,,,,,,,,,,,,,,
,,,,,66310f1cfffdab7496cd1aa6,6682b41eeb79ab8215dff63d,6682bc570f780ca1ccd0354d,40,male,english,2024-07-01_09h31.52.092,ABmemTask3,2023.2.3,MacIntel,58.13953488,,,,,,,,,,,,,,,,,,,,,,,,,,,,,,,,,,,,,,,,,,,,,,,,,,,,,,,,,,,,,,,,,,,,,,,,,,,,,,,,,,,,,,,,,,,,,,,,,,,,,,,,,,,306.9833,306.9833,,,,,,,,,,,,,,,,,,,,,,,,,,,,,,,,,,,,,,,,,,,,,,,,,,,,,,,,,,,,,,,,,,,,,,,,,,,,,,,,,,,,,,,,,,,,,,,
,,,,,66310f1cfffdab7496cd1aa6,6682b41eeb79ab8215dff63d,6682bc570f780ca1ccd0354d,40,male,english,2024-07-01_09h31.52.092,ABmemTask3,2023.2.3,MacIntel,58.13953488,,,,,,,,,,,,,,,,,,,,,,,,,,,,,,,,,,,,,,,,,,,,,,,,,,,,,,,,,,,,,,,,,,,,,,,,,,,,,,,,,,,,,,,,,,,,,,,,,,,,,,,,,,,306.9847,306.9847,,,,,,,,,,,,,,,,,,,,,,,,,,,,,,,,,,,,,,,,,,,,,,,,,,,,,,,,,,,,,,,,,,,,,,,,,,,,,,,,,,,,,,,,,,,,,,,
,,,,,66310f1cfffdab7496cd1aa6,6682b41eeb79ab8215dff63d,6682bc570f780ca1ccd0354d,40,male,english,2024-07-01_09h31.52.092,ABmemTask3,2023.2.3,MacIntel,58.13953488,,,,,,,,,,,,,,,,,,,,,,,,,,,,,,,,,,,,,,,,,,,,,,,,,,,,,,,,,,,,,,,,,,,,,,,,,,,,,,,,,,,,,,,,,,,,,,,,,,,,,,,,,,,306.9855,306.9855,,,,,,,,,,,,,,,,,,,,,,,,,,,,,,,,,,,,,,,,,,,,,,,,,,,,,,,,,,,,,,,,,,,,,,,,,,,,,,,,,,,,,,,,,,,,,,,
,,,,,66310f1cfffdab7496cd1aa6,6682b41eeb79ab8215dff63d,6682bc570f780ca1ccd0354d,40,male,english,2024-07-01_09h31.52.092,ABmemTask3,2023.2.3,MacIntel,58.13953488,,,,,,,,,,,,,,,,,,,,,,,,,,,,,,,,,,,,,,,,,,,,,,,,,,,,,,,,,,,,,,,,,,,,,,,,,,,,,,,,,,,,,,,,,,,,,,,,,,,,,,,,,,,306.9865,306.9865,,,,,,,,,,,,,,,,,,,,,,,,,,,,,,,,,,,,,,,,,,,,,,,,,,,,,,,,,,,,,,,,,,,,,,,,,,,,,,,,,,,,,,,,,,,,,,,
,,,,,66310f1cfffdab7496cd1aa6,6682b41eeb79ab8215dff63d,6682bc570f780ca1ccd0354d,40,male,english,2024-07-01_09h31.52.092,ABmemTask3,2023.2.3,MacIntel,58.13953488,,,,,,,,,,,,,,,,,,,,,,,,,,,,,,,,,,,,,,,,,,,,,,,,,,,,,,,,,,,,,,,,,,,,,,,,,,,,,,,,,,,,,,,,,,,,,,,,,,,,,,,,,,,306.9871,306.9871,,,,,,,,,,,,,,,,,,,,,,,,,,,,,,,,,,,,,,,,,,,,,,,,,,,,,,,,,,,,,,,,,,,,,,,,,,,,,,,,,,,,,,,,,,,,,,,
,,,,,66310f1cfffdab7496cd1aa6,6682b41eeb79ab8215dff63d,6682bc570f780ca1ccd0354d,40,male,english,2024-07-01_09h31.52.092,ABmemTask3,2023.2.3,MacIntel,58.13953488,,,,,,,,,,,,,,,,,,,,,,,,,,,,,,,,,,,,,,,,,,,,,,,,,,,,,,,,,,,,,,,,,,,,,,,,,,,,,,,,,,,,,,,,,,,,,,,,,,,,,,,,,,,,,,,,306.9872,341.8802,space,34.8675,,,,,,,,,,,,,,,,,,,,,,,,,,,,,,,,,,,,,,,,,,,,,,,,,,,,,,,,,,,,,,,,,,,,,,,,,,,,,,,,,,,,,,,,
,,,,,66310f1cfffdab7496cd1aa6,6682b41eeb79ab8215dff63d,6682bc570f780ca1ccd0354d,40,male,english,2024-07-01_09h31.52.092,ABmemTask3,2023.2.3,MacIntel,58.13953488,,,,,,,,,,,,,,,,,,,,,,,,,,,,,,,,,341.8918,581,342.3956,,,,,,,,,,,,,,,,,,,,,,,,,,0,,,,,,,,,prac_MEM,old,,,,,,,,,,,10,,,,,,,,,,,,,,,,,,,,,,,,,,,,,,,,,,,342.3959,353.3968,3,6,10.9767,,353.3979,354.3887,0,0,0,4,1,5,1,pics/tongs01b.jpg,,,,,,,,,,,,,,,,,,,,,,,,,,,,,,,,,,,,,,,,,,,,,,,,,,,,,,,,,,,,,,,,,,,,,,,
,,,,,66310f1cfffdab7496cd1aa6,6682b41eeb79ab8215dff63d,6682bc570f780ca1ccd0354d,40,male,english,2024-07-01_09h31.52.092,ABmemTask3,2023.2.3,MacIntel,58.13953488,,,,,,,,,,,,,,,,,,,,,,,,,,,,,,,,,354.4003,581,354.896,,,,,,,,,,,,,,,,,,,,,,,,,,0,,,,,,,,,prac_MEM,old,,,,,,,,,,,10,,,,,,,,,,,,,,,,,,,,,,,,,,,,,,,,,,,354.896,356.3964,6,6,1.4795,,356.3966,357.3961,0,1,1,5,1,11,5,pics/grater01a.jpg,,,,,,,,,,,,,,,,,,,,,,,,,,,,,,,,,,,,,,,,,,,,,,,,,,,,,,,,,,,,,,,,,,,,,,,
,,,,,66310f1cfffdab7496cd1aa6,6682b41eeb79ab8215dff63d,6682bc570f780ca1ccd0354d,40,male,english,2024-07-01_09h31.52.092,ABmemTask3,2023.2.3,MacIntel,58.13953488,,,,,,,,,,,,,,,,,,,,,,,,,,,,,,,,,357.3971,581,357.8962,,,,,,,,,,,,,,,,,,,,,,,,,,0,,,,,,,,,prac_MEM,new,,,,,,,,,,,10,,,,,,,,,,,,,,,,,,,,,,,,,,,,,,,,,,,357.8963,362.6796,9,1,4.7617,,362.6803,363.6797,0,2,2,8,1,999,999,pics/thread02.jpg,,,,,,,,,,,,,,,,,,,,,,,,,,,,,,,,,,,,,,,,,,,,,,,,,,,,,,,,,,,,,,,,,,,,,,,
,,,,,66310f1cfffdab7496cd1aa6,6682b41eeb79ab8215dff63d,6682bc570f780ca1ccd0354d,40,male,english,2024-07-01_09h31.52.092,ABmemTask3,2023.2.3,MacIntel,58.13953488,,,,,,,,,,,,,,,,,,,,,,,,,,,,,,,,,363.6928,581,364.1963,,,,,,,,,,,,,,,,,,,,,,,,,,0,,,,,,,,,prac_MEM,old,,,,,,,,,,,10,,,,,,,,,,,,,,,,,,,,,,,,,,,,,,,,,,,364.1963,367.9133,12,6,3.7075,,367.9141,368.9132,0,3,3,6,1,12,5,pics/humanskull.jpg,,,,,,,,,,,,,,,,,,,,,,,,,,,,,,,,,,,,,,,,,,,,,,,,,,,,,,,,,,,,,,,,,,,,,,,
,,,,,66310f1cfffdab7496cd1aa6,6682b41eeb79ab8215dff63d,6682bc570f780ca1ccd0354d,40,male,english,2024-07-01_09h31.52.092,ABmemTask3,2023.2.3,MacIntel,58.13953488,,,,,,,,,,,,,,,,,,,,,,,,,,,,,,,,,368.9264,581,369.4298,,,,,,,,,,,,,,,,,,,,,,,,,,0,,,,,,,,,prac_MEM,old,,,,,,,,,,,10,,,,,,,,,,,,,,,,,,,,,,,,,,,,,,,,,,,369.4299,372.3633,15,6,2.913,,372.3641,373.3635,0,4,4,2,1,3,1,pics/sturgeon.jpg,,,,,,,,,,,,,,,,,,,,,,,,,,,,,,,,,,,,,,,,,,,,,,,,,,,,,,,,,,,,,,,,,,,,,,,
,,,,,66310f1cfffdab7496cd1aa6,6682b41eeb79ab8215dff63d,6682bc570f780ca1ccd0354d,40,male,english,2024-07-01_09h31.52.092,ABmemTask3,2023.2.3,MacIntel,58.13953488,,,,,,,,,,,,,,,,,,,,,,,,,,,,,,,,,373.3639,581,373.8632,,,,,,,,,,,,,,,,,,,,,,,,,,0,,,,,,,,,prac_MEM,old,,,,,,,,,,,10,,,,,,,,,,,,,,,,,,,,,,,,,,,,,,,,,,,373.8634,375.2134,18,6,1.3301,,375.2137,376.2134,0,5,5,1,1,2,1,pics/pants.jpg,,,,,,,,,,,,,,,,,,,,,,,,,,,,,,,,,,,,,,,,,,,,,,,,,,,,,,,,,,,,,,,,,,,,,,,
,,,,,66310f1cfffdab7496cd1aa6,6682b41eeb79ab8215dff63d,6682bc570f780ca1ccd0354d,40,male,english,2024-07-01_09h31.52.092,ABmemTask3,2023.2.3,MacIntel,58.13953488,,,,,,,,,,,,,,,,,,,,,,,,,,,,,,,,,376.2139,581,376.7135,,,,,,,,,,,,,,,,,,,,,,,,,,0,,,,,,,,,prac_MEM,new,,,,,,,,,,,10,,,,,,,,,,,,,,,,,,,,,,,,,,,,,,,,,,,376.7135,380.7809,21,1,4.0578,,380.7816,381.7804,0,6,6,7,1,999,999,pics/cherry01.jpg,,,,,,,,,,,,,,,,,,,,,,,,,,,,,,,,,,,,,,,,,,,,,,,,,,,,,,,,,,,,,,,,,,,,,,,
,,,,,66310f1cfffdab7496cd1aa6,6682b41eeb79ab8215dff63d,6682bc570f780ca1ccd0354d,40,male,english,2024-07-01_09h31.52.092,ABmemTask3,2023.2.3,MacIntel,58.13953488,,,,,,,,,,,,,,,,,,,,,,,,,,,,,,,,,381.7935,581,382.2969,,,,,,,,,,,,,,,,,,,,,,,,,,0,,,,,,,,,prac_MEM,old,,,,,,,,,,,10,,,,,,,,,,,,,,,,,,,,,,,,,,,,,,,,,,,382.2969,384.2138,24,6,1.9068,,384.2146,385.2138,0,7,7,3,1,4,1,pics/shorts01.jpg,,,,,,,,,,,,,,,,,,,,,,,,,,,,,,,,,,,,,,,,,,,,,,,,,,,,,,,,,,,,,,,,,,,,,,,
,,,,,66310f1cfffdab7496cd1aa6,6682b41eeb79ab8215dff63d,6682bc570f780ca1ccd0354d,40,male,english,2024-07-01_09h31.52.092,ABmemTask3,2023.2.3,MacIntel,58.13953488,,,,,,,,,,,,,,,,,,,,,,,,,,,,,,,,,385.2142,581,385.7137,,,,,,,,,,,,,,,,,,,,,,,,,,0,,,,,,,,,prac_MEM,new,,,,,,,,,,,10,,,,,,,,,,,,,,,,,,,,,,,,,,,,,,,,,,,385.7138,387.0471,15,6,1.3141,,387.0474,388.0472,0,8,8,9,1,999,999,pics/moth.jpg,,,,,,,,,,,,,,,,,,,,,,,,,,,,,,,,,,,,,,,,,,,,,,,,,,,,,,,,,,,,,,,,,,,,,,,
,,,,,66310f1cfffdab7496cd1aa6,6682b41eeb79ab8215dff63d,6682bc570f780ca1ccd0354d,40,male,english,2024-07-01_09h31.52.092,ABmemTask3,2023.2.3,MacIntel,58.13953488,,,,,,,,,,,,,,,,,,,,,,,,,,,,,,,,,388.0477,581,388.5471,,,,,,,,,,,,,,,,,,,,,,,,,,0,,,,,,,,,prac_MEM,old,,,,,,,,,,,10,,,,,,,,,,,,,,,,,,,,,,,,,,,,,,,,,,,388.5472,390.9473,18,6,2.39,,390.9483,391.9472,0,9,9,0,1,1,1,pics/tree.jpg,,,,,,,,,,,,,,,,,,,,,,,,,,,,,,,,,,,,,,,,,,,,,,,,,,,,,,,,,,,,,,,,,,,,,,,
,,,,,66310f1cfffdab7496cd1aa6,6682b41eeb79ab8215dff63d,6682bc570f780ca1ccd0354d,40,male,english,2024-07-01_09h31.52.092,ABmemTask3,2023.2.3,MacIntel,58.13953488,,,,,,,,,,,,,,,,,,,,,,,,,,,,,,,,,391.9606,581,392.4638,,,,,,,,,,,,,,,,,,,,,,,,,,0,,,,,,,,,prac_MEM,new,,,,,,,,,,,10,,,,,,,,,,,,,,,,,,,,,,,,,,,,,,,,,,,392.4638,396.1473,21,1,3.6736,,396.148,397.1475,0,10,10,10,1,999,999,pics/tomato01.jpg,,,,,,,,,,,,,,,,,,,,,,,,,,,,,,,,,,,,,,,,,,,,,,,,,,,,,,,,,,,,,,,,,,,,,,,
,,,,,66310f1cfffdab7496cd1aa6,6682b41eeb79ab8215dff63d,6682bc570f780ca1ccd0354d,40,male,english,2024-07-01_09h31.52.092,ABmemTask3,2023.2.3,MacIntel,58.13953488,,,,,,,,,,,,,,,,,,,,,,,,,,,,,,,,,,,,,,,,,,,,,,,,,,,,,,,,,,,,,,,,,,,,,,,,,,,,,,,,,,,,,,,,,,,,,,,,,,,,,,,,,,,,,,,,,,,,,,,,,,,,,,,,,,,,,397.1479,404.2476,404.2476,404.2484,,,,,,,,,,,,,,,,,,,,,,,,,,,,,,,,,,,,,,,,,,,,,,,,,,,,,,,,,,,,,,,,,,,
,,,,,66310f1cfffdab7496cd1aa6,6682b41eeb79ab8215dff63d,6682bc570f780ca1ccd0354d,40,male,english,2024-07-01_09h31.52.092,ABmemTask3,2023.2.3,MacIntel,58.13953488,,,,,,,,,,,,,,,,,,space,45.9919,,,,,,,,,,,,,,,,,,,,,,,,,,,,,,,,,,,,,,,,,,,,,,,,,,,,,,,,,,,,,,,,,,,,,,,,,,,,,,,,,,,,,,,,,,,,,,,,,,,,,,,,,,,,,,,,,,,,,,404.2484,450.2659,,,,,,,,,,,,,,,,,,,,,,,,,,,,,,,,,,,,,,,,,,,,,,,,,,,,,,,,,,,,,,,,,
,,,,,66310f1cfffdab7496cd1aa6,6682b41eeb79ab8215dff63d,6682bc570f780ca1ccd0354d,40,male,english,2024-07-01_09h31.52.092,ABmemTask3,2023.2.3,MacIntel,58.13953488,,,,,,,,,,,,,,,,,,,,,,,,,,,,,,,,,,,,,,,,,,,,,,,,,,,,,,,,,,,,,,,,,,,,,,,,,,,,,,,,,,,,,,,,,,,,,,,,,,,,,,,,,,,,,,,,,,,,,,,,,,,,,,,,,,,,,,,,,,,450.2662,469.9843,space,19.675,,,,,,,,,,,,,,,,,,,,,,,,,,,,,,,,,,,,,,,,,,,,,,,,,,,,,,,,,,,,,
,,,,,66310f1cfffdab7496cd1aa6,6682b41eeb79ab8215dff63d,6682bc570f780ca1ccd0354d,40,male,english,2024-07-01_09h31.52.092,ABmemTask3,2023.2.3,MacIntel,58.13953488,,,,,,,,,,,,,,,,,,,,,,,,,,,,,,,469.9952,470.983,470.9832,7,471.4832,472.6501,0.0016,472.7665,0.1158,0.1165,0.1167,0.1166,0.1168,0.1166,0.1167,0.1166,0.1167,0.1165,,472.7667,476.2994,right,3.5126,,476.2994,477.1834,right,0.8668,,2,0,2,477.1834,478.1832,,,,,,1_AB,L1_T1P_T2P,1,1,1,7,8,6,3,11,sock,Did you see the sock,0.12,0,resources/,pics/hen.jpg,pics/christmaslights.jpg,pics/salmon.jpg,pics/sealion.jpg,pics/seaturtle.jpg,pics/giraffe.jpg,pics/athleticsock.jpg,pics/stapler01.jpg,pics/shovel01.jpg,pics/leaf02a.jpg,pics/backpack01a.jpg,blankImage,blankImage,blankImage,blankImage,blankImage,blankImage,athleticsock,11,,,,,,,,,,,,,,,,,,,,,,,,,,,,,,,,,,,,,,,,,0,0,0,10,1,,,,,,,,,,,,,,,,,,,,,,,,,,,,,,,,,,,,,,,,,,,,,,,,,,,,,,,
,,,,,66310f1cfffdab7496cd1aa6,6682b41eeb79ab8215dff63d,6682bc570f780ca1ccd0354d,40,male,english,2024-07-01_09h31.52.092,ABmemTask3,2023.2.3,MacIntel,58.13953488,,,,,,,,,,,,,,,,,,,,,,,,,,,,,,,478.1956,479.1833,479.1833,7,479.6834,480.6172,0.0017,480.7333,0.1155,0.1169,0.1165,0.1167,0.1166,0.1167,0.1166,0.1168,,,,480.7335,483.2837,right,2.5296,,483.2838,483.9169,right,0.6162,,4,0,4,483.917,484.917,,,,,,1_AB,L1_T1P_T2P,1,1,1,5,6,4,3,9,Ant,Did you see the Ant,0.12,0,resources/,pics/kangaroo.jpg,pics/giraffe.jpg,pics/footballhelmet.jpg,pics/onion.jpg,pics/ant.jpg,pics/stapler04b.jpg,pics/banjo.jpg,pics/zebra.jpg,pics/dromedary.jpg,blankImage,blankImage,blankImage,blankImage,blankImage,blankImage,blankImage,blankImage,ant,15,,,,,,,,,,,,,,,,,,,,,,,,,,,,,,,,,,,,,,,,,0,1,1,14,1,,,,,,,,,,,,,,,,,,,,,,,,,,,,,,,,,,,,,,,,,,,,,,,,,,,,,,,
,,,,,66310f1cfffdab7496cd1aa6,6682b41eeb79ab8215dff63d,6682bc570f780ca1ccd0354d,40,male,english,2024-07-01_09h31.52.092,ABmemTask3,2023.2.3,MacIntel,58.13953488,,,,,,,,,,,,,,,,,,,,,,,,,,,,,,,484.9298,485.9336,485.9336,7,486.4338,487.3674,0.0013,487.4836,0.1159,0.1166,0.1166,0.1168,0.1167,0.1166,0.1167,0.1168,,,,487.4838,489.484,left,1.9742,,489.4841,491.034,left,1.5334,,4,0,6,491.034,492.0338,,,,,,1_AB,L1_T1A_T2P,1,0,1,5,6,4,3,9,Trailer,Did you see the Trailer,0.12,0,resources/,pics/pencil01.jpg,pics/football.jpg,pics/hairdryer02a.jpg,pics/wheel01.jpg,pics/chainsaw.jpg,pics/stapler10.jpg,pics/peanut01.jpg,pics/triangle.jpg,pics/sink.jpg,blankImage,blankImage,blankImage,blankImage,blankImage,blankImage,blankImage,blankImage,boxtrailer,29,,,,,,,,,,,,,,,,,,,,,,,,,,,,,,,,,,,,,,,,,0,2,2,28,1,,,,,,,,,,,,,,,,,,,,,,,,,,,,,,,,,,,,,,,,,,,,,,,,,,,,,,,
,,,,,66310f1cfffdab7496cd1aa6,6682b41eeb79ab8215dff63d,6682bc570f780ca1ccd0354d,40,male,english,2024-07-01_09h31.52.092,ABmemTask3,2023.2.3,MacIntel,58.13953488,,,,,,,,,,,,,,,,,,,,,,,,,,,,,,,492.047,493.0505,493.0505,7,493.5505,494.9509,0.0012,495.0672,0.1161,0.1168,0.1166,0.1165,0.1168,0.117,0.1164,0.1168,0.1165,0.1166,0.1168,495.0672,498.2674,right,3.1748,,498.2675,498.9507,right,0.667,,6,0,8,498.9508,499.9507,,,,,,1_AB,L1_T1P_T2P,1,1,1,7,8,6,5,13,Totem Pole,Did you see the Totem Pole,0.12,0,resources/,pics/laptop01a.jpg,pics/carrot01.jpg,pics/wheel01.jpg,pics/icecube01.jpg,pics/ashtray01.jpg,pics/lock03a.jpg,pics/totempole.jpg,pics/stapler08.jpg,pics/golfball.jpg,pics/pencil01.jpg,pics/banjo.jpg,pics/sandbarshark.jpg,pics/shipinabottle.jpg,blankImage,blankImage,blankImage,blankImage,totempole,22,0.1166,,,,,,,,,,,,,,,,,,,,,,,,,,,,,,,,,,,,,,,,0,3,3,21,1,,,,,,,,,,,,,,,,,,,,,,,,,,,,,,,,,,,,,,,,,,,,,,,,,,,,,,,
,,,,,66310f1cfffdab7496cd1aa6,6682b41eeb79ab8215dff63d,6682bc570f780ca1ccd0354d,40,male,english,2024-07-01_09h31.52.092,ABmemTask3,2023.2.3,MacIntel,58.13953488,,,,,,,,,,,,,,,,,,,,,,,,,,,,,,,499.9626,500.9508,500.9509,7,501.4507,502.9679,0.0013,503.0841,0.1162,0.1165,0.1168,0.1167,0.1167,0.1167,0.1166,0.1167,0.1165,0.1174,0.116,503.0842,504.4343,right,1.3233,,504.4344,504.8342,right,0.3831,,8,0,10,504.8342,505.8342,,,,,,1_AB,L5_T1P_T2P,5,1,1,5,10,4,4,14,Fox,Did you see the Fox,0.12,0,resources/,pics/hammerheadshark.jpg,pics/bowlingpin.jpg,pics/pictureframe04.jpg,pics/peanut01.jpg,pics/redfox.jpg,pics/cymbal.jpg,pics/spoon01.jpg,pics/banjo.jpg,pics/butterfly.jpg,pics/stapler11.jpg,pics/football.jpg,pics/safetypin.jpg,pics/triangle.jpg,pics/onion.jpg,blankImage,blankImage,blankImage,redfox,45,0.1167,0.1167,,,,,,,,,,,,,,,,,,,,,,,,,,,,,,,,,,,,,,,0,4,4,44,1,,,,,,,,,,,,,,,,,,,,,,,,,,,,,,,,,,,,,,,,,,,,,,,,,,,,,,,
,,,,,66310f1cfffdab7496cd1aa6,6682b41eeb79ab8215dff63d,6682bc570f780ca1ccd0354d,40,male,english,2024-07-01_09h31.52.092,ABmemTask3,2023.2.3,MacIntel,58.13953488,,,,,,,,,,,,,,,,,,,,,,,,,,,,,,,505.8349,506.8343,506.8344,7,507.3342,508.8514,0.0014,508.9676,0.1161,0.1166,0.1166,0.1168,0.1166,0.1167,0.1168,0.1165,0.1167,0.1166,0.1167,508.9679,509.7013,right,0.7118,,509.7013,510.0843,right,0.37,,10,0,12,510.0844,511.0845,,,,,,1_AB,L5_T1P_T2P,5,1,1,6,11,5,3,14,mail box,Did you see the mail box,0.12,0,resources/,pics/pictureframe04.jpg,pics/seaturtle.jpg,pics/blender.jpg,pics/carrot01.jpg,pics/nutcracker01.jpg,pics/mailbox02.jpg,pics/seagull.jpg,pics/sink.jpg,pics/siamesecat.jpg,pics/spiderweb.jpg,pics/stapler08.jpg,pics/safetypin.jpg,pics/candle01.jpg,pics/mummy.jpg,blankImage,blankImage,blankImage,mailbox02,43,0.1165,0.1167,,,,,,,,,,,,,,,,,,,,,,,,,,,,,,,,,,,,,,,0,5,5,42,1,,,,,,,,,,,,,,,,,,,,,,,,,,,,,,,,,,,,,,,,,,,,,,,,,,,,,,,
,,,,,66310f1cfffdab7496cd1aa6,6682b41eeb79ab8215dff63d,6682bc570f780ca1ccd0354d,40,male,english,2024-07-01_09h31.52.092,ABmemTask3,2023.2.3,MacIntel,58.13953488,,,,,,,,,,,,,,,,,,,,,,,,,,,,,,,511.0851,512.0845,512.0845,7,512.5846,513.7515,0.0012,513.8679,0.116,0.1168,0.1165,0.1167,0.1168,0.1165,0.1167,0.1168,0.1165,0.1167,,513.868,515.2179,right,1.3336,,515.218,515.7179,right,0.4865,,8,0,14,515.718,516.7179,,,,,,1_AB,L1_T1A_T2P,1,0,1,7,8,6,3,11,turkey,Did you see the turkey,0.12,0,resources/,pics/proboscismonkey.jpg,pics/blender.jpg,pics/sealion.jpg,pics/snowshoe.jpg,pics/carrot01.jpg,pics/microscope.jpg,pics/piggybank.jpg,pics/stapler12.jpg,pics/peanut01.jpg,pics/dustpan.jpg,pics/footballhelmet.jpg,blankImage,blankImage,blankImage,blankImage,blankImage,blankImage,turkey,26,,,,,,,,,,,,,,,,,,,,,,,,,,,,,,,,,,,,,,,,,0,6,6,25,1,,,,,,,,,,,,,,,,,,,,,,,,,,,,,,,,,,,,,,,,,,,,,,,,,,,,,,,
,,,,,66310f1cfffdab7496cd1aa6,6682b41eeb79ab8215dff63d,6682bc570f780ca1ccd0354d,40,male,english,2024-07-01_09h31.52.092,ABmemTask3,2023.2.3,MacIntel,58.13953488,,,,,,,,,,,,,,,,,,,,,,,,,,,,,,,516.7292,517.7181,517.7182,7,518.218,519.2685,0.0014,519.3847,0.1157,0.1169,0.1166,0.1168,0.1166,0.1167,0.1167,0.1165,0.1168,,,519.3848,523.135,left,3.7237,,523.1352,523.7349,right,0.5882,,10,0,16,523.7349,524.7348,,,,,,1_AB,L1_T1A_T2P,1,0,1,5,6,4,4,10,button,Did you see the button,0.12,0,resources/,pics/pencil01.jpg,pics/necklace.jpg,pics/sink.jpg,pics/noparkingsign.jpg,pics/banjo.jpg,pics/stapler03b.jpg,pics/candle01.jpg,pics/icecube01.jpg,pics/shovel01.jpg,pics/pencilsharpener02a.jpg,blankImage,blankImage,blankImage,blankImage,blankImage,blankImage,blankImage,button01,25,,,,,,,,,,,,,,,,,,,,,,,,,,,,,,,,,,,,,,,,,0,7,7,24,1,,,,,,,,,,,,,,,,,,,,,,,,,,,,,,,,,,,,,,,,,,,,,,,,,,,,,,,
,,,,,66310f1cfffdab7496cd1aa6,6682b41eeb79ab8215dff63d,6682bc570f780ca1ccd0354d,40,male,english,2024-07-01_09h31.52.092,ABmemTask3,2023.2.3,MacIntel,58.13953488,,,,,,,,,,,,,,,,,,,,,,,,,,,,,,,524.7485,525.7515,525.7516,7,526.2515,527.8853,0.0013,528.0016,0.1162,0.1165,0.1168,0.1165,0.1172,0.1162,0.1167,0.1167,0.1167,0.1167,0.1166,528.0018,529.2351,right,1.2147,,529.2353,530.0516,right,0.8059,,12,0,18,530.0517,531.0517,,,,,,1_AB,L5_T1P_T2P,5,1,1,6,11,5,4,15,toast,Did you see the toast,0.12,0,resources/,pics/piggybank.jpg,pics/leaf02a.jpg,pics/carrot01.jpg,pics/birdhouse.jpg,pics/bowlingpin.jpg,pics/toast.jpg,pics/spiderweb.jpg,pics/cork02.jpg,pics/sink.jpg,pics/nutcracker01.jpg,pics/stapler02.jpg,pics/ashtray01.jpg,pics/fanblades.jpg,pics/pencil01.jpg,pics/lightswitch01.jpg,blankImage,blankImage,toast,46,0.1166,0.1167,0.1166,,,,,,,,,,,,,,,,,,,,,,,,,,,,,,,,,,,,,,0,8,8,45,1,,,,,,,,,,,,,,,,,,,,,,,,,,,,,,,,,,,,,,,,,,,,,,,,,,,,,,,
,,,,,66310f1cfffdab7496cd1aa6,6682b41eeb79ab8215dff63d,6682bc570f780ca1ccd0354d,40,male,english,2024-07-01_09h31.52.092,ABmemTask3,2023.2.3,MacIntel,58.13953488,,,,,,,,,,,,,,,,,,,,,,,,,,,,,,,531.0651,532.0684,532.0685,7,532.5686,534.2023,0.0015,534.3185,0.1158,0.1157,0.1176,0.1166,0.1165,0.1167,0.1167,0.1167,0.1166,0.1169,0.1165,534.3186,535.7352,left,1.4007,,535.7352,536.9856,right,1.2341,,14,0,20,536.9856,537.9855,,,,,,1_AB,L5_T1A_T2P,5,0,1,7,12,6,3,15,scissors,Did you see the scissors,0.12,0,resources/,pics/cannon.jpg,pics/mummy.jpg,pics/shovel01.jpg,pics/christmaslights.jpg,pics/snowshoe.jpg,pics/candle01.jpg,pics/bowtie.jpg,pics/giraffe.jpg,pics/carrot01.jpg,pics/spoon01.jpg,pics/seaturtle.jpg,pics/stapler10.jpg,pics/footballhelmet.jpg,pics/onion.jpg,pics/wheel01.jpg,blankImage,blankImage,scissors01,57,0.1166,0.1168,0.1166,,,,,,,,,,,,,,,,,,,,,,,,,,,,,,,,,,,,,,0,9,9,56,1,,,,,,,,,,,,,,,,,,,,,,,,,,,,,,,,,,,,,,,,,,,,,,,,,,,,,,,
,,,,,66310f1cfffdab7496cd1aa6,6682b41eeb79ab8215dff63d,6682bc570f780ca1ccd0354d,40,male,english,2024-07-01_09h31.52.092,ABmemTask3,2023.2.3,MacIntel,58.13953488,,,,,,,,,,,,,,,,,,,,,,,,,,,,,,,537.9996,539.0021,539.0021,7,539.5019,540.7858,0.0016,540.902,0.1157,0.1168,0.1166,0.1166,0.1168,0.1165,0.1167,0.1168,0.1166,0.1166,0.1167,540.9021,542.0517,right,1.1241,,542.0518,543.6855,right,1.6165,,16,0,22,543.6856,544.6854,,,,,,1_AB,L1_T1P_T2P,1,1,1,6,7,5,5,12,rope,Did you see the rope,0.12,0,resources/,pics/toiletpaper01a.jpg,pics/sewingmachine01a.jpg,pics/birdhouse.jpg,pics/sealion.jpg,pics/safetypin.jpg,pics/rope03.jpg,pics/stapler04.jpg,pics/binder03b.jpg,pics/ashtray01.jpg,pics/sandbarshark.jpg,pics/chainsaw.jpg,pics/nutcracker01.jpg,blankImage,blankImage,blankImage,blankImage,blankImage,rope03,4,,,,,,,,,,,,,,,,,,,,,,,,,,,,,,,,,,,,,,,,,0,10,10,3,1,,,,,,,,,,,,,,,,,,,,,,,,,,,,,,,,,,,,,,,,,,,,,,,,,,,,,,,
,,,,,66310f1cfffdab7496cd1aa6,6682b41eeb79ab8215dff63d,6682bc570f780ca1ccd0354d,40,male,english,2024-07-01_09h31.52.092,ABmemTask3,2023.2.3,MacIntel,58.13953488,,,,,,,,,,,,,,,,,,,,,,,,,,,,,,,544.699,545.7021,545.7022,7,546.2023,547.7193,0.0012,547.8356,0.1161,0.1165,0.1169,0.1166,0.1166,0.1167,0.1166,0.1165,0.1169,0.1167,0.1166,547.8357,550.219,right,2.3605,,550.2191,551.1691,left,0.9331,,16,0,24,551.1692,552.169,,,,,,1_AB,L5_T1P_T2P,5,1,1,6,11,5,3,14,truck,Did you see the truck,0.12,0,resources/,pics/calendar.jpg,pics/mummy.jpg,pics/ashtray01.jpg,pics/pencilsharpener02a.jpg,pics/dustpan.jpg,pics/boxtruck.jpg,pics/lightswitch01.jpg,pics/pictureframe04.jpg,pics/starfish01.jpg,pics/zebra.jpg,pics/stapler12.jpg,pics/bowtie.jpg,pics/candleholder01.jpg,pics/candle01.jpg,blankImage,blankImage,blankImage,boxtruck,50,0.1167,0.1166,,,,,,,,,,,,,,,,,,,,,,,,,,,,,,,,,,,,,,,0,11,11,49,1,,,,,,,,,,,,,,,,,,,,,,,,,,,,,,,,,,,,,,,,,,,,,,,,,,,,,,,
,,,,,66310f1cfffdab7496cd1aa6,6682b41eeb79ab8215dff63d,6682bc570f780ca1ccd0354d,40,male,english,2024-07-01_09h31.52.092,ABmemTask3,2023.2.3,MacIntel,58.13953488,,,,,,,,,,,,,,,,,,,,,,,,,,,,,,,552.1819,553.1857,553.1857,7,553.6858,554.7363,0.0011,554.8525,0.1161,0.1168,0.1167,0.1166,0.1165,0.1167,0.1168,0.1165,0.1169,,,554.8526,556.3693,right,1.4897,,556.3693,557.5527,left,1.1668,,18,0,26,557.5528,558.5526,,,,,,1_AB,L1_T1P_T2A,1,1,0,6,7,5,3,10,Duct tape,Did you see the Duct tape,0.12,0,resources/,pics/butterfly.jpg,pics/noparkingsign.jpg,pics/pictureframe04.jpg,pics/cork02.jpg,pics/fanblades.jpg,pics/ducttape.jpg,pics/icecube01.jpg,pics/siamesecat.jpg,pics/sink.jpg,pics/sandbarshark.jpg,blankImage,blankImage,blankImage,blankImage,blankImage,blankImage,blankImage,ducttape,36,,,,,,,,,,,,,,,,,,,,,,,,,,,,,,,,,,,,,,,,,0,12,12,35,1,,,,,,,,,,,,,,,,,,,,,,,,,,,,,,,,,,,,,,,,,,,,,,,,,,,,,,,
,,,,,66310f1cfffdab7496cd1aa6,6682b41eeb79ab8215dff63d,6682bc570f780ca1ccd0354d,40,male,english,2024-07-01_09h31.52.092,ABmemTask3,2023.2.3,MacIntel,58.13953488,,,,,,,,,,,,,,,,,,,,,,,,,,,,,,,558.567,559.5693,559.5693,7,560.0693,561.1198,0.0013,561.236,0.1156,0.1171,0.1168,0.1166,0.1165,0.1168,0.1158,0.1175,0.1168,,,561.2362,563.0197,right,1.7618,,563.0198,563.8527,right,0.8195,,16,0,28,563.8528,564.8527,,,,,,1_AB,L1_T1A_T2P,1,0,1,5,6,4,4,10,Rabbit,Did you see the Rabbit,0.12,0,resources/,pics/cannon.jpg,pics/proboscismonkey.jpg,pics/salmon.jpg,pics/nutcracker01.jpg,pics/seagull.jpg,pics/stapler02.jpg,pics/table01.jpg,pics/laptop01a.jpg,pics/necklace.jpg,pics/pencilsharpener02a.jpg,blankImage,blankImage,blankImage,blankImage,blankImage,blankImage,blankImage,jackrabbit,31,,,,,,,,,,,,,,,,,,,,,,,,,,,,,,,,,,,,,,,,,0,13,13,30,1,,,,,,,,,,,,,,,,,,,,,,,,,,,,,,,,,,,,,,,,,,,,,,,,,,,,,,,
,,,,,66310f1cfffdab7496cd1aa6,6682b41eeb79ab8215dff63d,6682bc570f780ca1ccd0354d,40,male,english,2024-07-01_09h31.52.092,ABmemTask3,2023.2.3,MacIntel,58.13953488,,,,,,,,,,,,,,,,,,,,,,,,,,,,,,,564.8647,565.8528,565.8529,7,566.353,567.6366,0.0012,567.7529,0.116,0.1169,0.1165,0.1166,0.1167,0.1167,0.1167,0.1164,0.1169,0.1167,0.1166,567.753,568.5197,right,0.7399,,568.5197,569.4361,right,0.9066,,18,0,30,569.4362,570.4363,,,,,,1_AB,L5_T1P_T2P,5,1,1,4,9,3,3,12,Sheep,Did you see the Sheep,0.12,0,resources/,pics/icecube01.jpg,pics/cymbal.jpg,pics/wheel01.jpg,pics/sheep.jpg,pics/starfish01.jpg,pics/safetypin.jpg,pics/siamesecat.jpg,pics/lock03a.jpg,pics/stapler01.jpg,pics/sink.jpg,pics/fanblades.jpg,pics/bowlingpin.jpg,blankImage,blankImage,blankImage,blankImage,blankImage,sheep,52,,,,,,,,,,,,,,,,,,,,,,,,,,,,,,,,,,,,,,,,,0,14,14,51,1,,,,,,,,,,,,,,,,,,,,,,,,,,,,,,,,,,,,,,,,,,,,,,,,,,,,,,,
,,,,,66310f1cfffdab7496cd1aa6,6682b41eeb79ab8215dff63d,6682bc570f780ca1ccd0354d,40,male,english,2024-07-01_09h31.52.092,ABmemTask3,2023.2.3,MacIntel,58.13953488,,,,,,,,,,,,,,,,,,,,,,,,,,,,,,,570.4504,571.453,571.453,7,571.953,573.0034,0.0013,573.1197,0.1152,0.1176,0.1166,0.1166,0.1168,0.1166,0.1166,0.1167,0.1167,,,573.1199,573.9364,right,0.7942,,573.9365,574.8201,right,0.8671,,20,0,32,574.8202,575.8197,,,,,,1_AB,L1_T1P_T2P,1,1,1,4,5,3,5,10,chair,Did you see the chair,0.12,0,resources/,pics/zebra.jpg,pics/floortile02.jpg,pics/cork02.jpg,pics/chair.jpg,pics/stapler07.jpg,pics/sealion.jpg,pics/shovel01.jpg,pics/piggybank.jpg,pics/candleholder01.jpg,pics/laptop01a.jpg,blankImage,blankImage,blankImage,blankImage,blankImage,blankImage,blankImage,chair,3,,,,,,,,,,,,,,,,,,,,,,,,,,,,,,,,,,,,,,,,,0,15,15,2,1,,,,,,,,,,,,,,,,,,,,,,,,,,,,,,,,,,,,,,,,,,,,,,,,,,,,,,,
,,,,,66310f1cfffdab7496cd1aa6,6682b41eeb79ab8215dff63d,6682bc570f780ca1ccd0354d,40,male,english,2024-07-01_09h31.52.092,ABmemTask3,2023.2.3,MacIntel,58.13953488,,,,,,,,,,,,,,,,,,,,,,,,,,,,,,,575.8205,576.8199,576.82,7,577.3199,578.2537,0.0014,578.3699,0.1159,0.1167,0.1166,0.1167,0.1166,0.1167,0.1166,0.1167,,,,578.3701,579.9034,right,1.5109,,579.9035,580.7033,left,0.7835,,22,0,34,580.7034,581.7035,,,,,,1_AB,L1_T1P_T2A,1,1,0,4,5,3,4,9,blueberry,Did you see the blueberry,0.12,0,resources/,pics/sealion.jpg,pics/piggybank.jpg,pics/sink.jpg,pics/blueberry01.jpg,pics/onion.jpg,pics/sailboat.jpg,pics/seaturtle.jpg,pics/hen.jpg,pics/fanblades.jpg,blankImage,blankImage,blankImage,blankImage,blankImage,blankImage,blankImage,blankImage,blueberry01,35,,,,,,,,,,,,,,,,,,,,,,,,,,,,,,,,,,,,,,,,,0,16,16,34,1,,,,,,,,,,,,,,,,,,,,,,,,,,,,,,,,,,,,,,,,,,,,,,,,,,,,,,,
,,,,,66310f1cfffdab7496cd1aa6,6682b41eeb79ab8215dff63d,6682bc570f780ca1ccd0354d,40,male,english,2024-07-01_09h31.52.092,ABmemTask3,2023.2.3,MacIntel,58.13953488,,,,,,,,,,,,,,,,,,,,,,,,,,,,,,,581.7153,582.7033,582.7034,7,583.2034,584.837,0.0013,584.9535,0.1161,0.1166,0.1166,0.1168,0.1166,0.1167,0.1167,0.117,0.1165,0.1165,0.1166,584.9536,586.1536,right,1.175,,586.1536,587.0202,right,0.8551,,24,0,36,587.0203,588.0201,,,,,,1_AB,L5_T1P_T2P,5,1,1,5,10,4,5,15,ribbon,Did you see the ribbon,0.12,0,resources/,pics/giraffe.jpg,pics/boot02b.jpg,pics/cymbal.jpg,pics/leaf02a.jpg,pics/ribbon04.jpg,pics/lightswitch01.jpg,pics/necklace.jpg,pics/calendar.jpg,pics/kangaroo.jpg,pics/stapler12.jpg,pics/hose.jpg,pics/carrot01.jpg,pics/match.jpg,pics/sink.jpg,pics/candleholder01.jpg,blankImage,blankImage,ribbon04,53,0.1167,0.1167,0.1164,,,,,,,,,,,,,,,,,,,,,,,,,,,,,,,,,,,,,,0,17,17,52,1,,,,,,,,,,,,,,,,,,,,,,,,,,,,,,,,,,,,,,,,,,,,,,,,,,,,,,,
,,,,,66310f1cfffdab7496cd1aa6,6682b41eeb79ab8215dff63d,6682bc570f780ca1ccd0354d,40,male,english,2024-07-01_09h31.52.092,ABmemTask3,2023.2.3,MacIntel,58.13953488,,,,,,,,,,,,,,,,,,,,,,,,,,,,,,,588.0207,589.0202,589.0204,7,589.5203,590.3374,0.0012,590.4537,0.1161,0.1161,0.1173,0.1167,0.1167,0.1166,0.1166,,,,,590.4538,592.0204,left,1.5401,,592.0206,592.8538,right,0.8185,,26,0,38,592.8538,593.8538,,,,,,1_AB,L1_T1A_T2P,1,0,1,4,5,3,3,8,Parking meter,Did you see the Parking meter,0.12,0,resources/,pics/leaf02a.jpg,pics/carrot01.jpg,pics/sink.jpg,pics/butterfly.jpg,pics/stapler10.jpg,pics/pictureframe04.jpg,pics/spiderweb.jpg,pics/icecube01.jpg,blankImage,blankImage,blankImage,blankImage,blankImage,blankImage,blankImage,blankImage,blankImage,parkingmeter,30,,,,,,,,,,,,,,,,,,,,,,,,,,,,,,,,,,,,,,,,,0,18,18,29,1,,,,,,,,,,,,,,,,,,,,,,,,,,,,,,,,,,,,,,,,,,,,,,,,,,,,,,,
,,,,,66310f1cfffdab7496cd1aa6,6682b41eeb79ab8215dff63d,6682bc570f780ca1ccd0354d,40,male,english,2024-07-01_09h31.52.092,ABmemTask3,2023.2.3,MacIntel,58.13953488,,,,,,,,,,,,,,,,,,,,,,,,,,,,,,,593.8672,594.8703,594.8704,7,595.3705,596.771,0.0013,596.8872,0.1162,0.1166,0.1167,0.1165,0.1168,0.1167,0.1167,0.1166,0.1166,0.1166,0.1167,596.8874,597.8871,right,0.9783,,597.8873,599.2208,right,1.3177,,28,0,40,599.2209,600.2207,,,,,,1_AB,L1_T1P_T2P,1,1,1,7,8,6,5,13,strawberry,Did you see the strawberry,0.12,0,resources/,pics/sealion.jpg,pics/backpack01a.jpg,pics/binoculars01b.jpg,pics/ball02.jpg,pics/proboscismonkey.jpg,pics/pictureframe04.jpg,pics/strawberry.jpg,pics/stapler12.jpg,pics/seaturtle.jpg,pics/dustpan.jpg,pics/bowlingpin.jpg,pics/hammerheadshark.jpg,pics/hen.jpg,blankImage,blankImage,blankImage,blankImage,strawberry,10,0.1168,,,,,,,,,,,,,,,,,,,,,,,,,,,,,,,,,,,,,,,,0,19,19,9,1,,,,,,,,,,,,,,,,,,,,,,,,,,,,,,,,,,,,,,,,,,,,,,,,,,,,,,,
,,,,,66310f1cfffdab7496cd1aa6,6682b41eeb79ab8215dff63d,6682bc570f780ca1ccd0354d,40,male,english,2024-07-01_09h31.52.092,ABmemTask3,2023.2.3,MacIntel,58.13953488,,,,,,,,,,,,,,,,,,,,,,,,,,,,,,,600.2212,601.2206,601.2208,7,601.7206,602.8878,0.0014,603.0041,0.1159,0.1168,0.1166,0.1167,0.1166,0.1167,0.1167,0.1167,0.1167,0.1166,,603.0041,608.1379,left,5.1141,,608.138,608.7211,right,0.578,,24,0,42,608.7213,609.7208,,,,,,1_AB,L1_T1P_T2A,1,1,0,7,8,6,3,11,garlic,Did you see the garlic,0.12,0,resources/,pics/zebra.jpg,pics/banjo.jpg,pics/pencilsharpener02a.jpg,pics/football.jpg,pics/candle01.jpg,pics/footballhelmet.jpg,pics/garlic01a.jpg,pics/birdhouse.jpg,pics/peach01.jpg,pics/pictureframe04.jpg,pics/binder03b.jpg,blankImage,blankImage,blankImage,blankImage,blankImage,blankImage,garlic01a,33,,,,,,,,,,,,,,,,,,,,,,,,,,,,,,,,,,,,,,,,,0,20,20,32,1,,,,,,,,,,,,,,,,,,,,,,,,,,,,,,,,,,,,,,,,,,,,,,,,,,,,,,,
,,,,,66310f1cfffdab7496cd1aa6,6682b41eeb79ab8215dff63d,6682bc570f780ca1ccd0354d,40,male,english,2024-07-01_09h31.52.092,ABmemTask3,2023.2.3,MacIntel,58.13953488,,,,,,,,,,,,,,,,,,,,,,,,,,,,,,,609.732,610.7209,610.721,7,611.2202,612.2714,0.0017,612.3877,0.1164,0.1169,0.1165,0.1166,0.1169,0.1164,0.1168,0.1165,0.1167,,,612.3879,613.2544,right,0.8399,,613.2544,613.904,right,0.6442,,26,0,44,613.904,614.9044,,,,,,1_AB,L1_T1P_T2P,1,1,1,4,5,3,5,10,vacuum,Did you see the vacuum,0.12,0,resources/,pics/birdhouse.jpg,pics/floortile02.jpg,pics/toiletpaper01a.jpg,pics/vacuumcleaner01.jpg,pics/stapler02.jpg,pics/spoon01.jpg,pics/banjo.jpg,pics/binder03b.jpg,pics/leaf02a.jpg,pics/aquarium.jpg,blankImage,blankImage,blankImage,blankImage,blankImage,blankImage,blankImage,vacuumcleaner01,5,,,,,,,,,,,,,,,,,,,,,,,,,,,,,,,,,,,,,,,,,0,21,21,4,1,,,,,,,,,,,,,,,,,,,,,,,,,,,,,,,,,,,,,,,,,,,,,,,,,,,,,,,
,,,,,66310f1cfffdab7496cd1aa6,6682b41eeb79ab8215dff63d,6682bc570f780ca1ccd0354d,40,male,english,2024-07-01_09h31.52.092,ABmemTask3,2023.2.3,MacIntel,58.13953488,,,,,,,,,,,,,,,,,,,,,,,,,,,,,,,614.9162,615.9044,615.9045,7,616.4045,617.6883,0.0013,617.8045,0.116,0.1169,0.1165,0.1167,0.1166,0.1169,0.1163,0.1166,0.1167,0.1166,0.1166,617.8046,618.8546,right,1.0239,,618.8547,619.6381,right,0.7696,,28,0,46,619.6382,620.638,,,,,,1_AB,L1_T1P_T2P,1,1,1,6,7,5,5,12,jeep,Did you see the jeep,0.12,0,resources/,pics/sandbarshark.jpg,pics/laptop01a.jpg,pics/peach01.jpg,pics/binoculars01b.jpg,pics/giraffe.jpg,pics/jeep.jpg,pics/stapler03b.jpg,pics/fanblades.jpg,pics/cannon.jpg,pics/starfish01.jpg,pics/piggybank.jpg,pics/noparkingsign.jpg,blankImage,blankImage,blankImage,blankImage,blankImage,jeep,2,,,,,,,,,,,,,,,,,,,,,,,,,,,,,,,,,,,,,,,,,0,22,22,1,1,,,,,,,,,,,,,,,,,,,,,,,,,,,,,,,,,,,,,,,,,,,,,,,,,,,,,,,
,,,,,66310f1cfffdab7496cd1aa6,6682b41eeb79ab8215dff63d,6682bc570f780ca1ccd0354d,40,male,english,2024-07-01_09h31.52.092,ABmemTask3,2023.2.3,MacIntel,58.13953488,,,,,,,,,,,,,,,,,,,,,,,,,,,,,,,620.6503,621.638,621.638,7,622.1381,623.0718,0.0016,623.1879,0.1156,0.1168,0.1165,0.1171,0.1163,0.1168,0.1167,0.1164,,,,623.188,624.9376,right,1.7239,,624.9377,625.8548,left,0.9029,,28,0,48,625.8549,626.855,,,,,,1_AB,L1_T1P_T2P,1,1,1,5,6,4,3,9,cabbage,Did you see the cabbage,0.12,0,resources/,pics/match.jpg,pics/icecube01.jpg,pics/noparkingsign.jpg,pics/christmaslights.jpg,pics/cabbage.jpg,pics/stapler03a.jpg,pics/carrot01.jpg,pics/dustpan.jpg,pics/cannon.jpg,blankImage,blankImage,blankImage,blankImage,blankImage,blankImage,blankImage,blankImage,cabbage,14,,,,,,,,,,,,,,,,,,,,,,,,,,,,,,,,,,,,,,,,,0,23,23,13,1,,,,,,,,,,,,,,,,,,,,,,,,,,,,,,,,,,,,,,,,,,,,,,,,,,,,,,,
,,,,,66310f1cfffdab7496cd1aa6,6682b41eeb79ab8215dff63d,6682bc570f780ca1ccd0354d,40,male,english,2024-07-01_09h31.52.092,ABmemTask3,2023.2.3,MacIntel,58.13953488,,,,,,,,,,,,,,,,,,,,,,,,,,,,,,,626.8681,627.8715,627.8716,7,628.3715,629.6553,0.0012,629.7716,0.1162,0.1169,0.1164,0.1166,0.1168,0.1166,0.1166,0.1168,0.1166,0.1166,0.1167,629.7717,631.2874,right,1.498,,631.2874,632.0718,right,0.768,,30,0,50,632.0719,633.0717,,,,,,1_AB,L1_T1P_T2P,1,1,1,7,8,6,4,12,Turnstile,Did you see the Turnstile,0.12,0,resources/,pics/golfball.jpg,pics/hose.jpg,pics/siamesecat.jpg,pics/binoculars01b.jpg,pics/hen.jpg,pics/candleholder01.jpg,pics/turnstile.jpg,pics/stapler03a.jpg,pics/giraffe.jpg,pics/pictureframe04.jpg,pics/sandbarshark.jpg,pics/spoon01.jpg,blankImage,blankImage,blankImage,blankImage,blankImage,turnstile,13,,,,,,,,,,,,,,,,,,,,,,,,,,,,,,,,,,,,,,,,,0,24,24,12,1,,,,,,,,,,,,,,,,,,,,,,,,,,,,,,,,,,,,,,,,,,,,,,,,,,,,,,,
,,,,,66310f1cfffdab7496cd1aa6,6682b41eeb79ab8215dff63d,6682bc570f780ca1ccd0354d,40,male,english,2024-07-01_09h31.52.092,ABmemTask3,2023.2.3,MacIntel,58.13953488,,,,,,,,,,,,,,,,,,,,,,,,,,,,,,,633.0834,634.0717,634.0718,7,634.5717,636.3223,0.0012,636.4385,0.1162,0.1167,0.1166,0.1167,0.1167,0.1165,0.1162,0.1173,0.1166,0.1168,0.1167,636.4386,639.5212,right,3.061,,639.5213,640.4553,left,0.9182,,32,0,52,640.4553,641.4553,,,,,,1_AB,L5_T1P_T2A,5,1,0,7,12,6,4,16,boat,Did you see the boat,0.12,0,resources/,pics/butterfly.jpg,pics/onion.jpg,pics/hose.jpg,pics/ball02.jpg,pics/ashtray01.jpg,pics/bowtie.jpg,pics/boat.jpg,pics/seaturtle.jpg,pics/blender.jpg,pics/zebra.jpg,pics/pictureframe04.jpg,pics/shovel01.jpg,pics/spoon01.jpg,pics/peanut01.jpg,pics/nutcracker01.jpg,pics/aquarium.jpg,blankImage,boat,60,0.1166,0.1169,0.1165,,,,,,,,,,,,,,,,,,,,,,,,,,,,,,,,,,,,,,0,25,25,59,1,0.1167,,,,,,,,,,,,,,,,,,,,,,,,,,,,,,,,,,,,,,,,,,,,,,,,,,,,,,
,,,,,66310f1cfffdab7496cd1aa6,6682b41eeb79ab8215dff63d,6682bc570f780ca1ccd0354d,40,male,english,2024-07-01_09h31.52.092,ABmemTask3,2023.2.3,MacIntel,58.13953488,,,,,,,,,,,,,,,,,,,,,,,,,,,,,,,641.4687,642.4719,642.472,7,642.972,644.7226,0.0015,644.8387,0.1159,0.1167,0.1167,0.1167,0.1167,0.1166,0.1166,0.1168,0.1166,0.1166,0.1166,644.8388,653.2391,right,8.3777,,653.2392,654.0726,right,0.8181,,30,0,54,654.0727,655.0724,,,,,,1_AB,L5_T1P_T2A,5,1,0,6,11,5,5,16,belt,Did you see the belt,0.12,0,resources/,pics/banjo.jpg,pics/birdhouse.jpg,pics/spoon01.jpg,pics/table01.jpg,pics/candle01.jpg,pics/belt02a.jpg,pics/peach01.jpg,pics/chainsaw.jpg,pics/toiletpaper01a.jpg,pics/proboscismonkey.jpg,pics/cymbal.jpg,pics/binoculars01b.jpg,pics/cannon.jpg,pics/noparkingsign.jpg,pics/sailboat.jpg,pics/carrot01.jpg,blankImage,belt02a,61,0.1167,0.1166,0.1171,,,,,,,,,,,,,,,,,,,,,,,,,,,,,,,,,,,,,,0,26,26,60,1,0.1164,,,,,,,,,,,,,,,,,,,,,,,,,,,,,,,,,,,,,,,,,,,,,,,,,,,,,,
,,,,,66310f1cfffdab7496cd1aa6,6682b41eeb79ab8215dff63d,6682bc570f780ca1ccd0354d,40,male,english,2024-07-01_09h31.52.092,ABmemTask3,2023.2.3,MacIntel,58.13953488,,,,,,,,,,,,,,,,,,,,,,,,,,,,,,,655.0842,656.0724,656.0724,7,656.5724,657.5062,0.0012,657.6225,0.1161,0.1167,0.1169,0.1166,0.1165,0.1168,0.1165,0.1167,,,,657.6226,660.0561,right,2.4111,,660.0562,660.7392,right,0.6705,,32,0,56,660.7393,661.7393,,,,,,1_AB,L1_T1P_T2P,1,1,1,5,6,4,3,9,paint brush,Did you see the paint brush,0.12,0,resources/,pics/nutcracker01.jpg,pics/piggybank.jpg,pics/spiderweb.jpg,pics/table01.jpg,pics/paintbrush01.jpg,pics/stapler09.jpg,pics/hose.jpg,pics/cannon.jpg,pics/mummy.jpg,blankImage,blankImage,blankImage,blankImage,blankImage,blankImage,blankImage,blankImage,paintbrush01,20,,,,,,,,,,,,,,,,,,,,,,,,,,,,,,,,,,,,,,,,,0,27,27,19,1,,,,,,,,,,,,,,,,,,,,,,,,,,,,,,,,,,,,,,,,,,,,,,,,,,,,,,,
,,,,,66310f1cfffdab7496cd1aa6,6682b41eeb79ab8215dff63d,6682bc570f780ca1ccd0354d,40,male,english,2024-07-01_09h31.52.092,ABmemTask3,2023.2.3,MacIntel,58.13953488,,,,,,,,,,,,,,,,,,,,,,,,,,,,,,,661.7521,662.7559,662.756,7,663.256,664.1897,0.0011,664.3061,0.1161,0.1168,0.1163,0.1171,0.1165,0.1168,0.1166,0.1166,,,,664.3062,667.3062,right,2.9738,,667.3062,668.1563,right,0.8331,,34,0,58,668.1564,669.1562,,,,,,1_AB,L1_T1P_T2P,1,1,1,4,5,3,4,9,antenna,Did you see the antenna,0.12,0,resources/,pics/microscope.jpg,pics/spoon01.jpg,pics/dromedary.jpg,pics/antenna.jpg,pics/stapler03.jpg,pics/hen.jpg,pics/leaf02a.jpg,pics/candle01.jpg,pics/sealion.jpg,blankImage,blankImage,blankImage,blankImage,blankImage,blankImage,blankImage,blankImage,antenna,9,,,,,,,,,,,,,,,,,,,,,,,,,,,,,,,,,,,,,,,,,0,28,28,8,1,,,,,,,,,,,,,,,,,,,,,,,,,,,,,,,,,,,,,,,,,,,,,,,,,,,,,,,
,,,,,66310f1cfffdab7496cd1aa6,6682b41eeb79ab8215dff63d,6682bc570f780ca1ccd0354d,40,male,english,2024-07-01_09h31.52.092,ABmemTask3,2023.2.3,MacIntel,58.13953488,,,,,,,,,,,,,,,,,,,,,,,,,,,,,,,669.1693,670.1729,670.173,7,670.6728,672.3066,0.0013,672.4229,0.1161,0.1166,0.1167,0.1168,0.1166,0.1166,0.1168,0.1167,0.1166,0.1166,0.1167,672.423,675.8397,left,3.394,,675.8399,676.44,right,0.5845,,36,0,60,676.44,677.4398,,,,,,1_AB,L5_T1A_T2P,5,0,1,5,10,4,5,15,scorpion,Did you see the scorpion,0.12,0,resources/,pics/pictureframe04.jpg,pics/binder03b.jpg,pics/pencil01.jpg,pics/leaf02a.jpg,pics/icecube01.jpg,pics/dromedary.jpg,pics/toiletpaper01a.jpg,pics/peanut01.jpg,pics/golfball.jpg,pics/stapler03.jpg,pics/carrot01.jpg,pics/peach01.jpg,pics/sealion.jpg,pics/football.jpg,pics/zebra.jpg,blankImage,blankImage,scorpion,54,0.1166,0.1166,0.1167,,,,,,,,,,,,,,,,,,,,,,,,,,,,,,,,,,,,,,0,29,29,53,1,,,,,,,,,,,,,,,,,,,,,,,,,,,,,,,,,,,,,,,,,,,,,,,,,,,,,,,
,,,,,66310f1cfffdab7496cd1aa6,6682b41eeb79ab8215dff63d,6682bc570f780ca1ccd0354d,40,male,english,2024-07-01_09h31.52.092,ABmemTask3,2023.2.3,MacIntel,58.13953488,,,,,,,,,,,,,,,,,,,,,,,,,,,,,,,677.4534,678.4566,678.4566,7,678.9564,679.8902,0.0015,680.0065,0.1159,0.1167,0.1167,0.1166,0.1168,0.1165,0.1167,0.1166,,,,680.0066,686.3904,left,6.363,,686.3905,687.6235,right,1.221,,34,0,62,687.6236,688.6236,,,,,,1_AB,L1_T1A_T2A,1,0,0,4,5,3,4,9,License Plate,Did you see the License Plate,0.12,0,resources/,pics/snowshoe.jpg,pics/kangaroo.jpg,pics/noparkingsign.jpg,pics/match.jpg,pics/hose.jpg,pics/blender.jpg,pics/ashtray01.jpg,pics/ball02.jpg,pics/sink.jpg,blankImage,blankImage,blankImage,blankImage,blankImage,blankImage,blankImage,blankImage,licenseplate,40,,,,,,,,,,,,,,,,,,,,,,,,,,,,,,,,,,,,,,,,,0,30,30,39,1,,,,,,,,,,,,,,,,,,,,,,,,,,,,,,,,,,,,,,,,,,,,,,,,,,,,,,,
,,,,,66310f1cfffdab7496cd1aa6,6682b41eeb79ab8215dff63d,6682bc570f780ca1ccd0354d,40,male,english,2024-07-01_09h31.52.092,ABmemTask3,2023.2.3,MacIntel,58.13953488,,,,,,,,,,,,,,,,,,,,,,,,,,,,,,,688.6377,689.6401,689.6402,7,690.1402,690.9572,0.0012,691.0735,0.1162,0.1165,0.116,0.1174,0.1167,0.1166,0.1167,,,,,691.0736,692.407,right,1.3086,,692.4072,693.407,right,0.9841,,36,0,64,693.407,694.407,,,,,,1_AB,L1_T1P_T2P,1,1,1,4,5,3,3,8,Recycling bin,Did you see the Recycling bin,0.12,0,resources/,pics/microscope.jpg,pics/dustpan.jpg,pics/seagull.jpg,pics/recyclingbin.jpg,pics/stapler06.jpg,pics/bowtie.jpg,pics/dromedary.jpg,pics/salmon.jpg,blankImage,blankImage,blankImage,blankImage,blankImage,blankImage,blankImage,blankImage,blankImage,recyclingbin,16,,,,,,,,,,,,,,,,,,,,,,,,,,,,,,,,,,,,,,,,,0,31,31,15,1,,,,,,,,,,,,,,,,,,,,,,,,,,,,,,,,,,,,,,,,,,,,,,,,,,,,,,,
,,,,,66310f1cfffdab7496cd1aa6,6682b41eeb79ab8215dff63d,6682bc570f780ca1ccd0354d,40,male,english,2024-07-01_09h31.52.092,ABmemTask3,2023.2.3,MacIntel,58.13953488,,,,,,,,,,,,,,,,,,,,,,,,,,,,,,,694.4076,695.407,695.4071,7,695.9071,697.7742,0.0013,697.8905,0.116,0.1168,0.1167,0.1166,0.1166,0.1167,0.1167,0.1165,0.1167,0.1168,0.1165,697.8906,700.8405,left,2.9304,,700.8406,701.5739,right,0.7207,,34,0,66,701.574,702.5739,,,,,,1_AB,L5_T1A_T2A,5,0,0,7,12,6,5,17,Bib,Did you see the Bib,0.12,0,resources/,pics/hammerheadshark.jpg,pics/wheel01.jpg,pics/binder03b.jpg,pics/hairdryer02a.jpg,pics/christmaslights.jpg,pics/sandbarshark.jpg,pics/binoculars01b.jpg,pics/piggybank.jpg,pics/aquarium.jpg,pics/candleholder01.jpg,pics/sink.jpg,pics/calendar.jpg,pics/birdhouse.jpg,pics/bowtie.jpg,pics/onion.jpg,pics/golfball.jpg,pics/sailboat.jpg,bib,62,0.1169,0.1165,0.1167,,,,,,,,,,,,,,,,,,,,,,,,,,,,,,,,,,,,,,0,32,32,61,1,0.1168,0.1165,,,,,,,,,,,,,,,,,,,,,,,,,,,,,,,,,,,,,,,,,,,,,,,,,,,,,
,,,,,66310f1cfffdab7496cd1aa6,6682b41eeb79ab8215dff63d,6682bc570f780ca1ccd0354d,40,male,english,2024-07-01_09h31.52.092,ABmemTask3,2023.2.3,MacIntel,58.13953488,,,,,,,,,,,,,,,,,,,,,,,,,,,,,,,702.5881,703.5906,703.5907,7,704.0906,705.141,0.0016,705.2573,0.1158,0.1166,0.1168,0.1166,0.1166,0.1168,0.1165,0.1167,0.1167,,,705.2574,707.4741,right,2.195,,707.4742,708.2584,left,0.7695,,36,0,68,708.2585,709.2573,,,,,,1_AB,L1_T1P_T2A,1,1,0,6,7,5,3,10,Electric toothbrush,Did you see the Electric toothbrush,0.12,0,resources/,pics/football.jpg,pics/sailboat.jpg,pics/cymbal.jpg,pics/hen.jpg,pics/pencil01.jpg,pics/electrictoothbrush01c.jpg,pics/bowlingpin.jpg,pics/wheel01.jpg,pics/birdhouse.jpg,pics/leaf02a.jpg,blankImage,blankImage,blankImage,blankImage,blankImage,blankImage,blankImage,electrictoothbrush01c,34,,,,,,,,,,,,,,,,,,,,,,,,,,,,,,,,,,,,,,,,,0,33,33,33,1,,,,,,,,,,,,,,,,,,,,,,,,,,,,,,,,,,,,,,,,,,,,,,,,,,,,,,,
,,,,,66310f1cfffdab7496cd1aa6,6682b41eeb79ab8215dff63d,6682bc570f780ca1ccd0354d,40,male,english,2024-07-01_09h31.52.092,ABmemTask3,2023.2.3,MacIntel,58.13953488,,,,,,,,,,,,,,,,,,,,,,,,,,,,,,,709.27,710.2742,710.2743,7,710.7742,712.2913,0.0016,712.4077,0.1157,0.1168,0.1155,0.1177,0.1168,0.1164,0.1167,0.1167,0.1167,0.1167,0.1167,712.4078,713.8742,right,1.4463,,713.8743,715.058,right,1.1793,,38,0,70,715.058,716.0578,,,,,,1_AB,L5_T1P_T2P,5,1,1,4,9,3,5,14,asparagus,Did you see the asparagus,0.12,0,resources/,pics/siamesecat.jpg,pics/starfish01.jpg,pics/aquarium.jpg,pics/asparagus.jpg,pics/salmon.jpg,pics/binoculars01b.jpg,pics/ball02.jpg,pics/calendar.jpg,pics/stapler10.jpg,pics/giraffe.jpg,pics/dromedary.jpg,pics/seaturtle.jpg,pics/sandbarshark.jpg,pics/shipinabottle.jpg,blankImage,blankImage,blankImage,asparagus,44,0.1166,0.1167,,,,,,,,,,,,,,,,,,,,,,,,,,,,,,,,,,,,,,,0,34,34,43,1,,,,,,,,,,,,,,,,,,,,,,,,,,,,,,,,,,,,,,,,,,,,,,,,,,,,,,,
,,,,,66310f1cfffdab7496cd1aa6,6682b41eeb79ab8215dff63d,6682bc570f780ca1ccd0354d,40,male,english,2024-07-01_09h31.52.092,ABmemTask3,2023.2.3,MacIntel,58.13953488,,,,,,,,,,,,,,,,,,,,,,,,,,,,,,,716.0715,717.0742,717.0743,7,717.5744,718.7415,0.0012,718.8577,0.1161,0.1165,0.1167,0.1168,0.1167,0.1165,0.1167,0.1167,0.1167,0.1166,,718.8578,720.2578,right,1.3737,,720.258,721.1738,right,0.9002,,40,0,72,721.1739,722.1746,,,,,,1_AB,L1_T1P_T2P,1,1,1,7,8,6,3,11,pliers,Did you see the pliers,0.12,0,resources/,pics/mummy.jpg,pics/binder03b.jpg,pics/bowtie.jpg,pics/toiletpaper01a.jpg,pics/football.jpg,pics/blender.jpg,pics/needlenosepliers01.jpg,pics/stapler13.jpg,pics/zebra.jpg,pics/hammerheadshark.jpg,pics/sealion.jpg,blankImage,blankImage,blankImage,blankImage,blankImage,blankImage,needlenosepliers01,6,,,,,,,,,,,,,,,,,,,,,,,,,,,,,,,,,,,,,,,,,0,35,35,5,1,,,,,,,,,,,,,,,,,,,,,,,,,,,,,,,,,,,,,,,,,,,,,,,,,,,,,,,
,,,,,66310f1cfffdab7496cd1aa6,6682b41eeb79ab8215dff63d,6682bc570f780ca1ccd0354d,40,male,english,2024-07-01_09h31.52.092,ABmemTask3,2023.2.3,MacIntel,58.13953488,,,,,,,,,,,,,,,,,,,,,,,,,,,,,,,722.1752,723.1746,723.1747,7,723.6746,724.8418,0.0012,724.9581,0.1162,0.1167,0.1167,0.1165,0.1169,0.1164,0.1166,0.1166,0.1167,0.1168,,724.9582,729.8584,right,4.8797,,729.8585,731.925,right,2.049,,42,0,74,731.9251,732.9249,,,,,,1_AB,L1_T1P_T2P,1,1,1,7,8,6,3,11,Eiffel tower,Did you see the Eiffel tower,0.12,0,resources/,pics/seagull.jpg,pics/cymbal.jpg,pics/match.jpg,pics/binoculars01b.jpg,pics/ball02.jpg,pics/onion.jpg,pics/eiffeltower.jpg,pics/stapler11.jpg,pics/peach01.jpg,pics/sandbarshark.jpg,pics/boot02b.jpg,blankImage,blankImage,blankImage,blankImage,blankImage,blankImage,eiffeltower,1,,,,,,,,,,,,,,,,,,,,,,,,,,,,,,,,,,,,,,,,,0,36,36,0,1,,,,,,,,,,,,,,,,,,,,,,,,,,,,,,,,,,,,,,,,,,,,,,,,,,,,,,,
,,,,,66310f1cfffdab7496cd1aa6,6682b41eeb79ab8215dff63d,6682bc570f780ca1ccd0354d,40,male,english,2024-07-01_09h31.52.092,ABmemTask3,2023.2.3,MacIntel,58.13953488,,,,,,,,,,,,,,,,,,,,,,,,,,,,,,,732.9371,733.9248,733.9251,7,734.425,735.5914,0.0013,735.7082,0.116,0.1167,0.1167,0.1165,0.1169,0.1166,0.1167,0.1166,0.1157,0.1172,,735.7084,737.4085,right,1.6788,,737.4085,738.125,left,0.7011,,44,0,76,738.125,739.1251,,,,,,1_AB,L1_T1P_T2A,1,1,0,7,8,6,3,11,Spear,Did you see the Spear,0.12,0,resources/,pics/butterfly.jpg,pics/banjo.jpg,pics/chainsaw.jpg,pics/christmaslights.jpg,pics/dustpan.jpg,pics/shovel01.jpg,pics/spear02.jpg,pics/table01.jpg,pics/starfish01.jpg,pics/bowlingpin.jpg,pics/carrot01.jpg,blankImage,blankImage,blankImage,blankImage,blankImage,blankImage,spear02,39,,,,,,,,,,,,,,,,,,,,,,,,,,,,,,,,,,,,,,,,,0,37,37,38,1,,,,,,,,,,,,,,,,,,,,,,,,,,,,,,,,,,,,,,,,,,,,,,,,,,,,,,,
,,,,,66310f1cfffdab7496cd1aa6,6682b41eeb79ab8215dff63d,6682bc570f780ca1ccd0354d,40,male,english,2024-07-01_09h31.52.092,ABmemTask3,2023.2.3,MacIntel,58.13953488,,,,,,,,,,,,,,,,,,,,,,,,,,,,,,,739.1387,740.1417,740.1418,7,740.6418,741.809,0.0009,741.9249,0.1161,0.1169,0.1167,0.1166,0.1167,0.1167,0.1167,0.1166,0.1168,0.1166,,741.925,743.5422,left,1.6019,,743.5423,744.625,left,1.0709,,46,0,78,744.6251,745.6252,,,,,,1_AB,L1_T1A_T2A,1,0,0,7,8,6,3,11,Poker chips,Did you see the Poker chips,0.12,0,resources/,pics/candle01.jpg,pics/proboscismonkey.jpg,pics/fanblades.jpg,pics/dromedary.jpg,pics/aquarium.jpg,pics/salmon.jpg,pics/hose.jpg,pics/kangaroo.jpg,pics/noparkingsign.jpg,pics/carrot01.jpg,pics/leaf02a.jpg,blankImage,blankImage,blankImage,blankImage,blankImage,blankImage,pokerchips,41,,,,,,,,,,,,,,,,,,,,,,,,,,,,,,,,,,,,,,,,,0,38,38,40,1,,,,,,,,,,,,,,,,,,,,,,,,,,,,,,,,,,,,,,,,,,,,,,,,,,,,,,,
,,,,,66310f1cfffdab7496cd1aa6,6682b41eeb79ab8215dff63d,6682bc570f780ca1ccd0354d,40,male,english,2024-07-01_09h31.52.092,ABmemTask3,2023.2.3,MacIntel,58.13953488,,,,,,,,,,,,,,,,,,,,,,,,,,,,,,,745.6391,746.642,746.642,7,747.142,748.4257,0.0014,748.542,0.1159,0.1167,0.1167,0.1166,0.1167,0.1168,0.1165,0.1167,0.1169,0.1163,0.1166,748.542,750.4588,right,1.8905,,750.4588,751.4588,right,0.9839,,48,0,80,751.4588,752.4589,,,,,,1_AB,L1_T1P_T2P,1,1,1,6,7,5,5,12,Bear,Did you see the Bear,0.12,0,resources/,pics/necklace.jpg,pics/hen.jpg,pics/dromedary.jpg,pics/piggybank.jpg,pics/sandbarshark.jpg,pics/grizzly.jpg,pics/stapler12.jpg,pics/bowlingpin.jpg,pics/christmaslights.jpg,pics/icecube01.jpg,pics/match.jpg,pics/lock03a.jpg,blankImage,blankImage,blankImage,blankImage,blankImage,grizzly,18,,,,,,,,,,,,,,,,,,,,,,,,,,,,,,,,,,,,,,,,,0,39,39,17,1,,,,,,,,,,,,,,,,,,,,,,,,,,,,,,,,,,,,,,,,,,,,,,,,,,,,,,,
,,,,,66310f1cfffdab7496cd1aa6,6682b41eeb79ab8215dff63d,6682bc570f780ca1ccd0354d,40,male,english,2024-07-01_09h31.52.092,ABmemTask3,2023.2.3,MacIntel,58.13953488,,,,,,,,,,,,,,,,,,,,,,,,,,,,,,,752.4717,753.4757,753.4757,7,753.9755,755.3761,0.0013,755.4923,0.1161,0.1167,0.1167,0.1166,0.1167,0.1167,0.1165,0.1169,0.1166,0.1166,0.1168,755.4925,757.5591,left,2.0447,,757.5592,758.7592,left,1.1832,,50,0,82,758.7592,759.759,,,,,,1_AB,L1_T1A_T2A,1,0,0,7,8,6,5,13,fan,Did you see the fan,0.12,0,resources/,pics/leaf02a.jpg,pics/dustpan.jpg,pics/pencil01.jpg,pics/kangaroo.jpg,pics/golfball.jpg,pics/lightswitch01.jpg,pics/nutcracker01.jpg,pics/calendar.jpg,pics/hose.jpg,pics/starfish01.jpg,pics/siamesecat.jpg,pics/bowlingpin.jpg,pics/necklace.jpg,blankImage,blankImage,blankImage,blankImage,fan,42,0.1167,,,,,,,,,,,,,,,,,,,,,,,,,,,,,,,,,,,,,,,,0,40,40,41,1,,,,,,,,,,,,,,,,,,,,,,,,,,,,,,,,,,,,,,,,,,,,,,,,,,,,,,,
,,,,,66310f1cfffdab7496cd1aa6,6682b41eeb79ab8215dff63d,6682bc570f780ca1ccd0354d,40,male,english,2024-07-01_09h31.52.092,ABmemTask3,2023.2.3,MacIntel,58.13953488,,,,,,,,,,,,,,,,,,,,,,,,,,,,,,,759.7702,760.7582,760.7582,7,761.2592,762.6597,0.0014,762.7758,0.1149,0.1177,0.1167,0.1165,0.1167,0.1156,0.1177,0.1166,0.1167,0.1167,0.1167,762.7759,765.2427,left,2.4404,,765.2428,766.075,right,0.8175,,52,0,84,766.0751,767.0761,,,,,,1_AB,L1_T1A_T2P,1,0,1,7,8,6,5,13,Basketball,Did you see the Basketball,0.12,0,resources/,pics/cork02.jpg,pics/table01.jpg,pics/christmaslights.jpg,pics/nutcracker01.jpg,pics/golfball.jpg,pics/hammerheadshark.jpg,pics/seaturtle.jpg,pics/stapler04b.jpg,pics/lock03a.jpg,pics/snowshoe.jpg,pics/sewingmachine01a.jpg,pics/peach01.jpg,pics/hose.jpg,blankImage,blankImage,blankImage,blankImage,basketball01,24,0.1168,,,,,,,,,,,,,,,,,,,,,,,,,,,,,,,,,,,,,,,,0,41,41,23,1,,,,,,,,,,,,,,,,,,,,,,,,,,,,,,,,,,,,,,,,,,,,,,,,,,,,,,,
,,,,,66310f1cfffdab7496cd1aa6,6682b41eeb79ab8215dff63d,6682bc570f780ca1ccd0354d,40,male,english,2024-07-01_09h31.52.092,ABmemTask3,2023.2.3,MacIntel,58.13953488,,,,,,,,,,,,,,,,,,,,,,,,,,,,,,,767.0897,768.0928,768.0928,7,768.5917,770.1097,0.0013,770.2261,0.1172,0.1165,0.1166,0.1167,0.1158,0.1176,0.1168,0.1152,0.1181,0.1164,0.1155,770.2262,771.6929,left,1.4459,,771.6929,772.4252,right,0.7153,,54,0,86,772.4253,773.4262,,,,,,1_AB,L5_T1A_T2P,5,0,1,4,9,3,5,14,lemon,Did you see the lemon,0.12,0,resources/,pics/seaturtle.jpg,pics/lightswitch01.jpg,pics/candle01.jpg,pics/cannon.jpg,pics/seagull.jpg,pics/spoon01.jpg,pics/spiderweb.jpg,pics/sewingmachine01a.jpg,pics/stapler05.jpg,pics/binoculars01b.jpg,pics/zebra.jpg,pics/sealion.jpg,pics/shovel01.jpg,pics/wheel01.jpg,blankImage,blankImage,blankImage,lemon02,56,0.117,0.1176,,,,,,,,,,,,,,,,,,,,,,,,,,,,,,,,,,,,,,,0,42,42,55,1,,,,,,,,,,,,,,,,,,,,,,,,,,,,,,,,,,,,,,,,,,,,,,,,,,,,,,,
,,,,,66310f1cfffdab7496cd1aa6,6682b41eeb79ab8215dff63d,6682bc570f780ca1ccd0354d,40,male,english,2024-07-01_09h31.52.092,ABmemTask3,2023.2.3,MacIntel,58.13953488,,,,,,,,,,,,,,,,,,,,,,,,,,,,,,,773.4394,774.4428,774.4429,7,774.9427,776.1088,0.001,776.2263,0.1165,0.1167,0.1168,0.1163,0.1169,0.1156,0.1178,0.1156,0.1177,0.1154,,776.2265,777.6431,left,1.3894,,777.6433,778.3754,right,0.7167,,56,0,88,778.3755,779.3753,,,,,,1_AB,L1_T1A_T2P,1,0,1,5,6,4,5,11,Recorder,Did you see the Recorder,0.12,0,resources/,pics/bowtie.jpg,pics/nutcracker01.jpg,pics/hairdryer02a.jpg,pics/shovel01.jpg,pics/onion.jpg,pics/stapler13.jpg,pics/safetypin.jpg,pics/spiderweb.jpg,pics/seagull.jpg,pics/dustpan.jpg,pics/icecube01.jpg,blankImage,blankImage,blankImage,blankImage,blankImage,blankImage,recorder04,28,,,,,,,,,,,,,,,,,,,,,,,,,,,,,,,,,,,,,,,,,0,43,43,27,1,,,,,,,,,,,,,,,,,,,,,,,,,,,,,,,,,,,,,,,,,,,,,,,,,,,,,,,
,,,,,66310f1cfffdab7496cd1aa6,6682b41eeb79ab8215dff63d,6682bc570f780ca1ccd0354d,40,male,english,2024-07-01_09h31.52.092,ABmemTask3,2023.2.3,MacIntel,58.13953488,,,,,,,,,,,,,,,,,,,,,,,,,,,,,,,779.3862,780.3755,780.3755,7,780.8753,782.1603,0.0011,782.2765,0.1176,0.1164,0.1165,0.1166,0.1169,0.1166,0.1168,0.1166,0.1166,0.1168,0.1169,782.2767,784.3764,right,2.0787,,784.3764,785.0933,right,0.7012,,58,0,90,785.0934,786.0935,,,,,,1_AB,L1_T1P_T2P,1,1,1,7,8,6,4,12,hammer,Did you see the hammer,0.12,0,resources/,pics/microscope.jpg,pics/blender.jpg,pics/dustpan.jpg,pics/snowshoe.jpg,pics/mummy.jpg,pics/bowtie.jpg,pics/hammer01.jpg,pics/stapler04b.jpg,pics/seaturtle.jpg,pics/candle01.jpg,pics/necklace.jpg,pics/cannon.jpg,blankImage,blankImage,blankImage,blankImage,blankImage,hammer01,21,,,,,,,,,,,,,,,,,,,,,,,,,,,,,,,,,,,,,,,,,0,44,44,20,1,,,,,,,,,,,,,,,,,,,,,,,,,,,,,,,,,,,,,,,,,,,,,,,,,,,,,,,
,,,,,66310f1cfffdab7496cd1aa6,6682b41eeb79ab8215dff63d,6682bc570f780ca1ccd0354d,40,male,english,2024-07-01_09h31.52.092,ABmemTask3,2023.2.3,MacIntel,58.13953488,,,,,,,,,,,,,,,,,,,,,,,,,,,,,,,786.1053,787.1095,787.1096,7,787.61,789.0105,0.0013,789.1267,0.1162,0.1155,0.1179,0.1155,0.1169,0.1174,0.1167,0.1157,0.1167,0.1177,0.1168,789.1268,790.8263,right,1.6736,,790.8263,791.7925,right,0.9513,,60,0,92,791.7926,792.7934,,,,,,1_AB,L5_T1P_T2P,5,1,1,4,9,3,4,13,Forklift,Did you see the Forklift,0.12,0,resources/,pics/dustpan.jpg,pics/table01.jpg,pics/sink.jpg,pics/forklift.jpg,pics/dromedary.jpg,pics/proboscismonkey.jpg,pics/cymbal.jpg,pics/shovel01.jpg,pics/stapler10.jpg,pics/backpack01a.jpg,pics/binder03b.jpg,pics/banjo.jpg,pics/candleholder01.jpg,blankImage,blankImage,blankImage,blankImage,forklift,47,0.1166,,,,,,,,,,,,,,,,,,,,,,,,,,,,,,,,,,,,,,,,0,45,45,46,1,,,,,,,,,,,,,,,,,,,,,,,,,,,,,,,,,,,,,,,,,,,,,,,,,,,,,,,
,,,,,66310f1cfffdab7496cd1aa6,6682b41eeb79ab8215dff63d,6682bc570f780ca1ccd0354d,40,male,english,2024-07-01_09h31.52.092,ABmemTask3,2023.2.3,MacIntel,58.13953488,,,,,,,,,,,,,,,,,,,,,,,,,,,,,,,792.7941,793.7936,793.7936,7,794.2935,795.4596,0.0012,795.5769,0.1161,0.1157,0.1177,0.1167,0.1166,0.1165,0.1169,0.1165,0.1158,0.1167,,795.577,797.6937,right,2.0926,,797.6938,798.4772,left,0.7666,,62,0,94,798.4773,799.476,,,,,,1_AB,L1_T1P_T2A,1,1,0,7,8,6,3,11,eggplant,Did you see the eggplant,0.12,0,resources/,pics/salmon.jpg,pics/fanblades.jpg,pics/hammerheadshark.jpg,pics/wheel01.jpg,pics/snowshoe.jpg,pics/birdhouse.jpg,pics/eggplant.jpg,pics/spiderweb.jpg,pics/zebra.jpg,pics/pencilsharpener02a.jpg,pics/backpack01a.jpg,blankImage,blankImage,blankImage,blankImage,blankImage,blankImage,eggplant,32,,,,,,,,,,,,,,,,,,,,,,,,,,,,,,,,,,,,,,,,,0,46,46,31,1,,,,,,,,,,,,,,,,,,,,,,,,,,,,,,,,,,,,,,,,,,,,,,,,,,,,,,,
,,,,,66310f1cfffdab7496cd1aa6,6682b41eeb79ab8215dff63d,6682bc570f780ca1ccd0354d,40,male,english,2024-07-01_09h31.52.092,ABmemTask3,2023.2.3,MacIntel,58.13953488,,,,,,,,,,,,,,,,,,,,,,,,,,,,,,,799.488,800.4771,800.4771,7,800.977,802.1442,0.0013,802.2604,0.1161,0.1157,0.1177,0.1158,0.1174,0.1164,0.1168,0.1166,0.1168,0.1167,,802.2606,804.144,right,1.8625,,804.144,806.4272,right,2.2665,,60,0,96,806.4274,807.4273,,,,,,1_AB,L1_T1P_T2A,1,1,0,6,7,5,4,11,lamp,Did you see the lamp,0.12,0,resources/,pics/chainsaw.jpg,pics/fanblades.jpg,pics/salmon.jpg,pics/proboscismonkey.jpg,pics/boot02b.jpg,pics/lamp04a.jpg,pics/blender.jpg,pics/sink.jpg,pics/pencil01.jpg,pics/floortile02.jpg,pics/shovel01.jpg,blankImage,blankImage,blankImage,blankImage,blankImage,blankImage,lamp04a,37,,,,,,,,,,,,,,,,,,,,,,,,,,,,,,,,,,,,,,,,,0,47,47,36,1,,,,,,,,,,,,,,,,,,,,,,,,,,,,,,,,,,,,,,,,,,,,,,,,,,,,,,,
,,,,,66310f1cfffdab7496cd1aa6,6682b41eeb79ab8215dff63d,6682bc570f780ca1ccd0354d,40,male,english,2024-07-01_09h31.52.092,ABmemTask3,2023.2.3,MacIntel,58.13953488,,,,,,,,,,,,,,,,,,,,,,,,,,,,,,,807.4403,808.444,808.4441,7,808.9441,810.6944,0.0015,810.8108,0.1155,0.117,0.1166,0.1167,0.1166,0.1165,0.116,0.1175,0.1164,0.117,0.1165,810.8109,811.9609,right,1.1346,,811.9609,812.7599,right,0.7831,,62,0,98,812.76,813.7609,,,,,,1_AB,L5_T1P_T2P,5,1,1,6,11,5,5,16,cruise ship,Did you see the cruise ship,0.12,0,resources/,pics/seaturtle.jpg,pics/ashtray01.jpg,pics/pencil01.jpg,pics/fanblades.jpg,pics/triangle.jpg,pics/cruiseship.jpg,pics/wheel01.jpg,pics/dustpan.jpg,pics/starfish01.jpg,pics/banjo.jpg,pics/stapler12.jpg,pics/match.jpg,pics/cannon.jpg,pics/sandbarshark.jpg,pics/sink.jpg,pics/zebra.jpg,blankImage,cruiseship,51,0.1167,0.1155,0.1181,,,,,,,,,,,,,,,,,,,,,,,,,,,,,,,,,,,,,,0,48,48,50,1,0.1161,,,,,,,,,,,,,,,,,,,,,,,,,,,,,,,,,,,,,,,,,,,,,,,,,,,,,,
,,,,,66310f1cfffdab7496cd1aa6,6682b41eeb79ab8215dff63d,6682bc570f780ca1ccd0354d,40,male,english,2024-07-01_09h31.52.092,ABmemTask3,2023.2.3,MacIntel,58.13953488,,,,,,,,,,,,,,,,,,,,,,,,,,,,,,,813.7744,814.7776,814.7776,7,815.2775,816.3279,0.0018,816.4442,0.1153,0.117,0.1167,0.1165,0.1167,0.1168,0.1155,0.1174,0.1168,,,816.4443,817.7934,right,1.3282,,817.7936,818.5601,left,0.7501,,62,0,100,818.5602,819.5609,,,,,,1_AB,L1_T1P_T2P,1,1,1,4,5,3,5,10,flute,Did you see the flute,0.12,0,resources/,pics/peach01.jpg,pics/seaturtle.jpg,pics/dromedary.jpg,pics/recorder01.jpg,pics/stapler08.jpg,pics/giraffe.jpg,pics/blender.jpg,pics/necklace.jpg,pics/sink.jpg,pics/dustpan.jpg,blankImage,blankImage,blankImage,blankImage,blankImage,blankImage,blankImage,recorder01,7,,,,,,,,,,,,,,,,,,,,,,,,,,,,,,,,,,,,,,,,,0,49,49,6,1,,,,,,,,,,,,,,,,,,,,,,,,,,,,,,,,,,,,,,,,,,,,,,,,,,,,,,,
,,,,,66310f1cfffdab7496cd1aa6,6682b41eeb79ab8215dff63d,6682bc570f780ca1ccd0354d,40,male,english,2024-07-01_09h31.52.092,ABmemTask3,2023.2.3,MacIntel,58.13953488,,,,,,,,,,,,,,,,,,,,,,,,,,,,,,,819.5741,820.5777,820.5778,7,821.0778,822.5936,0.0012,822.7106,0.1159,0.1168,0.1167,0.1166,0.1167,0.1167,0.1168,0.1154,0.1168,0.1175,0.1168,822.7106,824.1279,right,1.3951,,824.128,824.6936,right,0.5505,,64,0,102,824.6936,825.6935,,,,,,1_AB,L5_T1P_T2P,5,1,1,4,9,3,5,14,pliers,Did you see the pliers,0.12,0,resources/,pics/calendar.jpg,pics/footballhelmet.jpg,pics/seaturtle.jpg,pics/pliers02b.jpg,pics/wheel01.jpg,pics/cannon.jpg,pics/proboscismonkey.jpg,pics/shovel01.jpg,pics/stapler06.jpg,pics/football.jpg,pics/hose.jpg,pics/dustpan.jpg,pics/spiderweb.jpg,pics/golfball.jpg,blankImage,blankImage,blankImage,pliers02b,48,0.1157,0.1164,,,,,,,,,,,,,,,,,,,,,,,,,,,,,,,,,,,,,,,0,50,50,47,1,,,,,,,,,,,,,,,,,,,,,,,,,,,,,,,,,,,,,,,,,,,,,,,,,,,,,,,
,,,,,66310f1cfffdab7496cd1aa6,6682b41eeb79ab8215dff63d,6682bc570f780ca1ccd0354d,40,male,english,2024-07-01_09h31.52.092,ABmemTask3,2023.2.3,MacIntel,58.13953488,,,,,,,,,,,,,,,,,,,,,,,,,,,,,,,825.7066,826.6945,826.6946,7,827.1936,828.4782,0.0013,828.5936,0.1158,0.1176,0.117,0.1167,0.1166,0.1167,0.1167,0.1167,0.1164,0.1166,0.1167,828.5937,830.8439,left,2.2286,,830.8439,831.3779,right,0.5199,,66,0,104,831.378,832.3776,,,,,,1_AB,L5_T1A_T2P,5,0,1,4,9,3,3,12,rooster,Did you see the rooster,0.12,0,resources/,pics/table01.jpg,pics/icecube01.jpg,pics/dustpan.jpg,pics/lock03a.jpg,pics/sailboat.jpg,pics/salmon.jpg,pics/banjo.jpg,pics/zebra.jpg,pics/stapler09.jpg,pics/peach01.jpg,pics/chainsaw.jpg,pics/football.jpg,blankImage,blankImage,blankImage,blankImage,blankImage,rooster,55,,,,,,,,,,,,,,,,,,,,,,,,,,,,,,,,,,,,,,,,,0,51,51,54,1,,,,,,,,,,,,,,,,,,,,,,,,,,,,,,,,,,,,,,,,,,,,,,,,,,,,,,,
,,,,,66310f1cfffdab7496cd1aa6,6682b41eeb79ab8215dff63d,6682bc570f780ca1ccd0354d,40,male,english,2024-07-01_09h31.52.092,ABmemTask3,2023.2.3,MacIntel,58.13953488,,,,,,,,,,,,,,,,,,,,,,,,,,,,,,,832.3889,833.3781,833.3781,7,833.8782,835.3952,0.0012,835.5115,0.116,0.1165,0.1157,0.1168,0.1166,0.1177,0.1163,0.117,0.1155,0.1168,0.1176,835.5116,836.9607,right,1.4277,,836.9608,838.2117,left,1.2349,,68,0,106,838.2117,839.2106,,,,,,1_AB,L5_T1P_T2A,5,1,0,4,9,3,5,14,Frisbee,Did you see the Frisbee,0.12,0,resources/,pics/giraffe.jpg,pics/christmaslights.jpg,pics/bowtie.jpg,pics/frisbee.jpg,pics/banjo.jpg,pics/calendar.jpg,pics/butterfly.jpg,pics/onion.jpg,pics/starfish01.jpg,pics/footballhelmet.jpg,pics/blender.jpg,pics/candleholder01.jpg,pics/hairdryer02a.jpg,pics/dromedary.jpg,blankImage,blankImage,blankImage,frisbee,58,0.1158,0.1174,,,,,,,,,,,,,,,,,,,,,,,,,,,,,,,,,,,,,,,0,52,52,57,1,,,,,,,,,,,,,,,,,,,,,,,,,,,,,,,,,,,,,,,,,,,,,,,,,,,,,,,
,,,,,66310f1cfffdab7496cd1aa6,6682b41eeb79ab8215dff63d,6682bc570f780ca1ccd0354d,40,male,english,2024-07-01_09h31.52.092,ABmemTask3,2023.2.3,MacIntel,58.13953488,,,,,,,,,,,,,,,,,,,,,,,,,,,,,,,839.2234,840.2117,840.2117,7,840.7116,842.3443,0.0015,842.4617,0.1148,0.1177,0.1165,0.1156,0.1169,0.1178,0.1166,0.1167,0.1166,0.1156,0.1177,842.4618,844.4619,right,1.9787,,844.462,845.3786,right,0.902,,70,0,108,845.3787,846.3787,,,,,,1_AB,L5_T1P_T2P,5,1,1,5,10,4,5,15,dolphin,Did you see the dolphin,0.12,0,resources/,pics/banjo.jpg,pics/shipinabottle.jpg,pics/laptop01a.jpg,pics/onion.jpg,pics/dolphin01.jpg,pics/sink.jpg,pics/seaturtle.jpg,pics/butterfly.jpg,pics/hen.jpg,pics/stapler10.jpg,pics/proboscismonkey.jpg,pics/starfish01.jpg,pics/salmon.jpg,pics/spiderweb.jpg,pics/cymbal.jpg,blankImage,blankImage,dolphin01,49,0.1156,0.1176,0.1154,,,,,,,,,,,,,,,,,,,,,,,,,,,,,,,,,,,,,,0,53,53,48,1,,,,,,,,,,,,,,,,,,,,,,,,,,,,,,,,,,,,,,,,,,,,,,,,,,,,,,,
,,,,,66310f1cfffdab7496cd1aa6,6682b41eeb79ab8215dff63d,6682bc570f780ca1ccd0354d,40,male,english,2024-07-01_09h31.52.092,ABmemTask3,2023.2.3,MacIntel,58.13953488,,,,,,,,,,,,,,,,,,,,,,,,,,,,,,,846.3903,847.3785,847.3786,7,847.8786,849.0457,0.0015,849.161,0.116,0.1165,0.1167,0.1154,0.1176,0.1168,0.1158,0.1176,0.1167,0.1167,,849.1611,850.9288,right,1.7444,,850.9288,851.7278,right,0.7836,,72,0,110,851.7279,852.7277,,,,,,1_AB,L1_T1P_T2P,1,1,1,7,8,6,3,11,toothpick,Did you see the toothpick,0.12,0,resources/,pics/candleholder01.jpg,pics/blender.jpg,pics/siamesecat.jpg,pics/peanut01.jpg,pics/spiderweb.jpg,pics/football.jpg,pics/toothpick02.jpg,pics/stapler04b.jpg,pics/seagull.jpg,pics/pictureframe04.jpg,pics/shipinabottle.jpg,blankImage,blankImage,blankImage,blankImage,blankImage,blankImage,toothpick02,17,,,,,,,,,,,,,,,,,,,,,,,,,,,,,,,,,,,,,,,,,0,54,54,16,1,,,,,,,,,,,,,,,,,,,,,,,,,,,,,,,,,,,,,,,,,,,,,,,,,,,,,,,
,,,,,66310f1cfffdab7496cd1aa6,6682b41eeb79ab8215dff63d,6682bc570f780ca1ccd0354d,40,male,english,2024-07-01_09h31.52.092,ABmemTask3,2023.2.3,MacIntel,58.13953488,,,,,,,,,,,,,,,,,,,,,,,,,,,,,,,852.7282,853.7287,853.7288,7,854.228,855.5116,0.0011,855.6277,0.116,0.1175,0.1166,0.1157,0.118,0.1163,0.1171,0.1153,0.1177,0.1169,0.1156,855.6278,856.928,right,1.2834,,856.928,857.646,left,0.7135,,74,0,112,857.6461,858.6457,,,,,,1_AB,L1_T1P_T2A,1,1,0,7,8,6,4,12,Tennis racket,Did you see the Tennis racket,0.12,0,resources/,pics/banjo.jpg,pics/leaf02a.jpg,pics/shovel01.jpg,pics/microscope.jpg,pics/cork02.jpg,pics/seagull.jpg,pics/tennisracket.jpg,pics/binder03b.jpg,pics/floortile02.jpg,pics/carrot01.jpg,pics/candle01.jpg,pics/siamesecat.jpg,blankImage,blankImage,blankImage,blankImage,blankImage,tennisracket,38,,,,,,,,,,,,,,,,,,,,,,,,,,,,,,,,,,,,,,,,,0,55,55,37,1,,,,,,,,,,,,,,,,,,,,,,,,,,,,,,,,,,,,,,,,,,,,,,,,,,,,,,,
,,,,,66310f1cfffdab7496cd1aa6,6682b41eeb79ab8215dff63d,6682bc570f780ca1ccd0354d,40,male,english,2024-07-01_09h31.52.092,ABmemTask3,2023.2.3,MacIntel,58.13953488,,,,,,,,,,,,,,,,,,,,,,,,,,,,,,,858.6463,859.6456,859.6457,7,860.1456,861.6628,0.0014,861.779,0.1149,0.1165,0.1178,0.1167,0.1165,0.1173,0.1152,0.1176,0.1165,0.1169,0.1166,861.7791,862.8959,right,1.0979,,862.8959,863.6458,left,0.732,,76,0,114,863.6459,864.6459,,,,,,1_AB,L5_T1P_T2A,5,1,0,6,11,5,3,14,Kiwi,Did you see the Kiwi,0.12,0,resources/,pics/candleholder01.jpg,pics/kangaroo.jpg,pics/banjo.jpg,pics/binoculars01b.jpg,pics/microscope.jpg,pics/kiwi03.jpg,pics/bowtie.jpg,pics/peanut01.jpg,pics/backpack01a.jpg,pics/zebra.jpg,pics/toiletpaper01a.jpg,pics/hen.jpg,pics/spoon01.jpg,pics/calendar.jpg,blankImage,blankImage,blankImage,kiwi03,59,0.1167,0.1167,,,,,,,,,,,,,,,,,,,,,,,,,,,,,,,,,,,,,,,0,56,56,58,1,,,,,,,,,,,,,,,,,,,,,,,,,,,,,,,,,,,,,,,,,,,,,,,,,,,,,,,
,,,,,66310f1cfffdab7496cd1aa6,6682b41eeb79ab8215dff63d,6682bc570f780ca1ccd0354d,40,male,english,2024-07-01_09h31.52.092,ABmemTask3,2023.2.3,MacIntel,58.13953488,,,,,,,,,,,,,,,,,,,,,,,,,,,,,,,864.6465,865.6459,865.6459,7,866.1457,867.0795,0.0011,867.1959,0.1162,0.117,0.1163,0.1169,0.1166,0.1168,0.1166,0.1165,,,,867.196,871.2128,left,3.9934,,871.2128,872.1957,left,0.9713,,74,0,116,872.1957,873.1949,,,,,,1_AB,L1_T1P_T2P,1,1,1,4,5,3,4,9,Chefs hat,Did you see the Chefs hat,0.12,0,resources/,pics/sewingmachine01a.jpg,pics/icecube01.jpg,pics/fanblades.jpg,pics/chefshat.jpg,pics/stapler06.jpg,pics/ashtray01.jpg,pics/blender.jpg,pics/sandbarshark.jpg,pics/lock03a.jpg,blankImage,blankImage,blankImage,blankImage,blankImage,blankImage,blankImage,blankImage,chefshat,12,,,,,,,,,,,,,,,,,,,,,,,,,,,,,,,,,,,,,,,,,0,57,57,11,1,,,,,,,,,,,,,,,,,,,,,,,,,,,,,,,,,,,,,,,,,,,,,,,,,,,,,,,
,,,,,66310f1cfffdab7496cd1aa6,6682b41eeb79ab8215dff63d,6682bc570f780ca1ccd0354d,40,male,english,2024-07-01_09h31.52.092,ABmemTask3,2023.2.3,MacIntel,58.13953488,,,,,,,,,,,,,,,,,,,,,,,,,,,,,,,873.2086,874.2126,874.2128,7,874.7128,876.1136,0.0011,876.2296,0.1163,0.1166,0.1156,0.1168,0.1167,0.1176,0.1165,0.1167,0.1166,0.1167,0.1168,876.2296,877.6131,left,1.357,,877.6131,878.1298,right,0.5004,,76,0,118,878.1299,879.1286,,,,,,1_AB,L1_T1A_T2P,1,0,1,7,8,6,5,13,statue,Did you see the statue,0.12,0,resources/,pics/giraffe.jpg,pics/seaturtle.jpg,pics/peach01.jpg,pics/boot02b.jpg,pics/backpack01a.jpg,pics/sandbarshark.jpg,pics/microscope.jpg,pics/stapler07.jpg,pics/snowshoe.jpg,pics/laptop01a.jpg,pics/necklace.jpg,pics/zebra.jpg,pics/carrot01.jpg,blankImage,blankImage,blankImage,blankImage,statue,27,0.117,,,,,,,,,,,,,,,,,,,,,,,,,,,,,,,,,,,,,,,,0,58,58,26,1,,,,,,,,,,,,,,,,,,,,,,,,,,,,,,,,,,,,,,,,,,,,,,,,,,,,,,,
,,,,,66310f1cfffdab7496cd1aa6,6682b41eeb79ab8215dff63d,6682bc570f780ca1ccd0354d,40,male,english,2024-07-01_09h31.52.092,ABmemTask3,2023.2.3,MacIntel,58.13953488,,,,,,,,,,,,,,,,,,,,,,,,,,,,,,,879.1403,880.1286,880.1287,7,880.6294,881.7969,0.0013,881.913,0.1152,0.1167,0.1178,0.1164,0.1168,0.1156,0.1174,0.1168,0.1169,0.1168,,881.913,885.1632,right,3.2345,,885.1632,885.9298,right,0.7506,,78,0,120,885.9299,886.9289,,,,,,1_AB,L1_T1P_T2P,1,1,1,7,8,6,3,11,medal,Did you see the medal,0.12,0,resources/,pics/hen.jpg,pics/starfish01.jpg,pics/nutcracker01.jpg,pics/ball02.jpg,pics/fanblades.jpg,pics/christmaslights.jpg,pics/medal02b.jpg,pics/stapler09.jpg,pics/carrot01.jpg,pics/hammerheadshark.jpg,pics/sailboat.jpg,blankImage,blankImage,blankImage,blankImage,blankImage,blankImage,medal02b,19,,,,,,,,,,,,,,,,,,,,,,,,,,,,,,,,,,,,,,,,,0,59,59,18,1,,,,,,,,,,,,,,,,,,,,,,,,,,,,,,,,,,,,,,,,,,,,,,,,,,,,,,,
,,,,,66310f1cfffdab7496cd1aa6,6682b41eeb79ab8215dff63d,6682bc570f780ca1ccd0354d,40,male,english,2024-07-01_09h31.52.092,ABmemTask3,2023.2.3,MacIntel,58.13953488,,,,,,,,,,,,,,,,,,,,,,,,,,,,,,,886.942,887.9298,887.9299,7,888.4299,889.5969,0.0011,889.7132,0.1153,0.1176,0.1164,0.1158,0.1169,0.1175,0.1167,0.1167,0.1168,0.1164,,889.7133,890.9135,right,1.1829,,890.9136,891.6133,right,0.6839,,80,0,122,891.6134,892.6134,,,,,,1_AB,L1_T1P_T2P,1,1,1,7,8,6,3,11,bird,Did you see the bird,0.12,0,resources/,pics/sealion.jpg,pics/backpack01a.jpg,pics/hose.jpg,pics/table01.jpg,pics/wheel01.jpg,pics/seaturtle.jpg,pics/americangoldfinch.jpg,pics/stapler08.jpg,pics/siamesecat.jpg,pics/hammerheadshark.jpg,pics/ashtray01.jpg,blankImage,blankImage,blankImage,blankImage,blankImage,blankImage,americangoldfinch,23,,,,,,,,,,,,,,,,,,,,,,,,,,,,,,,,,,,,,,,,,0,60,60,22,1,,,,,,,,,,,,,,,,,,,,,,,,,,,,,,,,,,,,,,,,,,,,,,,,,,,,,,,
,,,,,66310f1cfffdab7496cd1aa6,6682b41eeb79ab8215dff63d,6682bc570f780ca1ccd0354d,40,male,english,2024-07-01_09h31.52.092,ABmemTask3,2023.2.3,MacIntel,58.13953488,,,,,,,,,,,,,,,,,,,,,,,,,,,,,,,892.6141,893.6124,893.6124,7,894.1134,895.1636,0.001,895.28,0.1164,0.1156,0.1177,0.1165,0.1171,0.1163,0.1165,0.1166,0.1166,,,895.2801,896.4469,right,1.1475,,896.447,897.2135,right,0.7512,,82,0,124,897.2137,898.2135,,,,,,1_AB,L1_T1P_T2P,1,1,1,5,6,4,4,10,thermometer,Did you see the thermometer,0.12,0,resources/,pics/triangle.jpg,pics/shovel01.jpg,pics/mummy.jpg,pics/noparkingsign.jpg,pics/thermometer02b.jpg,pics/stapler04.jpg,pics/piggybank.jpg,pics/golfball.jpg,pics/laptop01a.jpg,pics/aquarium.jpg,blankImage,blankImage,blankImage,blankImage,blankImage,blankImage,blankImage,thermometer02b,8,,,,,,,,,,,,,,,,,,,,,,,,,,,,,,,,,,,,,,,,,0,61,61,7,1,,,,,,,,,,,,,,,,,,,,,,,,,,,,,,,,,,,,,,,,,,,,,,,,,,,,,,,
,,,,,66310f1cfffdab7496cd1aa6,6682b41eeb79ab8215dff63d,6682bc570f780ca1ccd0354d,40,male,english,2024-07-01_09h31.52.092,ABmemTask3,2023.2.3,MacIntel,58.13953488,,,,,,,,,,,,,,,,,,,,,,,,,,,,,,,,,,,,,,,,,,,,,,,,,,,,,,,,,,,,,,,,,,,,,,,,,,,,,,,,,,,,,,,,,,,,,,,,,,,,,,,,,,,898.2147,911.6653,space,13.4337,,,,,,,,,,,,,,,,,,,,,,,,,,,,,,,,,,,,,,,,,,,,,,,,,,,,,,,,,,,,,,,,,,,,,,,,,,,,,,,,,,,,,,,,,,,,,
,,,,,66310f1cfffdab7496cd1aa6,6682b41eeb79ab8215dff63d,6682bc570f780ca1ccd0354d,40,male,english,2024-07-01_09h31.52.092,ABmemTask3,2023.2.3,MacIntel,58.13953488,,,space,155.2712,,,,,,,,,,,,,,,,,,,,,,,,,,,,,,,,,,,,,,,,,,,,,,,,,,,,,,,,,,,,,,,,,,,,,,,,,,,,,,,,,,,,,,,,,,,,,,,,,,,,,,,,,,,,,,,,,,,,,,,,,,,,,,,,,,,,,,,,,,,,,,,,,,,911.6655,1066.97,,,,,,,,,,,,,,,,,,,,,,,,,,,,,,,,,,,,,,,,,,,,,,,,,,,
,,,,,66310f1cfffdab7496cd1aa6,6682b41eeb79ab8215dff63d,6682bc570f780ca1ccd0354d,40,male,english,2024-07-01_09h31.52.092,ABmemTask3,2023.2.3,MacIntel,58.13953488,,,,,,,,,,,,,,,,,,,,,,,,,,,,,,,,,,,,,,,,,,,,,,,,,,,,,,,,,,,,,,,,,,,,,,,,,,,,,,,,,,,,,,,,,,,,,,,,,,,,,,,,,,,,,,,,,,,,,,,,,,,,,,,,,,,,,,,,,,,,,,,,,,,,,,,,,1066.9702,1084.421,space,17.4215,,,,,,,,,,,,,,,,,,,,,,,,,,,,,,,,,,,,,,,,,,,,,,,
,,,,,66310f1cfffdab7496cd1aa6,6682b41eeb79ab8215dff63d,6682bc570f780ca1ccd0354d,40,male,english,2024-07-01_09h31.52.092,ABmemTask3,2023.2.3,MacIntel,58.13953488,,,,,,,,,,,,,,,,,,,,,,,,,,,,,,,1084.4313,1085.4195,1085.4196,7,1085.9195,1087.7867,0.0017,1087.9029,0.1159,0.1165,0.1166,0.1166,0.1167,0.1166,0.1166,0.1166,0.1167,0.1167,0.1167,1087.9032,1088.9197,right,0.9901,,,,,,,1,82,2,1088.9198,1089.9197,,,,,,2_AB,L5_T1P_T2P,5,1,1,7,12,6,5,17,lion,Did you see the lion,0.12,0,resources/,pics/siamesecat.jpg,pics/dromedary.jpg,pics/cannon.jpg,pics/toiletpaper01a.jpg,pics/hen.jpg,pics/salmon.jpg,pics/lion.jpg,pics/candle01.jpg,pics/christmaslights.jpg,pics/noparkingsign.jpg,pics/table01.jpg,pics/stapler06.jpg,pics/pictureframe04.jpg,pics/microscope.jpg,pics/hose.jpg,pics/sandbarshark.jpg,pics/laptop01a.jpg,lion,50,0.1168,0.1164,0.1167,,,,,,,,,,,,,,,,,,,,,,,,,,,,,,,,,,,,,,,,,,,0.1167,0.1167,,,,,,,,0,0,0,49,1,,,,,,,,,,,,,,,,,,,,,,,,,,,,,,,,,,,,,,,,,
,,,,,66310f1cfffdab7496cd1aa6,6682b41eeb79ab8215dff63d,6682bc570f780ca1ccd0354d,40,male,english,2024-07-01_09h31.52.092,ABmemTask3,2023.2.3,MacIntel,58.13953488,,,,,,,,,,,,,,,,,,,,,,,,,,,,,,,1089.9206,1090.9198,1090.9199,7,1091.4197,1093.2868,0.0013,1093.4021,0.116,0.1166,0.1168,0.1166,0.1168,0.1165,0.1168,0.1166,0.1167,0.1168,0.1166,1093.4022,1094.1865,right,0.764,,,,,,,2,82,4,1094.1866,1095.1865,,,,,,2_AB,L5_T1P_T2P,5,1,1,7,12,6,5,17,lips,Did you see the lips,0.12,0,resources/,pics/binder03b.jpg,pics/christmaslights.jpg,pics/shovel01.jpg,pics/wheel01.jpg,pics/calendar.jpg,pics/sealion.jpg,pics/lip.jpg,pics/table01.jpg,pics/seagull.jpg,pics/hammerheadshark.jpg,pics/bowtie.jpg,pics/stapler05.jpg,pics/mummy.jpg,pics/hen.jpg,pics/golfball.jpg,pics/fanblades.jpg,pics/laptop01a.jpg,lip,43,0.1166,0.1168,0.1165,,,,,,,,,,,,,,,,,,,,,,,,,,,,,,,,,,,,,,,,,,,0.1167,0.1167,,,,,,,,0,1,1,42,1,,,,,,,,,,,,,,,,,,,,,,,,,,,,,,,,,,,,,,,,,
,,,,,66310f1cfffdab7496cd1aa6,6682b41eeb79ab8215dff63d,6682bc570f780ca1ccd0354d,40,male,english,2024-07-01_09h31.52.092,ABmemTask3,2023.2.3,MacIntel,58.13953488,,,,,,,,,,,,,,,,,,,,,,,,,,,,,,,1095.1872,1096.1855,1096.1855,7,1096.6855,1097.736,0.0012,1097.8531,0.1172,0.1164,0.1169,0.1167,0.1167,0.1166,0.1167,0.1167,0.1157,,,1097.8533,1098.6195,right,0.7439,,,,,,,3,82,6,1098.6196,1099.6189,,,,,,2_AB,L1_T1P_T2P,1,1,1,4,5,3,5,10,Jellyfish,Did you see the Jellyfish,0.12,0,resources/,pics/toiletpaper01a.jpg,pics/butterfly.jpg,pics/mummy.jpg,pics/jellyfish.jpg,pics/stapler04b.jpg,pics/banjo.jpg,pics/seagull.jpg,pics/laptop01a.jpg,pics/bowlingpin.jpg,pics/zebra.jpg,blankImage,blankImage,blankImage,blankImage,blankImage,blankImage,blankImage,jellyfish,20,,,,,,,,,,,,,,,,,,,,,,,,,,,,,,,,,,,,,,,,,,,,,,,,,,,,,,,0,2,2,19,1,,,,,,,,,,,,,,,,,,,,,,,,,,,,,,,,,,,,,,,,,
,,,,,66310f1cfffdab7496cd1aa6,6682b41eeb79ab8215dff63d,6682bc570f780ca1ccd0354d,40,male,english,2024-07-01_09h31.52.092,ABmemTask3,2023.2.3,MacIntel,58.13953488,,,,,,,,,,,,,,,,,,,,,,,,,,,,,,,1099.6195,1100.6193,1100.6193,7,1101.12,1102.5195,0.0012,1102.6367,0.1162,0.1164,0.117,0.1165,0.1157,0.1177,0.1165,0.1167,0.1169,0.1156,0.1178,1102.6369,1103.4201,right,0.762,,,,,,,4,82,8,1103.4202,1104.4191,,,,,,2_AB,L5_T1P_T2P,5,1,1,4,9,3,4,13,earrings,Did you see the earrings,0.12,0,resources/,pics/pencil01.jpg,pics/onion.jpg,pics/toiletpaper01a.jpg,pics/earring01.jpg,pics/seagull.jpg,pics/proboscismonkey.jpg,pics/carrot01.jpg,pics/pencilsharpener02a.jpg,pics/stapler11.jpg,pics/hairdryer02a.jpg,pics/peanut01.jpg,pics/zebra.jpg,pics/lightswitch01.jpg,blankImage,blankImage,blankImage,blankImage,earring01,46,0.1154,,,,,,,,,,,,,,,,,,,,,,,,,,,,,,,,,,,,,,,,,,,,,,,,,,,,,,0,3,3,45,1,,,,,,,,,,,,,,,,,,,,,,,,,,,,,,,,,,,,,,,,,
,,,,,66310f1cfffdab7496cd1aa6,6682b41eeb79ab8215dff63d,6682bc570f780ca1ccd0354d,40,male,english,2024-07-01_09h31.52.092,ABmemTask3,2023.2.3,MacIntel,58.13953488,,,,,,,,,,,,,,,,,,,,,,,,,,,,,,,1104.4198,1105.4192,1105.4192,7,1105.9191,1106.8528,0.0012,1106.9691,0.1171,0.1168,0.1168,0.1153,0.118,0.1156,0.1165,0.1168,,,,1106.9692,1108.2703,left,1.2812,,,,,,,5,82,10,1108.2704,1109.2702,,,,,,2_AB,L1_T1A_T2P,1,0,1,4,5,3,4,9,granola bar,Did you see the granola bar,0.12,0,resources/,pics/hairdryer02a.jpg,pics/microscope.jpg,pics/triangle.jpg,pics/calendar.jpg,pics/stapler04.jpg,pics/sailboat.jpg,pics/floortile02.jpg,pics/backpack01a.jpg,pics/pencil01.jpg,blankImage,blankImage,blankImage,blankImage,blankImage,blankImage,blankImage,blankImage,granolabar01,30,,,,,,,,,,,,,,,,,,,,,,,,,,,,,,,,,,,,,,,,,,,,,,,,,,,,,,,0,4,4,29,1,,,,,,,,,,,,,,,,,,,,,,,,,,,,,,,,,,,,,,,,,
,,,,,66310f1cfffdab7496cd1aa6,6682b41eeb79ab8215dff63d,6682bc570f780ca1ccd0354d,40,male,english,2024-07-01_09h31.52.092,ABmemTask3,2023.2.3,MacIntel,58.13953488,,,,,,,,,,,,,,,,,,,,,,,,,,,,,,,1109.2814,1110.2703,1110.2704,7,1110.7704,1112.053,0.0014,1112.1704,0.1159,0.1168,0.1164,0.1168,0.1167,0.1156,0.1167,0.1174,0.117,0.1155,0.1169,1112.1706,1113.0537,left,0.8574,,,,,,,4,82,12,1113.0537,1114.0527,,,,,,2_AB,L5_T1P_T2P,5,1,1,4,9,3,3,12,Skis,Did you see the Skis,0.12,0,resources/,pics/mummy.jpg,pics/microscope.jpg,pics/pencilsharpener02a.jpg,pics/crosscountryski.jpg,pics/butterfly.jpg,pics/chainsaw.jpg,pics/sink.jpg,pics/boot02b.jpg,pics/stapler03b.jpg,pics/spoon01.jpg,pics/necklace.jpg,pics/peach01.jpg,blankImage,blankImage,blankImage,blankImage,blankImage,crosscountryski,52,,,,,,,,,,,,,,,,,,,,,,,,,,,,,,,,,,,,,,,,,,,,,,,,,,,,,,,0,5,5,51,1,,,,,,,,,,,,,,,,,,,,,,,,,,,,,,,,,,,,,,,,,
,,,,,66310f1cfffdab7496cd1aa6,6682b41eeb79ab8215dff63d,6682bc570f780ca1ccd0354d,40,male,english,2024-07-01_09h31.52.092,ABmemTask3,2023.2.3,MacIntel,58.13953488,,,,,,,,,,,,,,,,,,,,,,,,,,,,,,,1114.0533,1115.0528,1115.0528,7,1115.5538,1116.4875,0.0011,1116.6038,0.1163,0.1164,0.1168,0.1167,0.1165,0.1166,0.1169,0.1166,,,,1116.6038,1117.7863,left,1.1616,,,,,,,5,82,14,1117.7865,1118.7872,,,,,,2_AB,L1_T1A_T2A,1,0,0,5,6,4,3,9,kiwi,Did you see the kiwi,0.12,0,resources/,pics/cymbal.jpg,pics/laptop01a.jpg,pics/aquarium.jpg,pics/safetypin.jpg,pics/shovel01.jpg,pics/peanut01.jpg,pics/binoculars01b.jpg,pics/mummy.jpg,pics/footballhelmet.jpg,blankImage,blankImage,blankImage,blankImage,blankImage,blankImage,blankImage,blankImage,kiwi01a,41,,,,,,,,,,,,,,,,,,,,,,,,,,,,,,,,,,,,,,,,,,,,,,,,,,,,,,,0,6,6,40,1,,,,,,,,,,,,,,,,,,,,,,,,,,,,,,,,,,,,,,,,,
,,,,,66310f1cfffdab7496cd1aa6,6682b41eeb79ab8215dff63d,6682bc570f780ca1ccd0354d,40,male,english,2024-07-01_09h31.52.092,ABmemTask3,2023.2.3,MacIntel,58.13953488,,,,,,,,,,,,,,,,,,,,,,,,,,,,,,,1118.788,1119.7865,1119.7866,7,1120.2862,1121.4545,0.001,1121.5707,0.1174,0.1155,0.1166,0.1179,0.1168,0.1163,0.1158,0.1176,0.1158,0.1178,,1121.5708,1122.854,left,1.2583,,,,,,,6,82,16,1122.854,1123.853,,,,,,2_AB,L1_T1A_T2P,1,0,1,6,7,5,4,11,bench,Did you see the bench,0.12,0,resources/,pics/butterfly.jpg,pics/peach01.jpg,pics/blender.jpg,pics/binoculars01b.jpg,pics/starfish01.jpg,pics/ball02.jpg,pics/stapler06.jpg,pics/cork02.jpg,pics/mummy.jpg,pics/calendar.jpg,pics/necklace.jpg,blankImage,blankImage,blankImage,blankImage,blankImage,blankImage,bench01,28,,,,,,,,,,,,,,,,,,,,,,,,,,,,,,,,,,,,,,,,,,,,,,,,,,,,,,,0,7,7,27,1,,,,,,,,,,,,,,,,,,,,,,,,,,,,,,,,,,,,,,,,,
,,,,,66310f1cfffdab7496cd1aa6,6682b41eeb79ab8215dff63d,6682bc570f780ca1ccd0354d,40,male,english,2024-07-01_09h31.52.092,ABmemTask3,2023.2.3,MacIntel,58.13953488,,,,,,,,,,,,,,,,,,,,,,,,,,,,,,,1123.8536,1124.8542,1124.8542,7,1125.3539,1126.5212,0.0013,1126.6375,0.1151,0.1176,0.1167,0.1157,0.1167,0.1166,0.1177,0.1166,0.1154,0.1178,,1126.6376,1127.4209,right,0.761,,,,,,,7,82,18,1127.4209,1128.4198,,,,,,2_AB,L1_T1P_T2A,1,1,0,6,7,5,4,11,tambourine,Did you see the tambourine,0.12,0,resources/,pics/pencil01.jpg,pics/floortile02.jpg,pics/butterfly.jpg,pics/toiletpaper01a.jpg,pics/kangaroo.jpg,pics/tambourine01.jpg,pics/lock03a.jpg,pics/golfball.jpg,pics/ashtray01.jpg,pics/fanblades.jpg,pics/sewingmachine01a.jpg,blankImage,blankImage,blankImage,blankImage,blankImage,blankImage,tambourine01,35,,,,,,,,,,,,,,,,,,,,,,,,,,,,,,,,,,,,,,,,,,,,,,,,,,,,,,,0,8,8,34,1,,,,,,,,,,,,,,,,,,,,,,,,,,,,,,,,,,,,,,,,,
,,,,,66310f1cfffdab7496cd1aa6,6682b41eeb79ab8215dff63d,6682bc570f780ca1ccd0354d,40,male,english,2024-07-01_09h31.52.092,ABmemTask3,2023.2.3,MacIntel,58.13953488,,,,,,,,,,,,,,,,,,,,,,,,,,,,,,,1128.4206,1129.421,1129.421,7,1129.9209,1130.9704,0.0012,1131.0876,0.1151,0.1177,0.1165,0.1162,0.1173,0.1157,0.1177,0.1167,0.1157,,,1131.0877,1131.7543,right,0.6448,,,,,,,8,82,20,1131.7545,1132.7533,,,,,,2_AB,L1_T1P_T2P,1,1,1,5,6,4,4,10,violin,Did you see the violin,0.12,0,resources/,pics/chainsaw.jpg,pics/mummy.jpg,pics/binder03b.jpg,pics/shipinabottle.jpg,pics/violin.jpg,pics/stapler03.jpg,pics/butterfly.jpg,pics/peanut01.jpg,pics/candle01.jpg,pics/sewingmachine01a.jpg,blankImage,blankImage,blankImage,blankImage,blankImage,blankImage,blankImage,violin,18,,,,,,,,,,,,,,,,,,,,,,,,,,,,,,,,,,,,,,,,,,,,,,,,,,,,,,,0,9,9,17,1,,,,,,,,,,,,,,,,,,,,,,,,,,,,,,,,,,,,,,,,,
