consent1.started,consent1.stopped,key_resp_8.keys,key_resp_8.rt,key_resp_8.duration,PROLIFIC_PID,STUDY_ID,SESSION_ID,age,sex,native language,date,expName,psychopyVersion,OS,frameRate,consent2.started,consent2.stopped,key_resp_9.keys,key_resp_9.rt,key_resp_9.duration,consent3.started,consent3.stopped,key_resp_10.keys,key_resp_10.rt,key_resp_10.duration,consent4.started,consent4.stopped,key_resp_11.keys,key_resp_11.rt,key_resp_11.duration,consent5.started,consent5.stopped,key_resp_12.keys,key_resp_12.rt,key_resp_12.duration,bonusInstruct.started,bonusInstruct.stopped,key_resp_14.keys,key_resp_14.rt,key_resp_14.duration,practiceInstruct.started,practiceInstruct.stopped,key_resp.keys,key_resp.rt,key_resp.duration,cueWord_2.started,cueWord_2.stopped,fix.started,frameTarget,fix.stopped,trial.started,img1Add,trial.stopped,img2Add,img3Add,img4Add,img5Add,img6Add,img7Add,img8Add,img9Add,img10Add,img11Add,img12Add,prompt1.started,prompt1.stopped,key_resp_2.keys,key_resp_2.rt,key_resp_2.duration,prompt2.started,prompt2.stopped,key_resp_3.keys,key_resp_3.rt,key_resp_3.duration,runningAcc_AB,runningTotal,runningCount_AB,feedback.started,feedback.stopped,trials.thisRepN,trials.thisTrialN,trials.thisN,trials.thisIndex,trials.ran,TrialType,CondType,Lag,T1_PA,T2_PA,T1Loc,T2Loc,PreDistractor,PostDistractor,TotalImg,cueWord,T1cue,StimLength,isi,PicFolder,Img1,Img2,Img3,Img4,Img5,Img6,Img7,Img8,Img9,Img10,Img11,Img12,Img13,Img14,Img15,Img16,Img17,T1_Identity,trialID,img13Add,img14Add,img15Add,ABfeedback.started,ABfeedback.stopped,key_resp_13.keys,key_resp_13.rt,key_resp_13.duration,MemPracticeInstruction.started,MemPracticeInstruction.stopped,key_resp_5.keys,key_resp_5.rt,key_resp_5.duration,memTrial.started,memTrial.stopped,Mem_runningPoints,key_resp_4.keys,key_resp_4.rt,key_resp_4.duration,memTrialFeedback.started,memTrialFeedback.stopped,trials_2.thisRepN,trials_2.thisTrialN,trials_2.thisN,trials_2.thisIndex,trials_2.ran,ABtrialID,priorLag,image,memFeedback.started,memFeedback.frame,memFeedback.ended,memFeedback.stopped,bonus.started,bonus.stopped,memoryBlockABInstruct.started,memoryBlockABInstruct.stopped,key_resp_6.keys,key_resp_6.rt,key_resp_6.duration,AB_block_1.thisRepN,AB_block_1.thisTrialN,AB_block_1.thisN,AB_block_1.thisIndex,AB_block_1.ran,img16Add,img17Add,AB_break1.started,AB_break1.stopped,PerceiveBlockABInstruct.started,PerceiveBlockABInstruct.stopped,key_resp_7.keys,key_resp_7.rt,key_resp_7.duration,AB_block_2.thisRepN,AB_block_2.thisTrialN,AB_block_2.thisN,AB_block_2.thisIndex,AB_block_2.ran,AB_break2.started,AB_break2.stopped,AB_block_3.thisRepN,AB_block_3.thisTrialN,AB_block_3.thisN,AB_block_3.thisIndex,AB_block_3.ran,AB_break3.started,AB_break3.stopped,AB_block_4.thisRepN,AB_block_4.thisTrialN,AB_block_4.thisN,AB_block_4.thisIndex,AB_block_4.ran,AB_break4.started,AB_break4.stopped,AB_block_5.thisRepN,AB_block_5.thisTrialN,AB_block_5.thisN,AB_block_5.thisIndex,AB_block_5.ran,AB_break5.started,AB_break5.stopped,AB_block_6.thisRepN,AB_block_6.thisTrialN,AB_block_6.thisN,AB_block_6.thisIndex,AB_block_6.ran,AB_break6.started,AB_break6.stopped,MemInstructionSURPRISE.started,MemInstructionSURPRISE.stopped,MemInstruction.started,MemInstruction.stopped,memBreak.started,memBreak.stopped,Mem_block_1.thisRepN,Mem_block_1.thisTrialN,Mem_block_1.thisN,Mem_block_1.thisIndex,Mem_block_1.ran
0.002,13.556,space,13.515,,60b2785e793387fa22524fce,6682b41eeb79ab8215dff63d,6682cce3aa44eb333efbac11,27,female,english,2024-07-01_16h37.00.570,ABmemTask3,2023.2.3,Win32,60.0240096,,,,,,,,,,,,,,,,,,,,,,,,,,,,,,,,,,,,,,,,,,,,,,,,,,,,,,,,,,,,,,,,,,,,,,,,,,,,,,,,,,,,,,,,,,,,,,,,,,,,,,,,,,,,,,,,,,,,,,,,,,,,,,,,,,,,,,,,,,,,,,,,,,,,,,,,,,,,,,,,,,,,,,,,,,,,,,,,,,,,,,,,,,,,,,,,,,,,,,,,,,,
,,,,,60b2785e793387fa22524fce,6682b41eeb79ab8215dff63d,6682cce3aa44eb333efbac11,27,female,english,2024-07-01_16h37.00.570,ABmemTask3,2023.2.3,Win32,60.0240096,13.556,20.288,space,6.695,,,,,,,,,,,,,,,,,,,,,,,,,,,,,,,,,,,,,,,,,,,,,,,,,,,,,,,,,,,,,,,,,,,,,,,,,,,,,,,,,,,,,,,,,,,,,,,,,,,,,,,,,,,,,,,,,,,,,,,,,,,,,,,,,,,,,,,,,,,,,,,,,,,,,,,,,,,,,,,,,,,,,,,,,,,,,,,,,,,,,,,,,,,,,,,,,,,,,,,
,,,,,60b2785e793387fa22524fce,6682b41eeb79ab8215dff63d,6682cce3aa44eb333efbac11,27,female,english,2024-07-01_16h37.00.570,ABmemTask3,2023.2.3,Win32,60.0240096,,,,,,20.289,22.088,space,1.77,,,,,,,,,,,,,,,,,,,,,,,,,,,,,,,,,,,,,,,,,,,,,,,,,,,,,,,,,,,,,,,,,,,,,,,,,,,,,,,,,,,,,,,,,,,,,,,,,,,,,,,,,,,,,,,,,,,,,,,,,,,,,,,,,,,,,,,,,,,,,,,,,,,,,,,,,,,,,,,,,,,,,,,,,,,,,,,,,,,,,,,,,,,,,,,,,,
,,,,,60b2785e793387fa22524fce,6682b41eeb79ab8215dff63d,6682cce3aa44eb333efbac11,27,female,english,2024-07-01_16h37.00.570,ABmemTask3,2023.2.3,Win32,60.0240096,,,,,,,,,,,22.088,22.654,space,0.532,,,,,,,,,,,,,,,,,,,,,,,,,,,,,,,,,,,,,,,,,,,,,,,,,,,,,,,,,,,,,,,,,,,,,,,,,,,,,,,,,,,,,,,,,,,,,,,,,,,,,,,,,,,,,,,,,,,,,,,,,,,,,,,,,,,,,,,,,,,,,,,,,,,,,,,,,,,,,,,,,,,,,,,,,,,,,,,,,,,,,,,,,,,,,
,,,,,60b2785e793387fa22524fce,6682b41eeb79ab8215dff63d,6682cce3aa44eb333efbac11,27,female,english,2024-07-01_16h37.00.570,ABmemTask3,2023.2.3,Win32,60.0240096,,,,,,,,,,,,,,,,22.654,23.289,space,0.599,,,,,,,,,,,,,,,,,,,,,,,,,,,,,,,,,,,,,,,,,,,,,,,,,,,,,,,,,,,,,,,,,,,,,,,,,,,,,,,,,,,,,,,,,,,,,,,,,,,,,,,,,,,,,,,,,,,,,,,,,,,,,,,,,,,,,,,,,,,,,,,,,,,,,,,,,,,,,,,,,,,,,,,,,,,,,,,,,,,,,,,,
,,,,,60b2785e793387fa22524fce,6682b41eeb79ab8215dff63d,6682cce3aa44eb333efbac11,27,female,english,2024-07-01_16h37.00.570,ABmemTask3,2023.2.3,Win32,60.0240096,,,,,,,,,,,,,,,,,,,,,23.289,38.221,space,14.895,,,,,,,,,,,,,,,,,,,,,,,,,,,,,,,,,,,,,,,,,,,,,,,,,,,,,,,,,,,,,,,,,,,,,,,,,,,,,,,,,,,,,,,,,,,,,,,,,,,,,,,,,,,,,,,,,,,,,,,,,,,,,,,,,,,,,,,,,,,,,,,,,,,,,,,,,,,,,,,,,,,,,,,,,,,,,,,,,,,
,,,,,60b2785e793387fa22524fce,6682b41eeb79ab8215dff63d,6682cce3aa44eb333efbac11,27,female,english,2024-07-01_16h37.00.570,ABmemTask3,2023.2.3,Win32,60.0240096,,,,,,,,,,,,,,,,,,,,,,,,,,38.221,83.201,space,44.945,,,,,,,,,,,,,,,,,,,,,,,,,,,,,,,,,,,,,,,,,,,,,,,,,,,,,,,,,,,,,,,,,,,,,,,,,,,,,,,,,,,,,,,,,,,,,,,,,,,,,,,,,,,,,,,,,,,,,,,,,,,,,,,,,,,,,,,,,,,,,,,,,,,,,,,,,,,,,,,,,,,,,,,,,,,,,,
,,,,,60b2785e793387fa22524fce,6682b41eeb79ab8215dff63d,6682cce3aa44eb333efbac11,27,female,english,2024-07-01_16h37.00.570,ABmemTask3,2023.2.3,Win32,60.0240096,,,,,,,,,,,,,,,,,,,,,,,,,,,,,,,83.21,84.201,84.201,15,84.701,87.452,0.002,87.7,0.248,0.25,0.25,0.251,0.249,0.25,0.251,0.249,0.251,0.249,0.251,87.7,88.951,right,1.229,,88.951,91.033,right,2.064,,-2,0,2,91.033,92.034,0,0,0,0,1,prac_AB,L1_T1P_T2A,1,1,0,6,7,5,5,12,cat,Did you see the cat,0.25,0,resources/,pics/shipinabottle.jpg,pics/table01.jpg,pics/dustpan.jpg,pics/golfball.jpg,pics/giraffe.jpg,pics/cat.jpg,pics/peanut01.jpg,pics/pictureframe04.jpg,pics/fanblades.jpg,pics/laptop01a.jpg,pics/ball02.jpg,pics/blender.jpg,blankImage,blankImage,blankImage,blankImage,blankImage,cat,8,,,,,,,,,,,,,,,,,,,,,,,,,,,,,,,,,,,,,,,,,,,,,,,,,,,,,,,,,,,,,,,,,,,,,,,,,,,,,,,,,,,,,,,,,,,,,,,,,,,,
,,,,,60b2785e793387fa22524fce,6682b41eeb79ab8215dff63d,6682cce3aa44eb333efbac11,27,female,english,2024-07-01_16h37.00.570,ABmemTask3,2023.2.3,Win32,60.0240096,,,,,,,,,,,,,,,,,,,,,,,,,,,,,,,92.034,93.034,93.034,14,93.533,95.633,0.002,95.866,0.232,0.234,0.233,0.234,0.232,0.233,0.234,0.234,0.233,,,95.868,99.1,right,3.21,,99.1,101.849,right,2.731,,0,0,4,101.85,102.849,0,1,1,1,1,prac_AB,L1_T1P_T2P,1,1,1,5,6,4,4,10,tree,Did you see the tree,0.24,0,resources/,pics/carrot01.jpg,pics/hammerheadshark.jpg,pics/kangaroo.jpg,pics/proboscismonkey.jpg,pics/tree.jpg,pics/stapler07.jpg,pics/siamesecat.jpg,pics/ball02.jpg,pics/pictureframe04.jpg,pics/mummy.jpg,blankImage,blankImage,blankImage,blankImage,blankImage,blankImage,blankImage,tree,1,,,,,,,,,,,,,,,,,,,,,,,,,,,,,,,,,,,,,,,,,,,,,,,,,,,,,,,,,,,,,,,,,,,,,,,,,,,,,,,,,,,,,,,,,,,,,,,,,,,,
,,,,,60b2785e793387fa22524fce,6682b41eeb79ab8215dff63d,6682cce3aa44eb333efbac11,27,female,english,2024-07-01_16h37.00.570,ABmemTask3,2023.2.3,Win32,60.0240096,,,,,,,,,,,,,,,,,,,,,,,,,,,,,,,102.851,103.849,103.849,14,104.349,106.917,0.002,107.149,0.233,0.233,0.233,0.234,0.232,0.235,0.233,0.232,0.234,0.234,0.234,107.149,109.134,left,1.964,,109.134,109.533,left,0.386,,0,0,6,109.533,110.532,0,2,2,2,1,prac_AB,L1_T1A_T2P,1,0,1,7,8,6,4,12,grapes,Did you see the grapes,0.23,0,resources/,pics/sailboat.jpg,pics/butterfly.jpg,pics/giraffe.jpg,pics/spoon01.jpg,pics/hose.jpg,pics/nutcracker01.jpg,pics/table01.jpg,pics/stapler13.jpg,pics/pencil01.jpg,pics/football.jpg,pics/triangle.jpg,pics/hairdryer02a.jpg,blankImage,blankImage,blankImage,blankImage,blankImage,grape01,6,,,,,,,,,,,,,,,,,,,,,,,,,,,,,,,,,,,,,,,,,,,,,,,,,,,,,,,,,,,,,,,,,,,,,,,,,,,,,,,,,,,,,,,,,,,,,,,,,,,,
,,,,,60b2785e793387fa22524fce,6682b41eeb79ab8215dff63d,6682cce3aa44eb333efbac11,27,female,english,2024-07-01_16h37.00.570,ABmemTask3,2023.2.3,Win32,60.0240096,,,,,,,,,,,,,,,,,,,,,,,,,,,,,,,110.535,111.532,111.532,13,112.021,115.049,0.004,115.266,0.209,0.217,0.216,0.216,0.217,0.216,0.217,0.216,0.217,0.217,0.216,115.266,115.732,right,0.452,,115.732,116.115,right,0.37,,2,0,8,116.116,117.115,0,3,3,3,1,prac_AB,L5_T1P_T2P,5,1,1,7,12,6,3,15,Human skull,Did you see the Human skull,0.22,0,resources/,pics/peach01.jpg,pics/proboscismonkey.jpg,pics/hose.jpg,pics/laptop01a.jpg,pics/hammerheadshark.jpg,pics/nutcracker01.jpg,pics/humanskull.jpg,pics/table01.jpg,pics/icecube01.jpg,pics/boot02b.jpg,pics/calendar.jpg,pics/stapler03a.jpg,pics/ashtray01.jpg,pics/giraffe.jpg,pics/dromedary.jpg,blankImage,blankImage,humanskull,12,0.216,0.217,0.218,,,,,,,,,,,,,,,,,,,,,,,,,,,,,,,,,,,,,,,,,,,,,,,,,,,,,,,,,,,,,,,,,,,,,,,,,,,,,,,,,,,,,,,,,,,,,,,,,
,,,,,60b2785e793387fa22524fce,6682b41eeb79ab8215dff63d,6682cce3aa44eb333efbac11,27,female,english,2024-07-01_16h37.00.570,ABmemTask3,2023.2.3,Win32,60.0240096,,,,,,,,,,,,,,,,,,,,,,,,,,,,,,,117.116,118.116,118.116,13,118.615,120.782,0.003,120.998,0.215,0.216,0.218,0.216,0.216,0.215,0.218,0.216,0.217,0.216,,120.998,122.198,left,1.181,,122.198,122.565,left,0.351,,2,0,10,122.565,123.564,0,4,4,4,1,prac_AB,L1_T1A_T2P,1,0,1,7,8,6,3,11,dog,Did you see the dog,0.21,0,resources/,pics/ball02.jpg,pics/binder03b.jpg,pics/dromedary.jpg,pics/shipinabottle.jpg,pics/proboscismonkey.jpg,pics/laptop01a.jpg,pics/chainsaw.jpg,pics/stapler13.jpg,pics/nutcracker01.jpg,pics/carrot01.jpg,pics/calendar.jpg,blankImage,blankImage,blankImage,blankImage,blankImage,blankImage,saintbernard,7,,,,,,,,,,,,,,,,,,,,,,,,,,,,,,,,,,,,,,,,,,,,,,,,,,,,,,,,,,,,,,,,,,,,,,,,,,,,,,,,,,,,,,,,,,,,,,,,,,,,
,,,,,60b2785e793387fa22524fce,6682b41eeb79ab8215dff63d,6682cce3aa44eb333efbac11,27,female,english,2024-07-01_16h37.00.570,ABmemTask3,2023.2.3,Win32,60.0240096,,,,,,,,,,,,,,,,,,,,,,,,,,,,,,,123.565,124.565,124.565,12,125.064,127.865,0.003,128.064,0.198,0.2,0.2,0.2,0.2,0.2,0.201,0.2,0.199,0.201,0.199,128.064,128.814,right,0.734,,128.814,129.547,right,0.72,,4,0,12,129.548,130.549,0,5,5,5,1,prac_AB,L5_T1P_T2P,5,1,1,5,10,4,5,15,grater,Did you see the grater,0.2,0,resources/,pics/pencil01.jpg,pics/laptop01a.jpg,pics/hammerheadshark.jpg,pics/cork02.jpg,pics/grater01a.jpg,pics/shipinabottle.jpg,pics/binder03b.jpg,pics/dromedary.jpg,pics/pictureframe04.jpg,pics/stapler04b.jpg,pics/fanblades.jpg,pics/aquarium.jpg,pics/hairdryer02a.jpg,pics/lightswitch01.jpg,pics/piggybank.jpg,blankImage,blankImage,grater01a,11,0.2,0.2,0.2,,,,,,,,,,,,,,,,,,,,,,,,,,,,,,,,,,,,,,,,,,,,,,,,,,,,,,,,,,,,,,,,,,,,,,,,,,,,,,,,,,,,,,,,,,,,,,,,,
,,,,,60b2785e793387fa22524fce,6682b41eeb79ab8215dff63d,6682cce3aa44eb333efbac11,27,female,english,2024-07-01_16h37.00.570,ABmemTask3,2023.2.3,Win32,60.0240096,,,,,,,,,,,,,,,,,,,,,,,,,,,,,,,130.55,131.548,131.548,11,132.048,133.515,0.002,133.698,0.181,0.183,0.186,0.181,0.184,0.183,0.183,0.184,,,,133.698,134.714,right,1.001,,134.714,135.064,left,0.332,,6,0,14,135.064,136.064,0,6,6,6,1,prac_AB,L1_T1P_T2A,1,1,0,4,5,3,4,9,chalk,Did you see the chalk,0.19,0,resources/,pics/necklace.jpg,pics/starfish01.jpg,pics/safetypin.jpg,pics/chalk.jpg,pics/candleholder01.jpg,pics/bowtie.jpg,pics/match.jpg,pics/candle01.jpg,pics/pencilsharpener02a.jpg,blankImage,blankImage,blankImage,blankImage,blankImage,blankImage,blankImage,blankImage,chalk,9,,,,,,,,,,,,,,,,,,,,,,,,,,,,,,,,,,,,,,,,,,,,,,,,,,,,,,,,,,,,,,,,,,,,,,,,,,,,,,,,,,,,,,,,,,,,,,,,,,,,
,,,,,60b2785e793387fa22524fce,6682b41eeb79ab8215dff63d,6682cce3aa44eb333efbac11,27,female,english,2024-07-01_16h37.00.570,ABmemTask3,2023.2.3,Win32,60.0240096,,,,,,,,,,,,,,,,,,,,,,,,,,,,,,,136.064,137.064,137.064,11,137.564,139.214,0.001,139.397,0.185,0.181,0.183,0.183,0.184,0.184,0.183,0.184,0.183,,,139.397,140.397,right,0.986,,140.397,140.664,left,0.25,,6,0,16,140.664,141.664,0,7,7,7,1,prac_AB,L1_T1P_T2P,1,1,1,5,6,4,4,10,pants,Did you see the pants,0.18,0,resources/,pics/kangaroo.jpg,pics/safetypin.jpg,pics/salmon.jpg,pics/sandbarshark.jpg,pics/pants.jpg,pics/stapler03a.jpg,pics/sink.jpg,pics/calendar.jpg,pics/butterfly.jpg,pics/fanblades.jpg,blankImage,blankImage,blankImage,blankImage,blankImage,blankImage,blankImage,pants,2,,,,,,,,,,,,,,,,,,,,,,,,,,,,,,,,,,,,,,,,,,,,,,,,,,,,,,,,,,,,,,,,,,,,,,,,,,,,,,,,,,,,,,,,,,,,,,,,,,,,
,,,,,60b2785e793387fa22524fce,6682b41eeb79ab8215dff63d,6682cce3aa44eb333efbac11,27,female,english,2024-07-01_16h37.00.570,ABmemTask3,2023.2.3,Win32,60.0240096,,,,,,,,,,,,,,,,,,,,,,,,,,,,,,,141.667,142.664,142.664,10,143.163,145.496,0.005,145.664,0.165,0.165,0.166,0.167,0.167,0.166,0.167,0.167,0.168,0.165,0.166,145.665,146.864,left,1.177,,146.864,147.149,right,0.264,,8,0,18,147.149,148.148,0,8,8,8,1,prac_AB,L5_T1A_T2P,5,0,1,7,12,6,3,15,shirt,Did you see the shirt,0.17,0,resources/,pics/banjo.jpg,pics/chainsaw.jpg,pics/sailboat.jpg,pics/shipinabottle.jpg,pics/lightswitch01.jpg,pics/starfish01.jpg,pics/hen.jpg,pics/ball02.jpg,pics/bowlingpin.jpg,pics/hammerheadshark.jpg,pics/footballhelmet.jpg,pics/stapler10.jpg,pics/laptop01a.jpg,pics/cannon.jpg,pics/golfball.jpg,blankImage,blankImage,shirt02,13,0.167,0.166,0.166,,,,,,,,,,,,,,,,,,,,,,,,,,,,,,,,,,,,,,,,,,,,,,,,,,,,,,,,,,,,,,,,,,,,,,,,,,,,,,,,,,,,,,,,,,,,,,,,,
,,,,,60b2785e793387fa22524fce,6682b41eeb79ab8215dff63d,6682cce3aa44eb333efbac11,27,female,english,2024-07-01_16h37.00.570,ABmemTask3,2023.2.3,Win32,60.0240096,,,,,,,,,,,,,,,,,,,,,,,,,,,,,,,148.149,149.147,149.147,10,149.647,151.313,0.001,151.48,0.165,0.168,0.166,0.166,0.168,0.166,0.168,0.165,0.167,0.167,,151.48,152.463,left,0.963,,152.463,152.747,right,0.265,,8,0,20,152.747,153.747,0,9,9,9,1,prac_AB,L1_T1P_T2P,1,1,1,7,8,6,3,11,tongs,Did you see the tongs,0.16,0,resources/,pics/sewingmachine01a.jpg,pics/shovel01.jpg,pics/football.jpg,pics/hen.jpg,pics/banjo.jpg,pics/zebra.jpg,pics/tongs01b.jpg,pics/stapler11.jpg,pics/shipinabottle.jpg,pics/match.jpg,pics/candle01.jpg,blankImage,blankImage,blankImage,blankImage,blankImage,blankImage,tongs01b,5,,,,,,,,,,,,,,,,,,,,,,,,,,,,,,,,,,,,,,,,,,,,,,,,,,,,,,,,,,,,,,,,,,,,,,,,,,,,,,,,,,,,,,,,,,,,,,,,,,,,
,,,,,60b2785e793387fa22524fce,6682b41eeb79ab8215dff63d,6682cce3aa44eb333efbac11,27,female,english,2024-07-01_16h37.00.570,ABmemTask3,2023.2.3,Win32,60.0240096,,,,,,,,,,,,,,,,,,,,,,,,,,,,,,,153.747,154.746,154.746,9,155.247,156.896,0.002,157.046,0.148,0.15,0.15,0.15,0.149,0.151,0.149,0.151,0.15,0.151,0.148,157.046,157.963,left,0.905,,157.963,158.246,left,0.267,,10,0,22,158.246,159.246,0,10,10,10,1,prac_AB,L1_T1A_T2A,1,0,0,7,8,6,4,12,camera,Did you see the camera,0.15,0,resources/,pics/lightswitch01.jpg,pics/table01.jpg,pics/aquarium.jpg,pics/boot02b.jpg,pics/butterfly.jpg,pics/chainsaw.jpg,pics/binoculars01b.jpg,pics/giraffe.jpg,pics/triangle.jpg,pics/microscope.jpg,pics/mummy.jpg,pics/icecube01.jpg,blankImage,blankImage,blankImage,blankImage,blankImage,camera01a,10,,,,,,,,,,,,,,,,,,,,,,,,,,,,,,,,,,,,,,,,,,,,,,,,,,,,,,,,,,,,,,,,,,,,,,,,,,,,,,,,,,,,,,,,,,,,,,,,,,,,
,,,,,60b2785e793387fa22524fce,6682b41eeb79ab8215dff63d,6682cce3aa44eb333efbac11,27,female,english,2024-07-01_16h37.00.570,ABmemTask3,2023.2.3,Win32,60.0240096,,,,,,,,,,,,,,,,,,,,,,,,,,,,,,,159.247,160.246,160.246,8,160.745,161.946,0.004,162.079,0.13,0.134,0.135,0.132,0.133,0.135,0.132,0.133,0.134,,,162.079,162.746,right,0.648,,162.746,163.046,right,0.285,,12,0,24,163.046,164.045,0,11,11,11,1,prac_AB,L1_T1P_T2P,1,1,1,6,7,5,3,10,shorts,Did you see the shorts,0.14,0,resources/,pics/snowshoe.jpg,pics/chainsaw.jpg,pics/sailboat.jpg,pics/ball02.jpg,pics/candleholder01.jpg,pics/shorts01.jpg,pics/stapler07.jpg,pics/peach01.jpg,pics/proboscismonkey.jpg,pics/hen.jpg,blankImage,blankImage,blankImage,blankImage,blankImage,blankImage,blankImage,shorts01,4,,,,,,,,,,,,,,,,,,,,,,,,,,,,,,,,,,,,,,,,,,,,,,,,,,,,,,,,,,,,,,,,,,,,,,,,,,,,,,,,,,,,,,,,,,,,,,,,,,,,
,,,,,60b2785e793387fa22524fce,6682b41eeb79ab8215dff63d,6682cce3aa44eb333efbac11,27,female,english,2024-07-01_16h37.00.570,ABmemTask3,2023.2.3,Win32,60.0240096,,,,,,,,,,,,,,,,,,,,,,,,,,,,,,,164.046,165.045,165.045,8,165.545,167.146,0.002,167.279,0.132,0.133,0.135,0.132,0.134,0.133,0.134,0.132,0.134,0.133,0.134,167.279,167.962,right,0.671,,167.962,168.279,left,0.305,,14,0,26,168.279,169.278,0,12,12,12,1,prac_AB,L5_T1P_T2A,5,1,0,5,10,4,3,13,fish,Did you see the fish,0.13,0,resources/,pics/football.jpg,pics/safetypin.jpg,pics/shovel01.jpg,pics/sink.jpg,pics/holdfast.jpg,pics/nutcracker01.jpg,pics/starfish01.jpg,pics/onion.jpg,pics/footballhelmet.jpg,pics/boot02b.jpg,pics/sewingmachine01a.jpg,pics/kangaroo.jpg,pics/banjo.jpg,blankImage,blankImage,blankImage,blankImage,holdfast,14,0.133,,,,,,,,,,,,,,,,,,,,,,,,,,,,,,,,,,,,,,,,,,,,,,,,,,,,,,,,,,,,,,,,,,,,,,,,,,,,,,,,,,,,,,,,,,,,,,,,,,,
,,,,,60b2785e793387fa22524fce,6682b41eeb79ab8215dff63d,6682cce3aa44eb333efbac11,27,female,english,2024-07-01_16h37.00.570,ABmemTask3,2023.2.3,Win32,60.0240096,,,,,,,,,,,,,,,,,,,,,,,,,,,,,,,169.28,170.279,170.279,7,170.779,171.829,0.002,171.945,0.115,0.118,0.115,0.119,0.115,0.117,0.116,0.116,0.118,,,171.945,172.728,right,0.767,,172.729,173.028,left,0.288,,14,0,28,173.028,174.029,0,13,13,13,1,prac_AB,L1_T1P_T2P,1,1,1,5,6,4,4,10,fish,Did you see the fish,0.12,0,resources/,pics/butterfly.jpg,pics/banjo.jpg,pics/leaf02a.jpg,pics/dustpan.jpg,pics/sturgeon.jpg,pics/stapler02.jpg,pics/necklace.jpg,pics/shovel01.jpg,pics/starfish01.jpg,pics/chainsaw.jpg,blankImage,blankImage,blankImage,blankImage,blankImage,blankImage,blankImage,sturgeon,3,,,,,,,,,,,,,,,,,,,,,,,,,,,,,,,,,,,,,,,,,,,,,,,,,,,,,,,,,,,,,,,,,,,,,,,,,,,,,,,,,,,,,,,,,,,,,,,,,,,,
,,,,,60b2785e793387fa22524fce,6682b41eeb79ab8215dff63d,6682cce3aa44eb333efbac11,27,female,english,2024-07-01_16h37.00.570,ABmemTask3,2023.2.3,Win32,60.0240096,,,,,,,,,,,,,,,,,,,,,,,,,,,,,,,,,,,,,,,,,,,,,,,,,,,,,,,,,,,,,,,,,,,,,,,,,,,,,,,,,,,,,,,,,,,,,,,,,,,,,,,,,,,174.029,187.762,space,13.703,,,,,,,,,,,,,,,,,,,,,,,,,,,,,,,,,,,,,,,,,,,,,,,,,,,,,,,,,,,,,,,,,,,,,,,,,,,,,,,,,,,,,,,,,,,,,
,,,,,60b2785e793387fa22524fce,6682b41eeb79ab8215dff63d,6682cce3aa44eb333efbac11,27,female,english,2024-07-01_16h37.00.570,ABmemTask3,2023.2.3,Win32,60.0240096,,,,,,,,,,,,,,,,,,,,,,,,,,,,,,,187.769,188.761,188.761,15,189.26,192.012,0.004,192.26,0.248,0.25,0.249,0.25,0.25,0.251,0.25,0.25,0.25,0.249,0.251,192.261,193.444,right,1.169,,193.444,193.943,left,0.485,,2,0,2,193.944,194.945,0,0,0,0,1,prac_AB,L1_T1P_T2A,1,1,0,6,7,5,5,12,cat,Did you see the cat,0.25,0,resources/,pics/shipinabottle.jpg,pics/table01.jpg,pics/dustpan.jpg,pics/golfball.jpg,pics/giraffe.jpg,pics/cat.jpg,pics/peanut01.jpg,pics/pictureframe04.jpg,pics/fanblades.jpg,pics/laptop01a.jpg,pics/ball02.jpg,pics/blender.jpg,blankImage,blankImage,blankImage,blankImage,blankImage,cat,8,,,,,,,,,,,,,,,,,,,,,,,,,,,,,,,,,,,,,,,,,,,,,,,,,,,,,,,,,,,,,,,,,,,,,,,,,,,,,,,,,,,,,,,,,,,,,,,,,,,,
,,,,,60b2785e793387fa22524fce,6682b41eeb79ab8215dff63d,6682cce3aa44eb333efbac11,27,female,english,2024-07-01_16h37.00.570,ABmemTask3,2023.2.3,Win32,60.0240096,,,,,,,,,,,,,,,,,,,,,,,,,,,,,,,194.945,195.943,195.943,14,196.443,198.544,0.003,198.776,0.232,0.233,0.233,0.234,0.232,0.234,0.234,0.233,0.233,,,198.777,199.377,right,0.588,,199.377,199.693,right,0.3,,4,0,4,199.693,200.693,0,1,1,1,1,prac_AB,L1_T1P_T2P,1,1,1,5,6,4,4,10,tree,Did you see the tree,0.24,0,resources/,pics/carrot01.jpg,pics/hammerheadshark.jpg,pics/kangaroo.jpg,pics/proboscismonkey.jpg,pics/tree.jpg,pics/stapler07.jpg,pics/siamesecat.jpg,pics/ball02.jpg,pics/pictureframe04.jpg,pics/mummy.jpg,blankImage,blankImage,blankImage,blankImage,blankImage,blankImage,blankImage,tree,1,,,,,,,,,,,,,,,,,,,,,,,,,,,,,,,,,,,,,,,,,,,,,,,,,,,,,,,,,,,,,,,,,,,,,,,,,,,,,,,,,,,,,,,,,,,,,,,,,,,,
,,,,,60b2785e793387fa22524fce,6682b41eeb79ab8215dff63d,6682cce3aa44eb333efbac11,27,female,english,2024-07-01_16h37.00.570,ABmemTask3,2023.2.3,Win32,60.0240096,,,,,,,,,,,,,,,,,,,,,,,,,,,,,,,200.694,201.694,201.694,14,202.194,204.76,0.003,204.992,0.232,0.233,0.233,0.234,0.233,0.232,0.235,0.232,0.234,0.233,0.233,204.993,205.927,left,0.917,,205.927,206.211,right,0.27,,6,0,6,206.212,207.209,0,2,2,2,1,prac_AB,L1_T1A_T2P,1,0,1,7,8,6,4,12,grapes,Did you see the grapes,0.23,0,resources/,pics/sailboat.jpg,pics/butterfly.jpg,pics/giraffe.jpg,pics/spoon01.jpg,pics/hose.jpg,pics/nutcracker01.jpg,pics/table01.jpg,pics/stapler13.jpg,pics/pencil01.jpg,pics/football.jpg,pics/triangle.jpg,pics/hairdryer02a.jpg,blankImage,blankImage,blankImage,blankImage,blankImage,grape01,6,,,,,,,,,,,,,,,,,,,,,,,,,,,,,,,,,,,,,,,,,,,,,,,,,,,,,,,,,,,,,,,,,,,,,,,,,,,,,,,,,,,,,,,,,,,,,,,,,,,,
,,,,,60b2785e793387fa22524fce,6682b41eeb79ab8215dff63d,6682cce3aa44eb333efbac11,27,female,english,2024-07-01_16h37.00.570,ABmemTask3,2023.2.3,Win32,60.0240096,,,,,,,,,,,,,,,,,,,,,,,,,,,,,,,207.215,208.21,208.21,13,208.709,211.744,0.005,211.959,0.213,0.218,0.215,0.218,0.216,0.216,0.217,0.217,0.217,0.217,0.219,211.959,212.443,right,0.466,,212.443,212.759,right,0.3,,8,0,8,212.76,213.759,0,3,3,3,1,prac_AB,L5_T1P_T2P,5,1,1,7,12,6,3,15,Human skull,Did you see the Human skull,0.22,0,resources/,pics/peach01.jpg,pics/proboscismonkey.jpg,pics/hose.jpg,pics/laptop01a.jpg,pics/hammerheadshark.jpg,pics/nutcracker01.jpg,pics/humanskull.jpg,pics/table01.jpg,pics/icecube01.jpg,pics/boot02b.jpg,pics/calendar.jpg,pics/stapler03a.jpg,pics/ashtray01.jpg,pics/giraffe.jpg,pics/dromedary.jpg,blankImage,blankImage,humanskull,12,0.212,0.217,0.217,,,,,,,,,,,,,,,,,,,,,,,,,,,,,,,,,,,,,,,,,,,,,,,,,,,,,,,,,,,,,,,,,,,,,,,,,,,,,,,,,,,,,,,,,,,,,,,,,
,,,,,60b2785e793387fa22524fce,6682b41eeb79ab8215dff63d,6682cce3aa44eb333efbac11,27,female,english,2024-07-01_16h37.00.570,ABmemTask3,2023.2.3,Win32,60.0240096,,,,,,,,,,,,,,,,,,,,,,,,,,,,,,,213.76,214.76,214.76,13,215.259,217.426,0.002,217.642,0.215,0.218,0.215,0.217,0.217,0.216,0.218,0.216,0.217,0.217,,217.642,218.492,left,0.83,,218.492,218.742,right,0.237,,10,0,10,218.743,219.743,0,4,4,4,1,prac_AB,L1_T1A_T2P,1,0,1,7,8,6,3,11,dog,Did you see the dog,0.21,0,resources/,pics/ball02.jpg,pics/binder03b.jpg,pics/dromedary.jpg,pics/shipinabottle.jpg,pics/proboscismonkey.jpg,pics/laptop01a.jpg,pics/chainsaw.jpg,pics/stapler13.jpg,pics/nutcracker01.jpg,pics/carrot01.jpg,pics/calendar.jpg,blankImage,blankImage,blankImage,blankImage,blankImage,blankImage,saintbernard,7,,,,,,,,,,,,,,,,,,,,,,,,,,,,,,,,,,,,,,,,,,,,,,,,,,,,,,,,,,,,,,,,,,,,,,,,,,,,,,,,,,,,,,,,,,,,,,,,,,,,
,,,,,60b2785e793387fa22524fce,6682b41eeb79ab8215dff63d,6682cce3aa44eb333efbac11,27,female,english,2024-07-01_16h37.00.570,ABmemTask3,2023.2.3,Win32,60.0240096,,,,,,,,,,,,,,,,,,,,,,,,,,,,,,,219.744,220.742,220.742,12,221.242,224.043,0.003,224.241,0.197,0.2,0.201,0.199,0.201,0.201,0.198,0.201,0.199,0.201,0.2,224.242,225.075,right,0.814,,225.076,225.408,right,0.318,,12,0,12,225.409,226.408,0,5,5,5,1,prac_AB,L5_T1P_T2P,5,1,1,5,10,4,5,15,grater,Did you see the grater,0.2,0,resources/,pics/pencil01.jpg,pics/laptop01a.jpg,pics/hammerheadshark.jpg,pics/cork02.jpg,pics/grater01a.jpg,pics/shipinabottle.jpg,pics/binder03b.jpg,pics/dromedary.jpg,pics/pictureframe04.jpg,pics/stapler04b.jpg,pics/fanblades.jpg,pics/aquarium.jpg,pics/hairdryer02a.jpg,pics/lightswitch01.jpg,pics/piggybank.jpg,blankImage,blankImage,grater01a,11,0.2,0.199,0.201,,,,,,,,,,,,,,,,,,,,,,,,,,,,,,,,,,,,,,,,,,,,,,,,,,,,,,,,,,,,,,,,,,,,,,,,,,,,,,,,,,,,,,,,,,,,,,,,,
,,,,,60b2785e793387fa22524fce,6682b41eeb79ab8215dff63d,6682cce3aa44eb333efbac11,27,female,english,2024-07-01_16h37.00.570,ABmemTask3,2023.2.3,Win32,60.0240096,,,,,,,,,,,,,,,,,,,,,,,,,,,,,,,226.409,227.408,227.408,11,227.908,229.375,0.002,229.558,0.182,0.184,0.184,0.182,0.184,0.183,0.184,0.182,,,,229.559,230.342,right,0.764,,230.342,230.609,left,0.254,,14,0,14,230.609,231.608,0,6,6,6,1,prac_AB,L1_T1P_T2A,1,1,0,4,5,3,4,9,chalk,Did you see the chalk,0.19,0,resources/,pics/necklace.jpg,pics/starfish01.jpg,pics/safetypin.jpg,pics/chalk.jpg,pics/candleholder01.jpg,pics/bowtie.jpg,pics/match.jpg,pics/candle01.jpg,pics/pencilsharpener02a.jpg,blankImage,blankImage,blankImage,blankImage,blankImage,blankImage,blankImage,blankImage,chalk,9,,,,,,,,,,,,,,,,,,,,,,,,,,,,,,,,,,,,,,,,,,,,,,,,,,,,,,,,,,,,,,,,,,,,,,,,,,,,,,,,,,,,,,,,,,,,,,,,,,,,
,,,,,60b2785e793387fa22524fce,6682b41eeb79ab8215dff63d,6682cce3aa44eb333efbac11,27,female,english,2024-07-01_16h37.00.570,ABmemTask3,2023.2.3,Win32,60.0240096,,,,,,,,,,,,,,,,,,,,,,,,,,,,,,,231.609,232.608,232.608,11,233.108,234.759,0.002,234.941,0.182,0.183,0.184,0.183,0.185,0.181,0.184,0.183,0.184,,,234.941,236.058,right,1.099,,236.058,236.342,right,0.266,,16,0,16,236.342,237.341,0,7,7,7,1,prac_AB,L1_T1P_T2P,1,1,1,5,6,4,4,10,pants,Did you see the pants,0.18,0,resources/,pics/kangaroo.jpg,pics/safetypin.jpg,pics/salmon.jpg,pics/sandbarshark.jpg,pics/pants.jpg,pics/stapler03a.jpg,pics/sink.jpg,pics/calendar.jpg,pics/butterfly.jpg,pics/fanblades.jpg,blankImage,blankImage,blankImage,blankImage,blankImage,blankImage,blankImage,pants,2,,,,,,,,,,,,,,,,,,,,,,,,,,,,,,,,,,,,,,,,,,,,,,,,,,,,,,,,,,,,,,,,,,,,,,,,,,,,,,,,,,,,,,,,,,,,,,,,,,,,
,,,,,60b2785e793387fa22524fce,6682b41eeb79ab8215dff63d,6682cce3aa44eb333efbac11,27,female,english,2024-07-01_16h37.00.570,ABmemTask3,2023.2.3,Win32,60.0240096,,,,,,,,,,,,,,,,,,,,,,,,,,,,,,,237.341,238.343,238.343,10,238.841,241.175,0.006,241.34,0.164,0.165,0.167,0.166,0.166,0.167,0.167,0.165,0.167,0.166,0.167,241.341,242.241,left,0.878,,242.242,242.54,right,0.284,,18,0,18,242.541,243.54,0,8,8,8,1,prac_AB,L5_T1A_T2P,5,0,1,7,12,6,3,15,shirt,Did you see the shirt,0.17,0,resources/,pics/banjo.jpg,pics/chainsaw.jpg,pics/sailboat.jpg,pics/shipinabottle.jpg,pics/lightswitch01.jpg,pics/starfish01.jpg,pics/hen.jpg,pics/ball02.jpg,pics/bowlingpin.jpg,pics/hammerheadshark.jpg,pics/footballhelmet.jpg,pics/stapler10.jpg,pics/laptop01a.jpg,pics/cannon.jpg,pics/golfball.jpg,blankImage,blankImage,shirt02,13,0.167,0.166,0.167,,,,,,,,,,,,,,,,,,,,,,,,,,,,,,,,,,,,,,,,,,,,,,,,,,,,,,,,,,,,,,,,,,,,,,,,,,,,,,,,,,,,,,,,,,,,,,,,,
,,,,,60b2785e793387fa22524fce,6682b41eeb79ab8215dff63d,6682cce3aa44eb333efbac11,27,female,english,2024-07-01_16h37.00.570,ABmemTask3,2023.2.3,Win32,60.0240096,,,,,,,,,,,,,,,,,,,,,,,,,,,,,,,243.542,244.54,244.54,10,245.04,246.724,0.003,246.891,0.182,0.167,0.167,0.165,0.167,0.168,0.165,0.166,0.166,0.167,,246.891,247.541,left,0.631,,247.541,247.84,left,0.285,,16,0,20,247.84,248.841,0,9,9,9,1,prac_AB,L1_T1P_T2P,1,1,1,7,8,6,3,11,tongs,Did you see the tongs,0.16,0,resources/,pics/sewingmachine01a.jpg,pics/shovel01.jpg,pics/football.jpg,pics/hen.jpg,pics/banjo.jpg,pics/zebra.jpg,pics/tongs01b.jpg,pics/stapler11.jpg,pics/shipinabottle.jpg,pics/match.jpg,pics/candle01.jpg,blankImage,blankImage,blankImage,blankImage,blankImage,blankImage,tongs01b,5,,,,,,,,,,,,,,,,,,,,,,,,,,,,,,,,,,,,,,,,,,,,,,,,,,,,,,,,,,,,,,,,,,,,,,,,,,,,,,,,,,,,,,,,,,,,,,,,,,,,
,,,,,60b2785e793387fa22524fce,6682b41eeb79ab8215dff63d,6682cce3aa44eb333efbac11,27,female,english,2024-07-01_16h37.00.570,ABmemTask3,2023.2.3,Win32,60.0240096,,,,,,,,,,,,,,,,,,,,,,,,,,,,,,,248.842,249.84,249.84,9,250.341,251.991,0.002,252.14,0.149,0.148,0.151,0.15,0.15,0.15,0.15,0.148,0.15,0.15,0.152,252.14,252.907,left,0.748,,252.907,253.223,left,0.299,,18,0,22,253.223,254.223,0,10,10,10,1,prac_AB,L1_T1A_T2A,1,0,0,7,8,6,4,12,camera,Did you see the camera,0.15,0,resources/,pics/lightswitch01.jpg,pics/table01.jpg,pics/aquarium.jpg,pics/boot02b.jpg,pics/butterfly.jpg,pics/chainsaw.jpg,pics/binoculars01b.jpg,pics/giraffe.jpg,pics/triangle.jpg,pics/microscope.jpg,pics/mummy.jpg,pics/icecube01.jpg,blankImage,blankImage,blankImage,blankImage,blankImage,camera01a,10,,,,,,,,,,,,,,,,,,,,,,,,,,,,,,,,,,,,,,,,,,,,,,,,,,,,,,,,,,,,,,,,,,,,,,,,,,,,,,,,,,,,,,,,,,,,,,,,,,,,
,,,,,60b2785e793387fa22524fce,6682b41eeb79ab8215dff63d,6682cce3aa44eb333efbac11,27,female,english,2024-07-01_16h37.00.570,ABmemTask3,2023.2.3,Win32,60.0240096,,,,,,,,,,,,,,,,,,,,,,,,,,,,,,,254.224,255.223,255.223,8,255.723,256.923,0.001,257.056,0.133,0.133,0.133,0.135,0.132,0.134,0.133,0.133,0.133,,,257.056,257.573,right,0.5,,257.573,257.84,right,0.251,,20,0,24,257.84,258.839,0,11,11,11,1,prac_AB,L1_T1P_T2P,1,1,1,6,7,5,3,10,shorts,Did you see the shorts,0.14,0,resources/,pics/snowshoe.jpg,pics/chainsaw.jpg,pics/sailboat.jpg,pics/ball02.jpg,pics/candleholder01.jpg,pics/shorts01.jpg,pics/stapler07.jpg,pics/peach01.jpg,pics/proboscismonkey.jpg,pics/hen.jpg,blankImage,blankImage,blankImage,blankImage,blankImage,blankImage,blankImage,shorts01,4,,,,,,,,,,,,,,,,,,,,,,,,,,,,,,,,,,,,,,,,,,,,,,,,,,,,,,,,,,,,,,,,,,,,,,,,,,,,,,,,,,,,,,,,,,,,,,,,,,,,
,,,,,60b2785e793387fa22524fce,6682b41eeb79ab8215dff63d,6682cce3aa44eb333efbac11,27,female,english,2024-07-01_16h37.00.570,ABmemTask3,2023.2.3,Win32,60.0240096,,,,,,,,,,,,,,,,,,,,,,,,,,,,,,,258.84,259.839,259.839,8,260.34,261.941,0.002,262.073,0.131,0.135,0.132,0.133,0.134,0.133,0.133,0.134,0.133,0.133,0.133,262.073,262.823,right,0.731,,262.823,263.089,left,0.25,,22,0,26,263.089,264.089,0,12,12,12,1,prac_AB,L5_T1P_T2A,5,1,0,5,10,4,3,13,fish,Did you see the fish,0.13,0,resources/,pics/football.jpg,pics/safetypin.jpg,pics/shovel01.jpg,pics/sink.jpg,pics/holdfast.jpg,pics/nutcracker01.jpg,pics/starfish01.jpg,pics/onion.jpg,pics/footballhelmet.jpg,pics/boot02b.jpg,pics/sewingmachine01a.jpg,pics/kangaroo.jpg,pics/banjo.jpg,blankImage,blankImage,blankImage,blankImage,holdfast,14,0.135,,,,,,,,,,,,,,,,,,,,,,,,,,,,,,,,,,,,,,,,,,,,,,,,,,,,,,,,,,,,,,,,,,,,,,,,,,,,,,,,,,,,,,,,,,,,,,,,,,,
,,,,,60b2785e793387fa22524fce,6682b41eeb79ab8215dff63d,6682cce3aa44eb333efbac11,27,female,english,2024-07-01_16h37.00.570,ABmemTask3,2023.2.3,Win32,60.0240096,,,,,,,,,,,,,,,,,,,,,,,,,,,,,,,264.09,265.089,265.089,7,265.59,266.64,0.001,266.756,0.115,0.117,0.117,0.116,0.117,0.117,0.116,0.117,0.117,,,266.756,267.489,right,0.719,,267.489,267.739,left,0.233,,22,0,28,267.739,268.738,0,13,13,13,1,prac_AB,L1_T1P_T2P,1,1,1,5,6,4,4,10,fish,Did you see the fish,0.12,0,resources/,pics/butterfly.jpg,pics/banjo.jpg,pics/leaf02a.jpg,pics/dustpan.jpg,pics/sturgeon.jpg,pics/stapler02.jpg,pics/necklace.jpg,pics/shovel01.jpg,pics/starfish01.jpg,pics/chainsaw.jpg,blankImage,blankImage,blankImage,blankImage,blankImage,blankImage,blankImage,sturgeon,3,,,,,,,,,,,,,,,,,,,,,,,,,,,,,,,,,,,,,,,,,,,,,,,,,,,,,,,,,,,,,,,,,,,,,,,,,,,,,,,,,,,,,,,,,,,,,,,,,,,,
,,,,,60b2785e793387fa22524fce,6682b41eeb79ab8215dff63d,6682cce3aa44eb333efbac11,27,female,english,2024-07-01_16h37.00.570,ABmemTask3,2023.2.3,Win32,60.0240096,,,,,,,,,,,,,,,,,,,,,,,,,,,,,,,,,,,,,,,,,,,,,,,,,,,,,,,,,,,,,,,,,,,,,,,,,,,,,,,,,,,,,,,,,,,,,,,,,,,,,,,,,,,268.739,271.49,space,2.728,,,,,,,,,,,,,,,,,,,,,,,,,,,,,,,,,,,,,,,,,,,,,,,,,,,,,,,,,,,,,,,,,,,,,,,,,,,,,,,,,,,,,,,,,,,,,
,,,,,60b2785e793387fa22524fce,6682b41eeb79ab8215dff63d,6682cce3aa44eb333efbac11,27,female,english,2024-07-01_16h37.00.570,ABmemTask3,2023.2.3,Win32,60.0240096,,,,,,,,,,,,,,,,,,,,,,,,,,,,,,,,,,,,,,,,,,,,,,,,,,,,,,,,,,,,,,,,,,,,,,,,,,,,,,,,,,,,,,,,,,,,,,,,,,,,,,,,,,,271.497,271.503,,,,,,,,,,,,,,,,,,,,,,,,,,,,,,,,,,,,,,,,,,,,,,,,,,,,,,,,,,,,,,,,,,,,,,,,,,,,,,,,,,,,,,,,,,,,,,,
,,,,,60b2785e793387fa22524fce,6682b41eeb79ab8215dff63d,6682cce3aa44eb333efbac11,27,female,english,2024-07-01_16h37.00.570,ABmemTask3,2023.2.3,Win32,60.0240096,,,,,,,,,,,,,,,,,,,,,,,,,,,,,,,,,,,,,,,,,,,,,,,,,,,,,,,,,,,,,,,,,,,,,,,,,,,,,,,,,,,,,,,,,,,,,,,,,,,,,,,,,,,271.508,271.508,,,,,,,,,,,,,,,,,,,,,,,,,,,,,,,,,,,,,,,,,,,,,,,,,,,,,,,,,,,,,,,,,,,,,,,,,,,,,,,,,,,,,,,,,,,,,,,
,,,,,60b2785e793387fa22524fce,6682b41eeb79ab8215dff63d,6682cce3aa44eb333efbac11,27,female,english,2024-07-01_16h37.00.570,ABmemTask3,2023.2.3,Win32,60.0240096,,,,,,,,,,,,,,,,,,,,,,,,,,,,,,,,,,,,,,,,,,,,,,,,,,,,,,,,,,,,,,,,,,,,,,,,,,,,,,,,,,,,,,,,,,,,,,,,,,,,,,,,,,,271.511,271.511,,,,,,,,,,,,,,,,,,,,,,,,,,,,,,,,,,,,,,,,,,,,,,,,,,,,,,,,,,,,,,,,,,,,,,,,,,,,,,,,,,,,,,,,,,,,,,,
,,,,,60b2785e793387fa22524fce,6682b41eeb79ab8215dff63d,6682cce3aa44eb333efbac11,27,female,english,2024-07-01_16h37.00.570,ABmemTask3,2023.2.3,Win32,60.0240096,,,,,,,,,,,,,,,,,,,,,,,,,,,,,,,,,,,,,,,,,,,,,,,,,,,,,,,,,,,,,,,,,,,,,,,,,,,,,,,,,,,,,,,,,,,,,,,,,,,,,,,,,,,271.513,271.514,,,,,,,,,,,,,,,,,,,,,,,,,,,,,,,,,,,,,,,,,,,,,,,,,,,,,,,,,,,,,,,,,,,,,,,,,,,,,,,,,,,,,,,,,,,,,,,
,,,,,60b2785e793387fa22524fce,6682b41eeb79ab8215dff63d,6682cce3aa44eb333efbac11,27,female,english,2024-07-01_16h37.00.570,ABmemTask3,2023.2.3,Win32,60.0240096,,,,,,,,,,,,,,,,,,,,,,,,,,,,,,,,,,,,,,,,,,,,,,,,,,,,,,,,,,,,,,,,,,,,,,,,,,,,,,,,,,,,,,,,,,,,,,,,,,,,,,,,,,,271.515,271.515,,,,,,,,,,,,,,,,,,,,,,,,,,,,,,,,,,,,,,,,,,,,,,,,,,,,,,,,,,,,,,,,,,,,,,,,,,,,,,,,,,,,,,,,,,,,,,,
,,,,,60b2785e793387fa22524fce,6682b41eeb79ab8215dff63d,6682cce3aa44eb333efbac11,27,female,english,2024-07-01_16h37.00.570,ABmemTask3,2023.2.3,Win32,60.0240096,,,,,,,,,,,,,,,,,,,,,,,,,,,,,,,,,,,,,,,,,,,,,,,,,,,,,,,,,,,,,,,,,,,,,,,,,,,,,,,,,,,,,,,,,,,,,,,,,,,,,,,,,,,271.517,271.517,,,,,,,,,,,,,,,,,,,,,,,,,,,,,,,,,,,,,,,,,,,,,,,,,,,,,,,,,,,,,,,,,,,,,,,,,,,,,,,,,,,,,,,,,,,,,,,
,,,,,60b2785e793387fa22524fce,6682b41eeb79ab8215dff63d,6682cce3aa44eb333efbac11,27,female,english,2024-07-01_16h37.00.570,ABmemTask3,2023.2.3,Win32,60.0240096,,,,,,,,,,,,,,,,,,,,,,,,,,,,,,,,,,,,,,,,,,,,,,,,,,,,,,,,,,,,,,,,,,,,,,,,,,,,,,,,,,,,,,,,,,,,,,,,,,,,,,,,,,,271.519,271.519,,,,,,,,,,,,,,,,,,,,,,,,,,,,,,,,,,,,,,,,,,,,,,,,,,,,,,,,,,,,,,,,,,,,,,,,,,,,,,,,,,,,,,,,,,,,,,,
,,,,,60b2785e793387fa22524fce,6682b41eeb79ab8215dff63d,6682cce3aa44eb333efbac11,27,female,english,2024-07-01_16h37.00.570,ABmemTask3,2023.2.3,Win32,60.0240096,,,,,,,,,,,,,,,,,,,,,,,,,,,,,,,,,,,,,,,,,,,,,,,,,,,,,,,,,,,,,,,,,,,,,,,,,,,,,,,,,,,,,,,,,,,,,,,,,,,,,,,,,,,271.52,271.52,,,,,,,,,,,,,,,,,,,,,,,,,,,,,,,,,,,,,,,,,,,,,,,,,,,,,,,,,,,,,,,,,,,,,,,,,,,,,,,,,,,,,,,,,,,,,,,
,,,,,60b2785e793387fa22524fce,6682b41eeb79ab8215dff63d,6682cce3aa44eb333efbac11,27,female,english,2024-07-01_16h37.00.570,ABmemTask3,2023.2.3,Win32,60.0240096,,,,,,,,,,,,,,,,,,,,,,,,,,,,,,,,,,,,,,,,,,,,,,,,,,,,,,,,,,,,,,,,,,,,,,,,,,,,,,,,,,,,,,,,,,,,,,,,,,,,,,,,,,,271.521,271.521,,,,,,,,,,,,,,,,,,,,,,,,,,,,,,,,,,,,,,,,,,,,,,,,,,,,,,,,,,,,,,,,,,,,,,,,,,,,,,,,,,,,,,,,,,,,,,,
,,,,,60b2785e793387fa22524fce,6682b41eeb79ab8215dff63d,6682cce3aa44eb333efbac11,27,female,english,2024-07-01_16h37.00.570,ABmemTask3,2023.2.3,Win32,60.0240096,,,,,,,,,,,,,,,,,,,,,,,,,,,,,,,,,,,,,,,,,,,,,,,,,,,,,,,,,,,,,,,,,,,,,,,,,,,,,,,,,,,,,,,,,,,,,,,,,,,,,,,,,,,271.524,271.524,,,,,,,,,,,,,,,,,,,,,,,,,,,,,,,,,,,,,,,,,,,,,,,,,,,,,,,,,,,,,,,,,,,,,,,,,,,,,,,,,,,,,,,,,,,,,,,
,,,,,60b2785e793387fa22524fce,6682b41eeb79ab8215dff63d,6682cce3aa44eb333efbac11,27,female,english,2024-07-01_16h37.00.570,ABmemTask3,2023.2.3,Win32,60.0240096,,,,,,,,,,,,,,,,,,,,,,,,,,,,,,,,,,,,,,,,,,,,,,,,,,,,,,,,,,,,,,,,,,,,,,,,,,,,,,,,,,,,,,,,,,,,,,,,,,,,,,,,,,,271.526,271.526,,,,,,,,,,,,,,,,,,,,,,,,,,,,,,,,,,,,,,,,,,,,,,,,,,,,,,,,,,,,,,,,,,,,,,,,,,,,,,,,,,,,,,,,,,,,,,,
,,,,,60b2785e793387fa22524fce,6682b41eeb79ab8215dff63d,6682cce3aa44eb333efbac11,27,female,english,2024-07-01_16h37.00.570,ABmemTask3,2023.2.3,Win32,60.0240096,,,,,,,,,,,,,,,,,,,,,,,,,,,,,,,,,,,,,,,,,,,,,,,,,,,,,,,,,,,,,,,,,,,,,,,,,,,,,,,,,,,,,,,,,,,,,,,,,,,,,,,,,,,271.528,271.528,,,,,,,,,,,,,,,,,,,,,,,,,,,,,,,,,,,,,,,,,,,,,,,,,,,,,,,,,,,,,,,,,,,,,,,,,,,,,,,,,,,,,,,,,,,,,,,
,,,,,60b2785e793387fa22524fce,6682b41eeb79ab8215dff63d,6682cce3aa44eb333efbac11,27,female,english,2024-07-01_16h37.00.570,ABmemTask3,2023.2.3,Win32,60.0240096,,,,,,,,,,,,,,,,,,,,,,,,,,,,,,,,,,,,,,,,,,,,,,,,,,,,,,,,,,,,,,,,,,,,,,,,,,,,,,,,,,,,,,,,,,,,,,,,,,,,,,,,,,,271.53,271.53,,,,,,,,,,,,,,,,,,,,,,,,,,,,,,,,,,,,,,,,,,,,,,,,,,,,,,,,,,,,,,,,,,,,,,,,,,,,,,,,,,,,,,,,,,,,,,,
,,,,,60b2785e793387fa22524fce,6682b41eeb79ab8215dff63d,6682cce3aa44eb333efbac11,27,female,english,2024-07-01_16h37.00.570,ABmemTask3,2023.2.3,Win32,60.0240096,,,,,,,,,,,,,,,,,,,,,,,,,,,,,,,,,,,,,,,,,,,,,,,,,,,,,,,,,,,,,,,,,,,,,,,,,,,,,,,,,,,,,,,,,,,,,,,,,,,,,,,,,,,271.531,271.531,,,,,,,,,,,,,,,,,,,,,,,,,,,,,,,,,,,,,,,,,,,,,,,,,,,,,,,,,,,,,,,,,,,,,,,,,,,,,,,,,,,,,,,,,,,,,,,
,,,,,60b2785e793387fa22524fce,6682b41eeb79ab8215dff63d,6682cce3aa44eb333efbac11,27,female,english,2024-07-01_16h37.00.570,ABmemTask3,2023.2.3,Win32,60.0240096,,,,,,,,,,,,,,,,,,,,,,,,,,,,,,,,,,,,,,,,,,,,,,,,,,,,,,,,,,,,,,,,,,,,,,,,,,,,,,,,,,,,,,,,,,,,,,,,,,,,,,,,,,,271.532,271.532,,,,,,,,,,,,,,,,,,,,,,,,,,,,,,,,,,,,,,,,,,,,,,,,,,,,,,,,,,,,,,,,,,,,,,,,,,,,,,,,,,,,,,,,,,,,,,,
,,,,,60b2785e793387fa22524fce,6682b41eeb79ab8215dff63d,6682cce3aa44eb333efbac11,27,female,english,2024-07-01_16h37.00.570,ABmemTask3,2023.2.3,Win32,60.0240096,,,,,,,,,,,,,,,,,,,,,,,,,,,,,,,,,,,,,,,,,,,,,,,,,,,,,,,,,,,,,,,,,,,,,,,,,,,,,,,,,,,,,,,,,,,,,,,,,,,,,,,,,,,271.532,271.533,,,,,,,,,,,,,,,,,,,,,,,,,,,,,,,,,,,,,,,,,,,,,,,,,,,,,,,,,,,,,,,,,,,,,,,,,,,,,,,,,,,,,,,,,,,,,,,
,,,,,60b2785e793387fa22524fce,6682b41eeb79ab8215dff63d,6682cce3aa44eb333efbac11,27,female,english,2024-07-01_16h37.00.570,ABmemTask3,2023.2.3,Win32,60.0240096,,,,,,,,,,,,,,,,,,,,,,,,,,,,,,,,,,,,,,,,,,,,,,,,,,,,,,,,,,,,,,,,,,,,,,,,,,,,,,,,,,,,,,,,,,,,,,,,,,,,,,,,,,,271.534,271.534,,,,,,,,,,,,,,,,,,,,,,,,,,,,,,,,,,,,,,,,,,,,,,,,,,,,,,,,,,,,,,,,,,,,,,,,,,,,,,,,,,,,,,,,,,,,,,,
,,,,,60b2785e793387fa22524fce,6682b41eeb79ab8215dff63d,6682cce3aa44eb333efbac11,27,female,english,2024-07-01_16h37.00.570,ABmemTask3,2023.2.3,Win32,60.0240096,,,,,,,,,,,,,,,,,,,,,,,,,,,,,,,,,,,,,,,,,,,,,,,,,,,,,,,,,,,,,,,,,,,,,,,,,,,,,,,,,,,,,,,,,,,,,,,,,,,,,,,,,,,271.535,271.536,,,,,,,,,,,,,,,,,,,,,,,,,,,,,,,,,,,,,,,,,,,,,,,,,,,,,,,,,,,,,,,,,,,,,,,,,,,,,,,,,,,,,,,,,,,,,,,
,,,,,60b2785e793387fa22524fce,6682b41eeb79ab8215dff63d,6682cce3aa44eb333efbac11,27,female,english,2024-07-01_16h37.00.570,ABmemTask3,2023.2.3,Win32,60.0240096,,,,,,,,,,,,,,,,,,,,,,,,,,,,,,,,,,,,,,,,,,,,,,,,,,,,,,,,,,,,,,,,,,,,,,,,,,,,,,,,,,,,,,,,,,,,,,,,,,,,,,,,,,,271.537,271.537,,,,,,,,,,,,,,,,,,,,,,,,,,,,,,,,,,,,,,,,,,,,,,,,,,,,,,,,,,,,,,,,,,,,,,,,,,,,,,,,,,,,,,,,,,,,,,,
,,,,,60b2785e793387fa22524fce,6682b41eeb79ab8215dff63d,6682cce3aa44eb333efbac11,27,female,english,2024-07-01_16h37.00.570,ABmemTask3,2023.2.3,Win32,60.0240096,,,,,,,,,,,,,,,,,,,,,,,,,,,,,,,,,,,,,,,,,,,,,,,,,,,,,,,,,,,,,,,,,,,,,,,,,,,,,,,,,,,,,,,,,,,,,,,,,,,,,,,,,,,271.538,271.538,,,,,,,,,,,,,,,,,,,,,,,,,,,,,,,,,,,,,,,,,,,,,,,,,,,,,,,,,,,,,,,,,,,,,,,,,,,,,,,,,,,,,,,,,,,,,,,
,,,,,60b2785e793387fa22524fce,6682b41eeb79ab8215dff63d,6682cce3aa44eb333efbac11,27,female,english,2024-07-01_16h37.00.570,ABmemTask3,2023.2.3,Win32,60.0240096,,,,,,,,,,,,,,,,,,,,,,,,,,,,,,,,,,,,,,,,,,,,,,,,,,,,,,,,,,,,,,,,,,,,,,,,,,,,,,,,,,,,,,,,,,,,,,,,,,,,,,,,,,,,,,,,271.538,308.605,space,37.03,,,,,,,,,,,,,,,,,,,,,,,,,,,,,,,,,,,,,,,,,,,,,,,,,,,,,,,,,,,,,,,,,,,,,,,,,,,,,,,,,,,,,,,,
,,,,,60b2785e793387fa22524fce,6682b41eeb79ab8215dff63d,6682cce3aa44eb333efbac11,27,female,english,2024-07-01_16h37.00.570,ABmemTask3,2023.2.3,Win32,60.0240096,,,,,,,,,,,,,,,,,,,,,,,,,,,,,,,,,308.613,600,309.104,,,,,,,,,,,,,,,,,,,,,,,,,,0,,,,,,,,,prac_MEM,new,,,,,,,,,,,10,,,,,,,,,,,,,,,,,,,,,,,,,,,,,,,,,,,309.104,314.503,3,1,5.368,,314.504,315.503,0,0,0,8,1,999,999,pics/thread02.jpg,,,,,,,,,,,,,,,,,,,,,,,,,,,,,,,,,,,,,,,,,,,,,,,,,,,,,,,,,,,,,,,,,,,,,,,
,,,,,60b2785e793387fa22524fce,6682b41eeb79ab8215dff63d,6682cce3aa44eb333efbac11,27,female,english,2024-07-01_16h37.00.570,ABmemTask3,2023.2.3,Win32,60.0240096,,,,,,,,,,,,,,,,,,,,,,,,,,,,,,,,,315.504,600,316.003,,,,,,,,,,,,,,,,,,,,,,,,,,0,,,,,,,,,prac_MEM,old,,,,,,,,,,,10,,,,,,,,,,,,,,,,,,,,,,,,,,,,,,,,,,,316.003,317.869,6,6,1.847,,317.869,318.869,0,1,1,0,1,1,1,pics/tree.jpg,,,,,,,,,,,,,,,,,,,,,,,,,,,,,,,,,,,,,,,,,,,,,,,,,,,,,,,,,,,,,,,,,,,,,,,
,,,,,60b2785e793387fa22524fce,6682b41eeb79ab8215dff63d,6682cce3aa44eb333efbac11,27,female,english,2024-07-01_16h37.00.570,ABmemTask3,2023.2.3,Win32,60.0240096,,,,,,,,,,,,,,,,,,,,,,,,,,,,,,,,,318.87,600,319.37,,,,,,,,,,,,,,,,,,,,,,,,,,0,,,,,,,,,prac_MEM,new,,,,,,,,,,,10,,,,,,,,,,,,,,,,,,,,,,,,,,,,,,,,,,,319.37,326.786,7,3,7.399,,326.786,327.785,0,2,2,9,1,999,999,pics/moth.jpg,,,,,,,,,,,,,,,,,,,,,,,,,,,,,,,,,,,,,,,,,,,,,,,,,,,,,,,,,,,,,,,,,,,,,,,
,,,,,60b2785e793387fa22524fce,6682b41eeb79ab8215dff63d,6682cce3aa44eb333efbac11,27,female,english,2024-07-01_16h37.00.570,ABmemTask3,2023.2.3,Win32,60.0240096,,,,,,,,,,,,,,,,,,,,,,,,,,,,,,,,,327.786,600,328.285,,,,,,,,,,,,,,,,,,,,,,,,,,0,,,,,,,,,prac_MEM,old,,,,,,,,,,,10,,,,,,,,,,,,,,,,,,,,,,,,,,,,,,,,,,,328.285,330.152,10,6,1.849,,330.152,331.152,0,3,3,2,1,3,1,pics/sturgeon.jpg,,,,,,,,,,,,,,,,,,,,,,,,,,,,,,,,,,,,,,,,,,,,,,,,,,,,,,,,,,,,,,,,,,,,,,,
,,,,,60b2785e793387fa22524fce,6682b41eeb79ab8215dff63d,6682cce3aa44eb333efbac11,27,female,english,2024-07-01_16h37.00.570,ABmemTask3,2023.2.3,Win32,60.0240096,,,,,,,,,,,,,,,,,,,,,,,,,,,,,,,,,331.152,600,331.652,,,,,,,,,,,,,,,,,,,,,,,,,,0,,,,,,,,,prac_MEM,new,,,,,,,,,,,10,,,,,,,,,,,,,,,,,,,,,,,,,,,,,,,,,,,331.652,337.002,13,1,5.334,,337.003,338.001,0,4,4,10,1,999,999,pics/tomato01.jpg,,,,,,,,,,,,,,,,,,,,,,,,,,,,,,,,,,,,,,,,,,,,,,,,,,,,,,,,,,,,,,,,,,,,,,,
,,,,,60b2785e793387fa22524fce,6682b41eeb79ab8215dff63d,6682cce3aa44eb333efbac11,27,female,english,2024-07-01_16h37.00.570,ABmemTask3,2023.2.3,Win32,60.0240096,,,,,,,,,,,,,,,,,,,,,,,,,,,,,,,,,338.004,600,338.502,,,,,,,,,,,,,,,,,,,,,,,,,,0,,,,,,,,,prac_MEM,old,,,,,,,,,,,10,,,,,,,,,,,,,,,,,,,,,,,,,,,,,,,,,,,338.502,340.301,16,6,1.783,,340.302,341.301,0,5,5,6,1,12,5,pics/humanskull.jpg,,,,,,,,,,,,,,,,,,,,,,,,,,,,,,,,,,,,,,,,,,,,,,,,,,,,,,,,,,,,,,,,,,,,,,,
,,,,,60b2785e793387fa22524fce,6682b41eeb79ab8215dff63d,6682cce3aa44eb333efbac11,27,female,english,2024-07-01_16h37.00.570,ABmemTask3,2023.2.3,Win32,60.0240096,,,,,,,,,,,,,,,,,,,,,,,,,,,,,,,,,341.302,600,341.801,,,,,,,,,,,,,,,,,,,,,,,,,,0,,,,,,,,,prac_MEM,old,,,,,,,,,,,10,,,,,,,,,,,,,,,,,,,,,,,,,,,,,,,,,,,341.801,342.751,19,6,0.929,,342.751,343.751,0,6,6,3,1,4,1,pics/shorts01.jpg,,,,,,,,,,,,,,,,,,,,,,,,,,,,,,,,,,,,,,,,,,,,,,,,,,,,,,,,,,,,,,,,,,,,,,,
,,,,,60b2785e793387fa22524fce,6682b41eeb79ab8215dff63d,6682cce3aa44eb333efbac11,27,female,english,2024-07-01_16h37.00.570,ABmemTask3,2023.2.3,Win32,60.0240096,,,,,,,,,,,,,,,,,,,,,,,,,,,,,,,,,343.751,600,344.251,,,,,,,,,,,,,,,,,,,,,,,,,,0,,,,,,,,,prac_MEM,old,,,,,,,,,,,10,,,,,,,,,,,,,,,,,,,,,,,,,,,,,,,,,,,344.251,345.067,22,6,0.797,,345.068,346.067,0,7,7,5,1,11,5,pics/grater01a.jpg,,,,,,,,,,,,,,,,,,,,,,,,,,,,,,,,,,,,,,,,,,,,,,,,,,,,,,,,,,,,,,,,,,,,,,,
,,,,,60b2785e793387fa22524fce,6682b41eeb79ab8215dff63d,6682cce3aa44eb333efbac11,27,female,english,2024-07-01_16h37.00.570,ABmemTask3,2023.2.3,Win32,60.0240096,,,,,,,,,,,,,,,,,,,,,,,,,,,,,,,,,346.068,600,346.567,,,,,,,,,,,,,,,,,,,,,,,,,,0,,,,,,,,,prac_MEM,old,,,,,,,,,,,10,,,,,,,,,,,,,,,,,,,,,,,,,,,,,,,,,,,346.567,348.101,21,3,1.515,,348.101,349.101,0,8,8,4,1,5,1,pics/tongs01b.jpg,,,,,,,,,,,,,,,,,,,,,,,,,,,,,,,,,,,,,,,,,,,,,,,,,,,,,,,,,,,,,,,,,,,,,,,
,,,,,60b2785e793387fa22524fce,6682b41eeb79ab8215dff63d,6682cce3aa44eb333efbac11,27,female,english,2024-07-01_16h37.00.570,ABmemTask3,2023.2.3,Win32,60.0240096,,,,,,,,,,,,,,,,,,,,,,,,,,,,,,,,,349.102,600,349.6,,,,,,,,,,,,,,,,,,,,,,,,,,0,,,,,,,,,prac_MEM,old,,,,,,,,,,,10,,,,,,,,,,,,,,,,,,,,,,,,,,,,,,,,,,,349.6,351.117,24,6,1.5,,351.117,352.117,0,9,9,1,1,2,1,pics/pants.jpg,,,,,,,,,,,,,,,,,,,,,,,,,,,,,,,,,,,,,,,,,,,,,,,,,,,,,,,,,,,,,,,,,,,,,,,
,,,,,60b2785e793387fa22524fce,6682b41eeb79ab8215dff63d,6682cce3aa44eb333efbac11,27,female,english,2024-07-01_16h37.00.570,ABmemTask3,2023.2.3,Win32,60.0240096,,,,,,,,,,,,,,,,,,,,,,,,,,,,,,,,,352.118,600,352.617,,,,,,,,,,,,,,,,,,,,,,,,,,0,,,,,,,,,prac_MEM,new,,,,,,,,,,,10,,,,,,,,,,,,,,,,,,,,,,,,,,,,,,,,,,,352.618,353.867,27,1,1.233,,353.869,354.867,0,10,10,7,1,999,999,pics/cherry01.jpg,,,,,,,,,,,,,,,,,,,,,,,,,,,,,,,,,,,,,,,,,,,,,,,,,,,,,,,,,,,,,,,,,,,,,,,
,,,,,60b2785e793387fa22524fce,6682b41eeb79ab8215dff63d,6682cce3aa44eb333efbac11,27,female,english,2024-07-01_16h37.00.570,ABmemTask3,2023.2.3,Win32,60.0240096,,,,,,,,,,,,,,,,,,,,,,,,,,,,,,,,,,,,,,,,,,,,,,,,,,,,,,,,,,,,,,,,,,,,,,,,,,,,,,,,,,,,,,,,,,,,,,,,,,,,,,,,,,,,,,,,,,,,,,,,,,,,,,,,,,,,,354.868,356.684,356.684,356.684,,,,,,,,,,,,,,,,,,,,,,,,,,,,,,,,,,,,,,,,,,,,,,,,,,,,,,,,,,,,,,,,,,,
,,,,,60b2785e793387fa22524fce,6682b41eeb79ab8215dff63d,6682cce3aa44eb333efbac11,27,female,english,2024-07-01_16h37.00.570,ABmemTask3,2023.2.3,Win32,60.0240096,,,,,,,,,,,,,,,,,,space,30.683,,,,,,,,,,,,,,,,,,,,,,,,,,,,,,,,,,,,,,,,,,,,,,,,,,,,,,,,,,,,,,,,,,,,,,,,,,,,,,,,,,,,,,,,,,,,,,,,,,,,,,,,,,,,,,,,,,,,,,356.684,387.4,,,,,,,,,,,,,,,,,,,,,,,,,,,,,,,,,,,,,,,,,,,,,,,,,,,,,,,,,,,,,,,,,
,,,,,60b2785e793387fa22524fce,6682b41eeb79ab8215dff63d,6682cce3aa44eb333efbac11,27,female,english,2024-07-01_16h37.00.570,ABmemTask3,2023.2.3,Win32,60.0240096,,,,,,,,,,,,,,,,,,,,,,,,,,,,,,,,,,,,,,,,,,,,,,,,,,,,,,,,,,,,,,,,,,,,,,,,,,,,,,,,,,,,,,,,,,,,,,,,,,,,,,,,,,,,,,,,,,,,,,,,,,,,,,,,,,,,,,,,,,,387.401,401.547,space,14.115,,,,,,,,,,,,,,,,,,,,,,,,,,,,,,,,,,,,,,,,,,,,,,,,,,,,,,,,,,,,,
,,,,,60b2785e793387fa22524fce,6682b41eeb79ab8215dff63d,6682cce3aa44eb333efbac11,27,female,english,2024-07-01_16h37.00.570,ABmemTask3,2023.2.3,Win32,60.0240096,,,,,,,,,,,,,,,,,,,,,,,,,,,,,,,401.564,402.565,402.566,7,403.064,404.114,0.005,404.23,0.113,0.116,0.117,0.116,0.117,0.116,0.117,0.118,0.115,,,404.231,405.864,left,1.613,,405.865,406.331,right,0.45,,0,0,2,406.331,407.33,,,,,,1_AB,L1_T1P_T2P,1,1,1,4,5,3,5,10,flute,Did you see the flute,0.12,0,resources/,pics/peach01.jpg,pics/seaturtle.jpg,pics/dromedary.jpg,pics/recorder01.jpg,pics/stapler08.jpg,pics/giraffe.jpg,pics/blender.jpg,pics/necklace.jpg,pics/sink.jpg,pics/dustpan.jpg,blankImage,blankImage,blankImage,blankImage,blankImage,blankImage,blankImage,recorder01,7,,,,,,,,,,,,,,,,,,,,,,,,,,,,,,,,,,,,,,,,,0,0,0,6,1,,,,,,,,,,,,,,,,,,,,,,,,,,,,,,,,,,,,,,,,,,,,,,,,,,,,,,,
,,,,,60b2785e793387fa22524fce,6682b41eeb79ab8215dff63d,6682cce3aa44eb333efbac11,27,female,english,2024-07-01_16h37.00.570,ABmemTask3,2023.2.3,Win32,60.0240096,,,,,,,,,,,,,,,,,,,,,,,,,,,,,,,407.332,408.33,408.33,7,408.83,410.347,0.002,410.464,0.116,0.116,0.117,0.117,0.116,0.117,0.116,0.118,0.116,0.116,0.117,410.464,411.48,right,1,,411.48,411.73,left,0.236,,0,0,4,411.73,412.73,,,,,,1_AB,L5_T1P_T2P,5,1,1,6,11,5,3,14,truck,Did you see the truck,0.12,0,resources/,pics/calendar.jpg,pics/mummy.jpg,pics/ashtray01.jpg,pics/pencilsharpener02a.jpg,pics/dustpan.jpg,pics/boxtruck.jpg,pics/lightswitch01.jpg,pics/pictureframe04.jpg,pics/starfish01.jpg,pics/zebra.jpg,pics/stapler12.jpg,pics/bowtie.jpg,pics/candleholder01.jpg,pics/candle01.jpg,blankImage,blankImage,blankImage,boxtruck,50,0.117,0.117,,,,,,,,,,,,,,,,,,,,,,,,,,,,,,,,,,,,,,,0,1,1,49,1,,,,,,,,,,,,,,,,,,,,,,,,,,,,,,,,,,,,,,,,,,,,,,,,,,,,,,,
,,,,,60b2785e793387fa22524fce,6682b41eeb79ab8215dff63d,6682cce3aa44eb333efbac11,27,female,english,2024-07-01_16h37.00.570,ABmemTask3,2023.2.3,Win32,60.0240096,,,,,,,,,,,,,,,,,,,,,,,,,,,,,,,412.73,413.73,413.73,7,414.23,415.63,0.002,415.748,0.115,0.117,0.117,0.117,0.116,0.117,0.117,0.116,0.117,0.116,0.117,415.748,416.663,left,0.895,,416.664,416.88,left,0.199,,0,0,6,416.88,417.88,,,,,,1_AB,L1_T1A_T2P,1,0,1,7,8,6,5,13,statue,Did you see the statue,0.12,0,resources/,pics/giraffe.jpg,pics/seaturtle.jpg,pics/peach01.jpg,pics/boot02b.jpg,pics/backpack01a.jpg,pics/sandbarshark.jpg,pics/microscope.jpg,pics/stapler07.jpg,pics/snowshoe.jpg,pics/laptop01a.jpg,pics/necklace.jpg,pics/zebra.jpg,pics/carrot01.jpg,blankImage,blankImage,blankImage,blankImage,statue,27,0.116,,,,,,,,,,,,,,,,,,,,,,,,,,,,,,,,,,,,,,,,0,2,2,26,1,,,,,,,,,,,,,,,,,,,,,,,,,,,,,,,,,,,,,,,,,,,,,,,,,,,,,,,
,,,,,60b2785e793387fa22524fce,6682b41eeb79ab8215dff63d,6682cce3aa44eb333efbac11,27,female,english,2024-07-01_16h37.00.570,ABmemTask3,2023.2.3,Win32,60.0240096,,,,,,,,,,,,,,,,,,,,,,,,,,,,,,,417.881,418.88,418.88,7,419.38,420.547,0.002,420.662,0.115,0.117,0.116,0.116,0.117,0.117,0.117,0.116,0.117,0.118,,420.663,421.362,right,0.685,,421.363,421.613,right,0.235,,-2,0,8,421.613,422.613,,,,,,1_AB,L1_T1P_T2A,1,1,0,7,8,6,3,11,Spear,Did you see the Spear,0.12,0,resources/,pics/butterfly.jpg,pics/banjo.jpg,pics/chainsaw.jpg,pics/christmaslights.jpg,pics/dustpan.jpg,pics/shovel01.jpg,pics/spear02.jpg,pics/table01.jpg,pics/starfish01.jpg,pics/bowlingpin.jpg,pics/carrot01.jpg,blankImage,blankImage,blankImage,blankImage,blankImage,blankImage,spear02,39,,,,,,,,,,,,,,,,,,,,,,,,,,,,,,,,,,,,,,,,,0,3,3,38,1,,,,,,,,,,,,,,,,,,,,,,,,,,,,,,,,,,,,,,,,,,,,,,,,,,,,,,,
,,,,,60b2785e793387fa22524fce,6682b41eeb79ab8215dff63d,6682cce3aa44eb333efbac11,27,female,english,2024-07-01_16h37.00.570,ABmemTask3,2023.2.3,Win32,60.0240096,,,,,,,,,,,,,,,,,,,,,,,,,,,,,,,422.613,423.612,423.613,7,424.113,425.513,0.002,425.63,0.115,0.116,0.118,0.116,0.117,0.116,0.116,0.117,0.118,0.115,0.117,425.63,427.029,left,1.381,,427.029,427.28,left,0.231,,0,0,10,427.28,428.279,,,,,,1_AB,L1_T1A_T2A,1,0,0,7,8,6,5,13,fan,Did you see the fan,0.12,0,resources/,pics/leaf02a.jpg,pics/dustpan.jpg,pics/pencil01.jpg,pics/kangaroo.jpg,pics/golfball.jpg,pics/lightswitch01.jpg,pics/nutcracker01.jpg,pics/calendar.jpg,pics/hose.jpg,pics/starfish01.jpg,pics/siamesecat.jpg,pics/bowlingpin.jpg,pics/necklace.jpg,blankImage,blankImage,blankImage,blankImage,fan,42,0.117,,,,,,,,,,,,,,,,,,,,,,,,,,,,,,,,,,,,,,,,0,4,4,41,1,,,,,,,,,,,,,,,,,,,,,,,,,,,,,,,,,,,,,,,,,,,,,,,,,,,,,,,
,,,,,60b2785e793387fa22524fce,6682b41eeb79ab8215dff63d,6682cce3aa44eb333efbac11,27,female,english,2024-07-01_16h37.00.570,ABmemTask3,2023.2.3,Win32,60.0240096,,,,,,,,,,,,,,,,,,,,,,,,,,,,,,,428.279,429.279,429.279,7,429.779,430.83,0.002,430.946,0.115,0.117,0.116,0.117,0.117,0.116,0.117,0.116,0.118,,,430.946,432.029,left,1.062,,432.029,432.296,right,0.249,,2,0,12,432.296,433.296,,,,,,1_AB,L1_T1A_T2P,1,0,1,5,6,4,4,10,Rabbit,Did you see the Rabbit,0.12,0,resources/,pics/cannon.jpg,pics/proboscismonkey.jpg,pics/salmon.jpg,pics/nutcracker01.jpg,pics/seagull.jpg,pics/stapler02.jpg,pics/table01.jpg,pics/laptop01a.jpg,pics/necklace.jpg,pics/pencilsharpener02a.jpg,blankImage,blankImage,blankImage,blankImage,blankImage,blankImage,blankImage,jackrabbit,31,,,,,,,,,,,,,,,,,,,,,,,,,,,,,,,,,,,,,,,,,0,5,5,30,1,,,,,,,,,,,,,,,,,,,,,,,,,,,,,,,,,,,,,,,,,,,,,,,,,,,,,,,
,,,,,60b2785e793387fa22524fce,6682b41eeb79ab8215dff63d,6682cce3aa44eb333efbac11,27,female,english,2024-07-01_16h37.00.570,ABmemTask3,2023.2.3,Win32,60.0240096,,,,,,,,,,,,,,,,,,,,,,,,,,,,,,,433.297,434.295,434.295,7,434.797,436.08,0.004,436.196,0.112,0.115,0.117,0.118,0.116,0.117,0.115,0.117,0.117,0.117,0.117,436.196,437.129,left,0.917,,437.129,437.407,right,0.267,,2,0,14,437.407,438.395,,,,,,1_AB,L1_T1P_T2P,1,1,1,6,7,5,5,12,rope,Did you see the rope,0.12,0,resources/,pics/toiletpaper01a.jpg,pics/sewingmachine01a.jpg,pics/birdhouse.jpg,pics/sealion.jpg,pics/safetypin.jpg,pics/rope03.jpg,pics/stapler04.jpg,pics/binder03b.jpg,pics/ashtray01.jpg,pics/sandbarshark.jpg,pics/chainsaw.jpg,pics/nutcracker01.jpg,blankImage,blankImage,blankImage,blankImage,blankImage,rope03,4,,,,,,,,,,,,,,,,,,,,,,,,,,,,,,,,,,,,,,,,,0,6,6,3,1,,,,,,,,,,,,,,,,,,,,,,,,,,,,,,,,,,,,,,,,,,,,,,,,,,,,,,,
,,,,,60b2785e793387fa22524fce,6682b41eeb79ab8215dff63d,6682cce3aa44eb333efbac11,27,female,english,2024-07-01_16h37.00.570,ABmemTask3,2023.2.3,Win32,60.0240096,,,,,,,,,,,,,,,,,,,,,,,,,,,,,,,438.396,439.395,439.395,7,439.895,441.062,0.004,441.178,0.113,0.117,0.117,0.116,0.118,0.115,0.117,0.117,0.117,0.116,,441.178,441.645,right,0.447,,441.645,441.894,right,0.234,,4,0,16,441.895,442.895,,,,,,1_AB,L1_T1P_T2P,1,1,1,7,8,6,3,11,medal,Did you see the medal,0.12,0,resources/,pics/hen.jpg,pics/starfish01.jpg,pics/nutcracker01.jpg,pics/ball02.jpg,pics/fanblades.jpg,pics/christmaslights.jpg,pics/medal02b.jpg,pics/stapler09.jpg,pics/carrot01.jpg,pics/hammerheadshark.jpg,pics/sailboat.jpg,blankImage,blankImage,blankImage,blankImage,blankImage,blankImage,medal02b,19,,,,,,,,,,,,,,,,,,,,,,,,,,,,,,,,,,,,,,,,,0,7,7,18,1,,,,,,,,,,,,,,,,,,,,,,,,,,,,,,,,,,,,,,,,,,,,,,,,,,,,,,,
,,,,,60b2785e793387fa22524fce,6682b41eeb79ab8215dff63d,6682cce3aa44eb333efbac11,27,female,english,2024-07-01_16h37.00.570,ABmemTask3,2023.2.3,Win32,60.0240096,,,,,,,,,,,,,,,,,,,,,,,,,,,,,,,442.896,443.895,443.895,7,444.395,445.912,0.002,446.029,0.115,0.116,0.119,0.115,0.117,0.116,0.117,0.116,0.118,0.116,0.117,446.029,446.412,right,0.365,,446.412,446.645,right,0.221,,6,0,18,446.645,447.645,,,,,,1_AB,L5_T1P_T2P,5,1,1,5,10,4,4,14,Fox,Did you see the Fox,0.12,0,resources/,pics/hammerheadshark.jpg,pics/bowlingpin.jpg,pics/pictureframe04.jpg,pics/peanut01.jpg,pics/redfox.jpg,pics/cymbal.jpg,pics/spoon01.jpg,pics/banjo.jpg,pics/butterfly.jpg,pics/stapler11.jpg,pics/football.jpg,pics/safetypin.jpg,pics/triangle.jpg,pics/onion.jpg,blankImage,blankImage,blankImage,redfox,45,0.116,0.117,,,,,,,,,,,,,,,,,,,,,,,,,,,,,,,,,,,,,,,0,8,8,44,1,,,,,,,,,,,,,,,,,,,,,,,,,,,,,,,,,,,,,,,,,,,,,,,,,,,,,,,
,,,,,60b2785e793387fa22524fce,6682b41eeb79ab8215dff63d,6682cce3aa44eb333efbac11,27,female,english,2024-07-01_16h37.00.570,ABmemTask3,2023.2.3,Win32,60.0240096,,,,,,,,,,,,,,,,,,,,,,,,,,,,,,,447.646,448.645,448.645,7,449.145,450.312,0.002,450.428,0.114,0.117,0.118,0.115,0.117,0.118,0.116,0.116,0.117,0.117,,450.428,450.844,right,0.398,,450.844,451.078,right,0.217,,8,0,20,451.078,452.078,,,,,,1_AB,L1_T1P_T2P,1,1,1,7,8,6,3,11,bird,Did you see the bird,0.12,0,resources/,pics/sealion.jpg,pics/backpack01a.jpg,pics/hose.jpg,pics/table01.jpg,pics/wheel01.jpg,pics/seaturtle.jpg,pics/americangoldfinch.jpg,pics/stapler08.jpg,pics/siamesecat.jpg,pics/hammerheadshark.jpg,pics/ashtray01.jpg,blankImage,blankImage,blankImage,blankImage,blankImage,blankImage,americangoldfinch,23,,,,,,,,,,,,,,,,,,,,,,,,,,,,,,,,,,,,,,,,,0,9,9,22,1,,,,,,,,,,,,,,,,,,,,,,,,,,,,,,,,,,,,,,,,,,,,,,,,,,,,,,,
,,,,,60b2785e793387fa22524fce,6682b41eeb79ab8215dff63d,6682cce3aa44eb333efbac11,27,female,english,2024-07-01_16h37.00.570,ABmemTask3,2023.2.3,Win32,60.0240096,,,,,,,,,,,,,,,,,,,,,,,,,,,,,,,452.078,453.078,453.078,7,453.566,454.728,0.002,454.844,0.111,0.115,0.117,0.118,0.116,0.116,0.117,0.117,0.116,0.117,,454.844,455.96,left,1.101,,455.961,456.211,right,0.234,,10,0,22,456.211,457.21,,,,,,1_AB,L1_T1A_T2P,1,0,1,5,6,4,5,11,Recorder,Did you see the Recorder,0.12,0,resources/,pics/bowtie.jpg,pics/nutcracker01.jpg,pics/hairdryer02a.jpg,pics/shovel01.jpg,pics/onion.jpg,pics/stapler13.jpg,pics/safetypin.jpg,pics/spiderweb.jpg,pics/seagull.jpg,pics/dustpan.jpg,pics/icecube01.jpg,blankImage,blankImage,blankImage,blankImage,blankImage,blankImage,recorder04,28,,,,,,,,,,,,,,,,,,,,,,,,,,,,,,,,,,,,,,,,,0,10,10,27,1,,,,,,,,,,,,,,,,,,,,,,,,,,,,,,,,,,,,,,,,,,,,,,,,,,,,,,,
,,,,,60b2785e793387fa22524fce,6682b41eeb79ab8215dff63d,6682cce3aa44eb333efbac11,27,female,english,2024-07-01_16h37.00.570,ABmemTask3,2023.2.3,Win32,60.0240096,,,,,,,,,,,,,,,,,,,,,,,,,,,,,,,457.211,458.21,458.21,7,458.71,459.994,0.003,460.11,0.115,0.117,0.117,0.116,0.116,0.117,0.117,0.117,0.116,0.117,0.116,460.11,460.511,right,0.385,,460.511,460.744,right,0.22,,12,0,24,460.744,461.743,,,,,,1_AB,L1_T1P_T2P,1,1,1,6,7,5,5,12,Bear,Did you see the Bear,0.12,0,resources/,pics/necklace.jpg,pics/hen.jpg,pics/dromedary.jpg,pics/piggybank.jpg,pics/sandbarshark.jpg,pics/grizzly.jpg,pics/stapler12.jpg,pics/bowlingpin.jpg,pics/christmaslights.jpg,pics/icecube01.jpg,pics/match.jpg,pics/lock03a.jpg,blankImage,blankImage,blankImage,blankImage,blankImage,grizzly,18,,,,,,,,,,,,,,,,,,,,,,,,,,,,,,,,,,,,,,,,,0,11,11,17,1,,,,,,,,,,,,,,,,,,,,,,,,,,,,,,,,,,,,,,,,,,,,,,,,,,,,,,,
,,,,,60b2785e793387fa22524fce,6682b41eeb79ab8215dff63d,6682cce3aa44eb333efbac11,27,female,english,2024-07-01_16h37.00.570,ABmemTask3,2023.2.3,Win32,60.0240096,,,,,,,,,,,,,,,,,,,,,,,,,,,,,,,461.744,462.743,462.743,7,463.244,464.411,0.001,464.527,0.116,0.117,0.117,0.116,0.117,0.116,0.117,0.116,0.117,0.117,,464.527,465.428,right,0.887,,465.428,465.827,left,0.388,,14,0,26,465.827,466.827,,,,,,1_AB,L1_T1P_T2A,1,1,0,7,8,6,3,11,eggplant,Did you see the eggplant,0.12,0,resources/,pics/salmon.jpg,pics/fanblades.jpg,pics/hammerheadshark.jpg,pics/wheel01.jpg,pics/snowshoe.jpg,pics/birdhouse.jpg,pics/eggplant.jpg,pics/spiderweb.jpg,pics/zebra.jpg,pics/pencilsharpener02a.jpg,pics/backpack01a.jpg,blankImage,blankImage,blankImage,blankImage,blankImage,blankImage,eggplant,32,,,,,,,,,,,,,,,,,,,,,,,,,,,,,,,,,,,,,,,,,0,12,12,31,1,,,,,,,,,,,,,,,,,,,,,,,,,,,,,,,,,,,,,,,,,,,,,,,,,,,,,,,
,,,,,60b2785e793387fa22524fce,6682b41eeb79ab8215dff63d,6682cce3aa44eb333efbac11,27,female,english,2024-07-01_16h37.00.570,ABmemTask3,2023.2.3,Win32,60.0240096,,,,,,,,,,,,,,,,,,,,,,,,,,,,,,,466.828,467.827,467.827,7,468.327,469.727,0.005,469.843,0.113,0.116,0.117,0.116,0.116,0.118,0.116,0.117,0.116,0.117,0.116,469.843,470.511,left,0.647,,470.511,470.777,left,0.251,,12,0,28,470.777,471.776,,,,,,1_AB,L5_T1P_T2P,5,1,1,4,9,3,4,13,Forklift,Did you see the Forklift,0.12,0,resources/,pics/dustpan.jpg,pics/table01.jpg,pics/sink.jpg,pics/forklift.jpg,pics/dromedary.jpg,pics/proboscismonkey.jpg,pics/cymbal.jpg,pics/shovel01.jpg,pics/stapler10.jpg,pics/backpack01a.jpg,pics/binder03b.jpg,pics/banjo.jpg,pics/candleholder01.jpg,blankImage,blankImage,blankImage,blankImage,forklift,47,0.117,,,,,,,,,,,,,,,,,,,,,,,,,,,,,,,,,,,,,,,,0,13,13,46,1,,,,,,,,,,,,,,,,,,,,,,,,,,,,,,,,,,,,,,,,,,,,,,,,,,,,,,,
,,,,,60b2785e793387fa22524fce,6682b41eeb79ab8215dff63d,6682cce3aa44eb333efbac11,27,female,english,2024-07-01_16h37.00.570,ABmemTask3,2023.2.3,Win32,60.0240096,,,,,,,,,,,,,,,,,,,,,,,,,,,,,,,471.779,472.776,472.776,7,473.276,474.444,0.003,474.56,0.115,0.117,0.116,0.117,0.117,0.117,0.116,0.116,0.116,0.118,,474.56,475.81,right,1.235,,475.81,476.076,left,0.25,,12,0,30,476.076,477.076,,,,,,1_AB,L1_T1P_T2P,1,1,1,7,8,6,3,11,toothpick,Did you see the toothpick,0.12,0,resources/,pics/candleholder01.jpg,pics/blender.jpg,pics/siamesecat.jpg,pics/peanut01.jpg,pics/spiderweb.jpg,pics/football.jpg,pics/toothpick02.jpg,pics/stapler04b.jpg,pics/seagull.jpg,pics/pictureframe04.jpg,pics/shipinabottle.jpg,blankImage,blankImage,blankImage,blankImage,blankImage,blankImage,toothpick02,17,,,,,,,,,,,,,,,,,,,,,,,,,,,,,,,,,,,,,,,,,0,14,14,16,1,,,,,,,,,,,,,,,,,,,,,,,,,,,,,,,,,,,,,,,,,,,,,,,,,,,,,,,
,,,,,60b2785e793387fa22524fce,6682b41eeb79ab8215dff63d,6682cce3aa44eb333efbac11,27,female,english,2024-07-01_16h37.00.570,ABmemTask3,2023.2.3,Win32,60.0240096,,,,,,,,,,,,,,,,,,,,,,,,,,,,,,,477.077,478.076,478.076,7,478.577,479.976,0.002,480.094,0.115,0.115,0.118,0.116,0.116,0.116,0.117,0.117,0.116,0.117,0.116,480.094,481.309,right,1.198,,481.31,481.576,right,0.252,,14,0,32,481.576,482.576,,,,,,1_AB,L1_T1P_T2P,1,1,1,7,8,6,5,13,strawberry,Did you see the strawberry,0.12,0,resources/,pics/sealion.jpg,pics/backpack01a.jpg,pics/binoculars01b.jpg,pics/ball02.jpg,pics/proboscismonkey.jpg,pics/pictureframe04.jpg,pics/strawberry.jpg,pics/stapler12.jpg,pics/seaturtle.jpg,pics/dustpan.jpg,pics/bowlingpin.jpg,pics/hammerheadshark.jpg,pics/hen.jpg,blankImage,blankImage,blankImage,blankImage,strawberry,10,0.118,,,,,,,,,,,,,,,,,,,,,,,,,,,,,,,,,,,,,,,,0,15,15,9,1,,,,,,,,,,,,,,,,,,,,,,,,,,,,,,,,,,,,,,,,,,,,,,,,,,,,,,,
,,,,,60b2785e793387fa22524fce,6682b41eeb79ab8215dff63d,6682cce3aa44eb333efbac11,27,female,english,2024-07-01_16h37.00.570,ABmemTask3,2023.2.3,Win32,60.0240096,,,,,,,,,,,,,,,,,,,,,,,,,,,,,,,482.576,483.575,483.575,7,484.076,485.009,0.002,485.125,0.115,0.117,0.116,0.117,0.116,0.117,0.116,0.118,,,,485.125,485.942,left,0.797,,485.942,486.326,right,0.37,,14,0,34,486.326,487.325,,,,,,1_AB,L1_T1P_T2P,1,1,1,4,5,3,4,9,Chefs hat,Did you see the Chefs hat,0.12,0,resources/,pics/sewingmachine01a.jpg,pics/icecube01.jpg,pics/fanblades.jpg,pics/chefshat.jpg,pics/stapler06.jpg,pics/ashtray01.jpg,pics/blender.jpg,pics/sandbarshark.jpg,pics/lock03a.jpg,blankImage,blankImage,blankImage,blankImage,blankImage,blankImage,blankImage,blankImage,chefshat,12,,,,,,,,,,,,,,,,,,,,,,,,,,,,,,,,,,,,,,,,,0,16,16,11,1,,,,,,,,,,,,,,,,,,,,,,,,,,,,,,,,,,,,,,,,,,,,,,,,,,,,,,,
,,,,,60b2785e793387fa22524fce,6682b41eeb79ab8215dff63d,6682cce3aa44eb333efbac11,27,female,english,2024-07-01_16h37.00.570,ABmemTask3,2023.2.3,Win32,60.0240096,,,,,,,,,,,,,,,,,,,,,,,,,,,,,,,487.326,488.326,488.326,7,488.826,489.993,0.002,490.109,0.115,0.116,0.118,0.115,0.117,0.117,0.116,0.117,0.116,0.118,,490.109,491.142,left,1.012,,491.142,491.876,right,0.721,,14,0,36,491.876,492.875,,,,,,1_AB,L1_T1P_T2P,1,1,1,7,8,6,3,11,pliers,Did you see the pliers,0.12,0,resources/,pics/mummy.jpg,pics/binder03b.jpg,pics/bowtie.jpg,pics/toiletpaper01a.jpg,pics/football.jpg,pics/blender.jpg,pics/needlenosepliers01.jpg,pics/stapler13.jpg,pics/zebra.jpg,pics/hammerheadshark.jpg,pics/sealion.jpg,blankImage,blankImage,blankImage,blankImage,blankImage,blankImage,needlenosepliers01,6,,,,,,,,,,,,,,,,,,,,,,,,,,,,,,,,,,,,,,,,,0,17,17,5,1,,,,,,,,,,,,,,,,,,,,,,,,,,,,,,,,,,,,,,,,,,,,,,,,,,,,,,,
,,,,,60b2785e793387fa22524fce,6682b41eeb79ab8215dff63d,6682cce3aa44eb333efbac11,27,female,english,2024-07-01_16h37.00.570,ABmemTask3,2023.2.3,Win32,60.0240096,,,,,,,,,,,,,,,,,,,,,,,,,,,,,,,492.876,493.875,493.875,7,494.375,495.308,0.002,495.425,0.116,0.116,0.116,0.117,0.117,0.117,0.116,0.116,,,,495.425,496.875,left,1.432,,496.875,497.541,left,0.652,,14,0,38,497.542,498.542,,,,,,1_AB,L1_T1A_T2P,1,0,1,5,6,4,3,9,Trailer,Did you see the Trailer,0.12,0,resources/,pics/pencil01.jpg,pics/football.jpg,pics/hairdryer02a.jpg,pics/wheel01.jpg,pics/chainsaw.jpg,pics/stapler10.jpg,pics/peanut01.jpg,pics/triangle.jpg,pics/sink.jpg,blankImage,blankImage,blankImage,blankImage,blankImage,blankImage,blankImage,blankImage,boxtrailer,29,,,,,,,,,,,,,,,,,,,,,,,,,,,,,,,,,,,,,,,,,0,18,18,28,1,,,,,,,,,,,,,,,,,,,,,,,,,,,,,,,,,,,,,,,,,,,,,,,,,,,,,,,
,,,,,60b2785e793387fa22524fce,6682b41eeb79ab8215dff63d,6682cce3aa44eb333efbac11,27,female,english,2024-07-01_16h37.00.570,ABmemTask3,2023.2.3,Win32,60.0240096,,,,,,,,,,,,,,,,,,,,,,,,,,,,,,,498.543,499.541,499.541,7,500.042,501.208,0.001,501.324,0.116,0.116,0.118,0.116,0.116,0.117,0.117,0.116,0.117,0.116,,501.324,502.325,left,0.985,,502.326,503.359,left,1.02,,14,0,40,503.359,504.358,,,,,,1_AB,L1_T1P_T2A,1,1,0,6,7,5,4,11,lamp,Did you see the lamp,0.12,0,resources/,pics/chainsaw.jpg,pics/fanblades.jpg,pics/salmon.jpg,pics/proboscismonkey.jpg,pics/boot02b.jpg,pics/lamp04a.jpg,pics/blender.jpg,pics/sink.jpg,pics/pencil01.jpg,pics/floortile02.jpg,pics/shovel01.jpg,blankImage,blankImage,blankImage,blankImage,blankImage,blankImage,lamp04a,37,,,,,,,,,,,,,,,,,,,,,,,,,,,,,,,,,,,,,,,,,0,19,19,36,1,,,,,,,,,,,,,,,,,,,,,,,,,,,,,,,,,,,,,,,,,,,,,,,,,,,,,,,
,,,,,60b2785e793387fa22524fce,6682b41eeb79ab8215dff63d,6682cce3aa44eb333efbac11,27,female,english,2024-07-01_16h37.00.570,ABmemTask3,2023.2.3,Win32,60.0240096,,,,,,,,,,,,,,,,,,,,,,,,,,,,,,,504.361,505.358,505.358,7,505.857,507.258,0.004,507.374,0.115,0.116,0.116,0.117,0.117,0.116,0.116,0.117,0.117,0.117,0.117,507.374,508.29,left,0.902,,508.29,508.574,right,0.272,,16,0,42,508.575,509.574,,,,,,1_AB,L1_T1A_T2P,1,0,1,7,8,6,5,13,Basketball,Did you see the Basketball,0.12,0,resources/,pics/cork02.jpg,pics/table01.jpg,pics/christmaslights.jpg,pics/nutcracker01.jpg,pics/golfball.jpg,pics/hammerheadshark.jpg,pics/seaturtle.jpg,pics/stapler04b.jpg,pics/lock03a.jpg,pics/snowshoe.jpg,pics/sewingmachine01a.jpg,pics/peach01.jpg,pics/hose.jpg,blankImage,blankImage,blankImage,blankImage,basketball01,24,0.116,,,,,,,,,,,,,,,,,,,,,,,,,,,,,,,,,,,,,,,,0,20,20,23,1,,,,,,,,,,,,,,,,,,,,,,,,,,,,,,,,,,,,,,,,,,,,,,,,,,,,,,,
,,,,,60b2785e793387fa22524fce,6682b41eeb79ab8215dff63d,6682cce3aa44eb333efbac11,27,female,english,2024-07-01_16h37.00.570,ABmemTask3,2023.2.3,Win32,60.0240096,,,,,,,,,,,,,,,,,,,,,,,,,,,,,,,509.574,510.574,510.574,7,511.073,512.59,0.002,512.707,0.116,0.118,0.116,0.116,0.117,0.116,0.117,0.117,0.116,0.117,0.117,512.707,513.958,right,1.236,,513.958,514.224,right,0.25,,14,0,44,514.225,515.224,,,,,,1_AB,L5_T1P_T2A,5,1,0,4,9,3,5,14,Frisbee,Did you see the Frisbee,0.12,0,resources/,pics/giraffe.jpg,pics/christmaslights.jpg,pics/bowtie.jpg,pics/frisbee.jpg,pics/banjo.jpg,pics/calendar.jpg,pics/butterfly.jpg,pics/onion.jpg,pics/starfish01.jpg,pics/footballhelmet.jpg,pics/blender.jpg,pics/candleholder01.jpg,pics/hairdryer02a.jpg,pics/dromedary.jpg,blankImage,blankImage,blankImage,frisbee,58,0.116,0.116,,,,,,,,,,,,,,,,,,,,,,,,,,,,,,,,,,,,,,,0,21,21,57,1,,,,,,,,,,,,,,,,,,,,,,,,,,,,,,,,,,,,,,,,,,,,,,,,,,,,,,,
,,,,,60b2785e793387fa22524fce,6682b41eeb79ab8215dff63d,6682cce3aa44eb333efbac11,27,female,english,2024-07-01_16h37.00.570,ABmemTask3,2023.2.3,Win32,60.0240096,,,,,,,,,,,,,,,,,,,,,,,,,,,,,,,515.225,516.224,516.224,7,516.724,518.358,0.002,518.473,0.114,0.118,0.116,0.117,0.116,0.118,0.117,0.116,0.117,0.116,0.116,518.473,519.007,right,0.519,,519.007,519.357,right,0.333,,16,0,46,519.357,520.356,,,,,,1_AB,L5_T1P_T2P,5,1,1,5,10,4,5,15,dolphin,Did you see the dolphin,0.12,0,resources/,pics/banjo.jpg,pics/shipinabottle.jpg,pics/laptop01a.jpg,pics/onion.jpg,pics/dolphin01.jpg,pics/sink.jpg,pics/seaturtle.jpg,pics/butterfly.jpg,pics/hen.jpg,pics/stapler10.jpg,pics/proboscismonkey.jpg,pics/starfish01.jpg,pics/salmon.jpg,pics/spiderweb.jpg,pics/cymbal.jpg,blankImage,blankImage,dolphin01,49,0.118,0.116,0.117,,,,,,,,,,,,,,,,,,,,,,,,,,,,,,,,,,,,,,0,22,22,48,1,,,,,,,,,,,,,,,,,,,,,,,,,,,,,,,,,,,,,,,,,,,,,,,,,,,,,,,
,,,,,60b2785e793387fa22524fce,6682b41eeb79ab8215dff63d,6682cce3aa44eb333efbac11,27,female,english,2024-07-01_16h37.00.570,ABmemTask3,2023.2.3,Win32,60.0240096,,,,,,,,,,,,,,,,,,,,,,,,,,,,,,,520.357,521.356,521.357,7,521.856,522.907,0.003,523.023,0.115,0.117,0.117,0.116,0.116,0.117,0.116,0.118,0.116,,,523.023,524.291,right,1.254,,524.291,524.59,right,0.283,,18,0,48,524.59,525.589,,,,,,1_AB,L1_T1P_T2P,1,1,1,4,5,3,5,10,chair,Did you see the chair,0.12,0,resources/,pics/zebra.jpg,pics/floortile02.jpg,pics/cork02.jpg,pics/chair.jpg,pics/stapler07.jpg,pics/sealion.jpg,pics/shovel01.jpg,pics/piggybank.jpg,pics/candleholder01.jpg,pics/laptop01a.jpg,blankImage,blankImage,blankImage,blankImage,blankImage,blankImage,blankImage,chair,3,,,,,,,,,,,,,,,,,,,,,,,,,,,,,,,,,,,,,,,,,0,23,23,2,1,,,,,,,,,,,,,,,,,,,,,,,,,,,,,,,,,,,,,,,,,,,,,,,,,,,,,,,
,,,,,60b2785e793387fa22524fce,6682b41eeb79ab8215dff63d,6682cce3aa44eb333efbac11,27,female,english,2024-07-01_16h37.00.570,ABmemTask3,2023.2.3,Win32,60.0240096,,,,,,,,,,,,,,,,,,,,,,,,,,,,,,,525.59,526.59,526.59,7,527.09,528.139,0.001,528.256,0.115,0.117,0.117,0.117,0.116,0.118,0.116,0.116,0.116,,,528.256,528.723,right,0.449,,528.723,529.107,right,0.365,,16,0,50,529.107,530.106,,,,,,1_AB,L1_T1P_T2A,1,1,0,6,7,5,3,10,Electric toothbrush,Did you see the Electric toothbrush,0.12,0,resources/,pics/football.jpg,pics/sailboat.jpg,pics/cymbal.jpg,pics/hen.jpg,pics/pencil01.jpg,pics/electrictoothbrush01c.jpg,pics/bowlingpin.jpg,pics/wheel01.jpg,pics/birdhouse.jpg,pics/leaf02a.jpg,blankImage,blankImage,blankImage,blankImage,blankImage,blankImage,blankImage,electrictoothbrush01c,34,,,,,,,,,,,,,,,,,,,,,,,,,,,,,,,,,,,,,,,,,0,24,24,33,1,,,,,,,,,,,,,,,,,,,,,,,,,,,,,,,,,,,,,,,,,,,,,,,,,,,,,,,
,,,,,60b2785e793387fa22524fce,6682b41eeb79ab8215dff63d,6682cce3aa44eb333efbac11,27,female,english,2024-07-01_16h37.00.570,ABmemTask3,2023.2.3,Win32,60.0240096,,,,,,,,,,,,,,,,,,,,,,,,,,,,,,,530.107,531.106,531.106,7,531.606,532.89,0.002,533.006,0.115,0.117,0.117,0.116,0.117,0.117,0.116,0.116,0.117,0.13,0.104,533.006,533.423,right,0.4,,533.423,533.706,right,0.273,,18,0,52,533.706,534.706,,,,,,1_AB,L1_T1P_T2P,1,1,1,6,7,5,5,12,jeep,Did you see the jeep,0.12,0,resources/,pics/sandbarshark.jpg,pics/laptop01a.jpg,pics/peach01.jpg,pics/binoculars01b.jpg,pics/giraffe.jpg,pics/jeep.jpg,pics/stapler03b.jpg,pics/fanblades.jpg,pics/cannon.jpg,pics/starfish01.jpg,pics/piggybank.jpg,pics/noparkingsign.jpg,blankImage,blankImage,blankImage,blankImage,blankImage,jeep,2,,,,,,,,,,,,,,,,,,,,,,,,,,,,,,,,,,,,,,,,,0,25,25,1,1,,,,,,,,,,,,,,,,,,,,,,,,,,,,,,,,,,,,,,,,,,,,,,,,,,,,,,,
,,,,,60b2785e793387fa22524fce,6682b41eeb79ab8215dff63d,6682cce3aa44eb333efbac11,27,female,english,2024-07-01_16h37.00.570,ABmemTask3,2023.2.3,Win32,60.0240096,,,,,,,,,,,,,,,,,,,,,,,,,,,,,,,534.707,535.705,535.705,7,536.206,537.489,0.003,537.605,0.115,0.116,0.117,0.116,0.116,0.121,0.115,0.117,0.114,0.116,0.117,537.606,538.64,left,1.017,,538.64,538.872,right,0.222,,20,0,54,538.872,539.872,,,,,,1_AB,L5_T1A_T2P,5,0,1,4,9,3,3,12,rooster,Did you see the rooster,0.12,0,resources/,pics/table01.jpg,pics/icecube01.jpg,pics/dustpan.jpg,pics/lock03a.jpg,pics/sailboat.jpg,pics/salmon.jpg,pics/banjo.jpg,pics/zebra.jpg,pics/stapler09.jpg,pics/peach01.jpg,pics/chainsaw.jpg,pics/football.jpg,blankImage,blankImage,blankImage,blankImage,blankImage,rooster,55,,,,,,,,,,,,,,,,,,,,,,,,,,,,,,,,,,,,,,,,,0,26,26,54,1,,,,,,,,,,,,,,,,,,,,,,,,,,,,,,,,,,,,,,,,,,,,,,,,,,,,,,,
,,,,,60b2785e793387fa22524fce,6682b41eeb79ab8215dff63d,6682cce3aa44eb333efbac11,27,female,english,2024-07-01_16h37.00.570,ABmemTask3,2023.2.3,Win32,60.0240096,,,,,,,,,,,,,,,,,,,,,,,,,,,,,,,539.873,540.872,540.872,7,541.372,542.539,0.002,542.655,0.115,0.117,0.116,0.118,0.116,0.116,0.117,0.118,0.116,0.116,,542.655,543.055,right,0.382,,543.056,543.305,right,0.234,,22,0,56,543.305,544.306,,,,,,1_AB,L1_T1P_T2P,1,1,1,7,8,6,3,11,sock,Did you see the sock,0.12,0,resources/,pics/hen.jpg,pics/christmaslights.jpg,pics/salmon.jpg,pics/sealion.jpg,pics/seaturtle.jpg,pics/giraffe.jpg,pics/athleticsock.jpg,pics/stapler01.jpg,pics/shovel01.jpg,pics/leaf02a.jpg,pics/backpack01a.jpg,blankImage,blankImage,blankImage,blankImage,blankImage,blankImage,athleticsock,11,,,,,,,,,,,,,,,,,,,,,,,,,,,,,,,,,,,,,,,,,0,27,27,10,1,,,,,,,,,,,,,,,,,,,,,,,,,,,,,,,,,,,,,,,,,,,,,,,,,,,,,,,
,,,,,60b2785e793387fa22524fce,6682b41eeb79ab8215dff63d,6682cce3aa44eb333efbac11,27,female,english,2024-07-01_16h37.00.570,ABmemTask3,2023.2.3,Win32,60.0240096,,,,,,,,,,,,,,,,,,,,,,,,,,,,,,,544.307,545.305,545.305,7,545.805,546.74,0.003,546.855,0.116,0.115,0.116,0.118,0.117,0.116,0.117,0.117,,,,546.855,547.555,right,0.682,,547.555,547.788,left,0.217,,22,0,58,547.789,548.788,,,,,,1_AB,L1_T1P_T2P,1,1,1,5,6,4,3,9,Ant,Did you see the Ant,0.12,0,resources/,pics/kangaroo.jpg,pics/giraffe.jpg,pics/footballhelmet.jpg,pics/onion.jpg,pics/ant.jpg,pics/stapler04b.jpg,pics/banjo.jpg,pics/zebra.jpg,pics/dromedary.jpg,blankImage,blankImage,blankImage,blankImage,blankImage,blankImage,blankImage,blankImage,ant,15,,,,,,,,,,,,,,,,,,,,,,,,,,,,,,,,,,,,,,,,,0,28,28,14,1,,,,,,,,,,,,,,,,,,,,,,,,,,,,,,,,,,,,,,,,,,,,,,,,,,,,,,,
,,,,,60b2785e793387fa22524fce,6682b41eeb79ab8215dff63d,6682cce3aa44eb333efbac11,27,female,english,2024-07-01_16h37.00.570,ABmemTask3,2023.2.3,Win32,60.0240096,,,,,,,,,,,,,,,,,,,,,,,,,,,,,,,548.789,549.788,549.788,7,550.289,552.038,0.001,552.155,0.116,0.116,0.116,0.117,0.117,0.117,0.116,0.118,0.116,0.117,0.116,552.155,552.589,right,0.413,,552.589,552.839,right,0.235,,20,0,60,552.839,553.838,,,,,,1_AB,L5_T1P_T2A,5,1,0,7,12,6,4,16,boat,Did you see the boat,0.12,0,resources/,pics/butterfly.jpg,pics/onion.jpg,pics/hose.jpg,pics/ball02.jpg,pics/ashtray01.jpg,pics/bowtie.jpg,pics/boat.jpg,pics/seaturtle.jpg,pics/blender.jpg,pics/zebra.jpg,pics/pictureframe04.jpg,pics/shovel01.jpg,pics/spoon01.jpg,pics/peanut01.jpg,pics/nutcracker01.jpg,pics/aquarium.jpg,blankImage,boat,60,0.116,0.117,0.117,,,,,,,,,,,,,,,,,,,,,,,,,,,,,,,,,,,,,,0,29,29,59,1,0.117,,,,,,,,,,,,,,,,,,,,,,,,,,,,,,,,,,,,,,,,,,,,,,,,,,,,,,
,,,,,60b2785e793387fa22524fce,6682b41eeb79ab8215dff63d,6682cce3aa44eb333efbac11,27,female,english,2024-07-01_16h37.00.570,ABmemTask3,2023.2.3,Win32,60.0240096,,,,,,,,,,,,,,,,,,,,,,,,,,,,,,,553.838,554.838,554.838,7,555.337,556.622,0.003,556.738,0.114,0.118,0.117,0.116,0.116,0.118,0.116,0.117,0.116,0.117,0.117,556.739,557.771,left,1.016,,557.771,558.488,right,0.704,,20,0,62,558.488,559.488,,,,,,1_AB,L1_T1P_T2P,1,1,1,7,8,6,4,12,Turnstile,Did you see the Turnstile,0.12,0,resources/,pics/golfball.jpg,pics/hose.jpg,pics/siamesecat.jpg,pics/binoculars01b.jpg,pics/hen.jpg,pics/candleholder01.jpg,pics/turnstile.jpg,pics/stapler03a.jpg,pics/giraffe.jpg,pics/pictureframe04.jpg,pics/sandbarshark.jpg,pics/spoon01.jpg,blankImage,blankImage,blankImage,blankImage,blankImage,turnstile,13,,,,,,,,,,,,,,,,,,,,,,,,,,,,,,,,,,,,,,,,,0,30,30,12,1,,,,,,,,,,,,,,,,,,,,,,,,,,,,,,,,,,,,,,,,,,,,,,,,,,,,,,,
,,,,,60b2785e793387fa22524fce,6682b41eeb79ab8215dff63d,6682cce3aa44eb333efbac11,27,female,english,2024-07-01_16h37.00.570,ABmemTask3,2023.2.3,Win32,60.0240096,,,,,,,,,,,,,,,,,,,,,,,,,,,,,,,559.488,560.488,560.488,7,560.989,562.505,0.001,562.62,0.115,0.116,0.118,0.116,0.117,0.116,0.116,0.117,0.118,0.116,0.117,562.62,563.271,left,0.631,,563.271,563.787,left,0.498,,20,0,64,563.787,564.788,,,,,,1_AB,L5_T1A_T2P,5,0,1,4,9,3,5,14,lemon,Did you see the lemon,0.12,0,resources/,pics/seaturtle.jpg,pics/lightswitch01.jpg,pics/candle01.jpg,pics/cannon.jpg,pics/seagull.jpg,pics/spoon01.jpg,pics/spiderweb.jpg,pics/sewingmachine01a.jpg,pics/stapler05.jpg,pics/binoculars01b.jpg,pics/zebra.jpg,pics/sealion.jpg,pics/shovel01.jpg,pics/wheel01.jpg,blankImage,blankImage,blankImage,lemon02,56,0.117,0.117,,,,,,,,,,,,,,,,,,,,,,,,,,,,,,,,,,,,,,,0,31,31,55,1,,,,,,,,,,,,,,,,,,,,,,,,,,,,,,,,,,,,,,,,,,,,,,,,,,,,,,,
,,,,,60b2785e793387fa22524fce,6682b41eeb79ab8215dff63d,6682cce3aa44eb333efbac11,27,female,english,2024-07-01_16h37.00.570,ABmemTask3,2023.2.3,Win32,60.0240096,,,,,,,,,,,,,,,,,,,,,,,,,,,,,,,564.788,565.795,565.795,7,566.287,568.037,0.002,568.154,0.115,0.12,0.113,0.118,0.116,0.118,0.116,0.117,0.116,0.118,0.115,568.154,568.521,right,0.344,,568.521,568.753,right,0.221,,22,0,66,568.753,569.754,,,,,,1_AB,L5_T1P_T2P,5,1,1,6,11,5,5,16,cruise ship,Did you see the cruise ship,0.12,0,resources/,pics/seaturtle.jpg,pics/ashtray01.jpg,pics/pencil01.jpg,pics/fanblades.jpg,pics/triangle.jpg,pics/cruiseship.jpg,pics/wheel01.jpg,pics/dustpan.jpg,pics/starfish01.jpg,pics/banjo.jpg,pics/stapler12.jpg,pics/match.jpg,pics/cannon.jpg,pics/sandbarshark.jpg,pics/sink.jpg,pics/zebra.jpg,blankImage,cruiseship,51,0.116,0.118,0.116,,,,,,,,,,,,,,,,,,,,,,,,,,,,,,,,,,,,,,0,32,32,50,1,0.117,,,,,,,,,,,,,,,,,,,,,,,,,,,,,,,,,,,,,,,,,,,,,,,,,,,,,,
,,,,,60b2785e793387fa22524fce,6682b41eeb79ab8215dff63d,6682cce3aa44eb333efbac11,27,female,english,2024-07-01_16h37.00.570,ABmemTask3,2023.2.3,Win32,60.0240096,,,,,,,,,,,,,,,,,,,,,,,,,,,,,,,569.754,570.754,570.754,7,571.253,572.421,0.002,572.537,0.116,0.117,0.116,0.12,0.115,0.115,0.116,0.118,0.117,0.116,,572.537,573.337,left,0.78,,573.337,573.654,left,0.3,,24,0,68,573.654,574.653,,,,,,1_AB,L1_T1A_T2A,1,0,0,7,8,6,3,11,Poker chips,Did you see the Poker chips,0.12,0,resources/,pics/candle01.jpg,pics/proboscismonkey.jpg,pics/fanblades.jpg,pics/dromedary.jpg,pics/aquarium.jpg,pics/salmon.jpg,pics/hose.jpg,pics/kangaroo.jpg,pics/noparkingsign.jpg,pics/carrot01.jpg,pics/leaf02a.jpg,blankImage,blankImage,blankImage,blankImage,blankImage,blankImage,pokerchips,41,,,,,,,,,,,,,,,,,,,,,,,,,,,,,,,,,,,,,,,,,0,33,33,40,1,,,,,,,,,,,,,,,,,,,,,,,,,,,,,,,,,,,,,,,,,,,,,,,,,,,,,,,
,,,,,60b2785e793387fa22524fce,6682b41eeb79ab8215dff63d,6682cce3aa44eb333efbac11,27,female,english,2024-07-01_16h37.00.570,ABmemTask3,2023.2.3,Win32,60.0240096,,,,,,,,,,,,,,,,,,,,,,,,,,,,,,,574.654,575.654,575.654,7,576.154,577.087,0.003,577.203,0.114,0.116,0.118,0.116,0.116,0.117,0.117,0.117,,,,577.204,578.003,right,0.784,,578.003,578.286,left,0.269,,26,0,70,578.287,579.287,,,,,,1_AB,L1_T1P_T2A,1,1,0,4,5,3,4,9,blueberry,Did you see the blueberry,0.12,0,resources/,pics/sealion.jpg,pics/piggybank.jpg,pics/sink.jpg,pics/blueberry01.jpg,pics/onion.jpg,pics/sailboat.jpg,pics/seaturtle.jpg,pics/hen.jpg,pics/fanblades.jpg,blankImage,blankImage,blankImage,blankImage,blankImage,blankImage,blankImage,blankImage,blueberry01,35,,,,,,,,,,,,,,,,,,,,,,,,,,,,,,,,,,,,,,,,,0,34,34,34,1,,,,,,,,,,,,,,,,,,,,,,,,,,,,,,,,,,,,,,,,,,,,,,,,,,,,,,,
,,,,,60b2785e793387fa22524fce,6682b41eeb79ab8215dff63d,6682cce3aa44eb333efbac11,27,female,english,2024-07-01_16h37.00.570,ABmemTask3,2023.2.3,Win32,60.0240096,,,,,,,,,,,,,,,,,,,,,,,,,,,,,,,579.288,580.286,580.286,7,580.787,581.72,0.001,581.837,0.116,0.117,0.117,0.117,0.116,0.116,0.116,0.117,,,,581.837,582.504,right,0.655,,582.504,582.786,left,0.267,,26,0,72,582.787,583.786,,,,,,1_AB,L1_T1P_T2P,1,1,1,5,6,4,3,9,cabbage,Did you see the cabbage,0.12,0,resources/,pics/match.jpg,pics/icecube01.jpg,pics/noparkingsign.jpg,pics/christmaslights.jpg,pics/cabbage.jpg,pics/stapler03a.jpg,pics/carrot01.jpg,pics/dustpan.jpg,pics/cannon.jpg,blankImage,blankImage,blankImage,blankImage,blankImage,blankImage,blankImage,blankImage,cabbage,14,,,,,,,,,,,,,,,,,,,,,,,,,,,,,,,,,,,,,,,,,0,35,35,13,1,,,,,,,,,,,,,,,,,,,,,,,,,,,,,,,,,,,,,,,,,,,,,,,,,,,,,,,
,,,,,60b2785e793387fa22524fce,6682b41eeb79ab8215dff63d,6682cce3aa44eb333efbac11,27,female,english,2024-07-01_16h37.00.570,ABmemTask3,2023.2.3,Win32,60.0240096,,,,,,,,,,,,,,,,,,,,,,,,,,,,,,,583.788,584.787,584.787,7,585.286,586.337,0.002,586.453,0.116,0.116,0.116,0.117,0.117,0.117,0.116,0.117,0.117,,,586.453,587.37,right,0.9,,587.37,587.586,left,0.208,,28,0,74,587.586,588.586,,,,,,1_AB,L1_T1P_T2A,1,1,0,6,7,5,3,10,Duct tape,Did you see the Duct tape,0.12,0,resources/,pics/butterfly.jpg,pics/noparkingsign.jpg,pics/pictureframe04.jpg,pics/cork02.jpg,pics/fanblades.jpg,pics/ducttape.jpg,pics/icecube01.jpg,pics/siamesecat.jpg,pics/sink.jpg,pics/sandbarshark.jpg,blankImage,blankImage,blankImage,blankImage,blankImage,blankImage,blankImage,ducttape,36,,,,,,,,,,,,,,,,,,,,,,,,,,,,,,,,,,,,,,,,,0,36,36,35,1,,,,,,,,,,,,,,,,,,,,,,,,,,,,,,,,,,,,,,,,,,,,,,,,,,,,,,,
,,,,,60b2785e793387fa22524fce,6682b41eeb79ab8215dff63d,6682cce3aa44eb333efbac11,27,female,english,2024-07-01_16h37.00.570,ABmemTask3,2023.2.3,Win32,60.0240096,,,,,,,,,,,,,,,,,,,,,,,,,,,,,,,588.587,589.586,589.586,7,590.086,591.952,0.002,592.069,0.115,0.116,0.118,0.116,0.117,0.116,0.117,0.117,0.116,0.117,0.116,592.069,592.919,left,0.83,,592.919,593.869,left,0.935,,30,0,76,593.869,594.869,,,,,,1_AB,L5_T1A_T2A,5,0,0,7,12,6,5,17,Bib,Did you see the Bib,0.12,0,resources/,pics/hammerheadshark.jpg,pics/wheel01.jpg,pics/binder03b.jpg,pics/hairdryer02a.jpg,pics/christmaslights.jpg,pics/sandbarshark.jpg,pics/binoculars01b.jpg,pics/piggybank.jpg,pics/aquarium.jpg,pics/candleholder01.jpg,pics/sink.jpg,pics/calendar.jpg,pics/birdhouse.jpg,pics/bowtie.jpg,pics/onion.jpg,pics/golfball.jpg,pics/sailboat.jpg,bib,62,0.117,0.116,0.116,,,,,,,,,,,,,,,,,,,,,,,,,,,,,,,,,,,,,,0,37,37,61,1,0.118,0.115,,,,,,,,,,,,,,,,,,,,,,,,,,,,,,,,,,,,,,,,,,,,,,,,,,,,,
,,,,,60b2785e793387fa22524fce,6682b41eeb79ab8215dff63d,6682cce3aa44eb333efbac11,27,female,english,2024-07-01_16h37.00.570,ABmemTask3,2023.2.3,Win32,60.0240096,,,,,,,,,,,,,,,,,,,,,,,,,,,,,,,594.87,595.869,595.869,7,596.369,597.302,0.001,597.418,0.116,0.117,0.116,0.117,0.123,0.11,0.117,0.116,,,,597.418,598.136,right,0.698,,598.136,598.402,right,0.252,,32,0,78,598.402,599.401,,,,,,1_AB,L1_T1P_T2P,1,1,1,4,5,3,4,9,antenna,Did you see the antenna,0.12,0,resources/,pics/microscope.jpg,pics/spoon01.jpg,pics/dromedary.jpg,pics/antenna.jpg,pics/stapler03.jpg,pics/hen.jpg,pics/leaf02a.jpg,pics/candle01.jpg,pics/sealion.jpg,blankImage,blankImage,blankImage,blankImage,blankImage,blankImage,blankImage,blankImage,antenna,9,,,,,,,,,,,,,,,,,,,,,,,,,,,,,,,,,,,,,,,,,0,38,38,8,1,,,,,,,,,,,,,,,,,,,,,,,,,,,,,,,,,,,,,,,,,,,,,,,,,,,,,,,
,,,,,60b2785e793387fa22524fce,6682b41eeb79ab8215dff63d,6682cce3aa44eb333efbac11,27,female,english,2024-07-01_16h37.00.570,ABmemTask3,2023.2.3,Win32,60.0240096,,,,,,,,,,,,,,,,,,,,,,,,,,,,,,,599.403,600.401,600.401,7,600.902,602.069,0.002,602.185,0.115,0.116,0.117,0.117,0.117,0.116,0.116,0.118,0.116,0.117,,602.185,602.802,right,0.597,,602.802,603.152,right,0.332,,30,0,80,603.152,604.153,,,,,,1_AB,L1_T1P_T2A,1,1,0,7,8,6,3,11,garlic,Did you see the garlic,0.12,0,resources/,pics/zebra.jpg,pics/banjo.jpg,pics/pencilsharpener02a.jpg,pics/football.jpg,pics/candle01.jpg,pics/footballhelmet.jpg,pics/garlic01a.jpg,pics/birdhouse.jpg,pics/peach01.jpg,pics/pictureframe04.jpg,pics/binder03b.jpg,blankImage,blankImage,blankImage,blankImage,blankImage,blankImage,garlic01a,33,,,,,,,,,,,,,,,,,,,,,,,,,,,,,,,,,,,,,,,,,0,39,39,32,1,,,,,,,,,,,,,,,,,,,,,,,,,,,,,,,,,,,,,,,,,,,,,,,,,,,,,,,
,,,,,60b2785e793387fa22524fce,6682b41eeb79ab8215dff63d,6682cce3aa44eb333efbac11,27,female,english,2024-07-01_16h37.00.570,ABmemTask3,2023.2.3,Win32,60.0240096,,,,,,,,,,,,,,,,,,,,,,,,,,,,,,,604.155,605.151,605.151,7,605.652,607.169,0.006,607.285,0.113,0.114,0.117,0.116,0.117,0.116,0.117,0.117,0.117,0.115,0.119,607.285,608.352,left,1.047,,608.352,608.568,right,0.2,,30,0,82,608.568,609.568,,,,,,1_AB,L5_T1P_T2P,5,1,1,4,9,3,5,14,pliers,Did you see the pliers,0.12,0,resources/,pics/calendar.jpg,pics/footballhelmet.jpg,pics/seaturtle.jpg,pics/pliers02b.jpg,pics/wheel01.jpg,pics/cannon.jpg,pics/proboscismonkey.jpg,pics/shovel01.jpg,pics/stapler06.jpg,pics/football.jpg,pics/hose.jpg,pics/dustpan.jpg,pics/spiderweb.jpg,pics/golfball.jpg,blankImage,blankImage,blankImage,pliers02b,48,0.115,0.117,,,,,,,,,,,,,,,,,,,,,,,,,,,,,,,,,,,,,,,0,40,40,47,1,,,,,,,,,,,,,,,,,,,,,,,,,,,,,,,,,,,,,,,,,,,,,,,,,,,,,,,
,,,,,60b2785e793387fa22524fce,6682b41eeb79ab8215dff63d,6682cce3aa44eb333efbac11,27,female,english,2024-07-01_16h37.00.570,ABmemTask3,2023.2.3,Win32,60.0240096,,,,,,,,,,,,,,,,,,,,,,,,,,,,,,,609.568,610.568,610.568,7,611.068,612.586,0.002,612.701,0.115,0.116,0.118,0.116,0.116,0.118,0.116,0.117,0.116,0.117,0.116,612.701,613.317,right,0.597,,613.317,613.584,left,0.249,,32,0,84,613.584,614.584,,,,,,1_AB,L5_T1P_T2A,5,1,0,6,11,5,3,14,Kiwi,Did you see the Kiwi,0.12,0,resources/,pics/candleholder01.jpg,pics/kangaroo.jpg,pics/banjo.jpg,pics/binoculars01b.jpg,pics/microscope.jpg,pics/kiwi03.jpg,pics/bowtie.jpg,pics/peanut01.jpg,pics/backpack01a.jpg,pics/zebra.jpg,pics/toiletpaper01a.jpg,pics/hen.jpg,pics/spoon01.jpg,pics/calendar.jpg,blankImage,blankImage,blankImage,kiwi03,59,0.117,0.118,,,,,,,,,,,,,,,,,,,,,,,,,,,,,,,,,,,,,,,0,41,41,58,1,,,,,,,,,,,,,,,,,,,,,,,,,,,,,,,,,,,,,,,,,,,,,,,,,,,,,,,
,,,,,60b2785e793387fa22524fce,6682b41eeb79ab8215dff63d,6682cce3aa44eb333efbac11,27,female,english,2024-07-01_16h37.00.570,ABmemTask3,2023.2.3,Win32,60.0240096,,,,,,,,,,,,,,,,,,,,,,,,,,,,,,,614.585,615.584,615.585,7,616.085,617.367,0.001,617.484,0.115,0.117,0.116,0.117,0.117,0.116,0.117,0.117,0.116,0.117,0.117,617.484,618.034,right,0.532,,618.035,618.251,right,0.204,,34,0,86,618.251,619.251,,,,,,1_AB,L5_T1P_T2P,5,1,1,4,9,3,3,12,Sheep,Did you see the Sheep,0.12,0,resources/,pics/icecube01.jpg,pics/cymbal.jpg,pics/wheel01.jpg,pics/sheep.jpg,pics/starfish01.jpg,pics/safetypin.jpg,pics/siamesecat.jpg,pics/lock03a.jpg,pics/stapler01.jpg,pics/sink.jpg,pics/fanblades.jpg,pics/bowlingpin.jpg,blankImage,blankImage,blankImage,blankImage,blankImage,sheep,52,,,,,,,,,,,,,,,,,,,,,,,,,,,,,,,,,,,,,,,,,0,42,42,51,1,,,,,,,,,,,,,,,,,,,,,,,,,,,,,,,,,,,,,,,,,,,,,,,,,,,,,,,
,,,,,60b2785e793387fa22524fce,6682b41eeb79ab8215dff63d,6682cce3aa44eb333efbac11,27,female,english,2024-07-01_16h37.00.570,ABmemTask3,2023.2.3,Win32,60.0240096,,,,,,,,,,,,,,,,,,,,,,,,,,,,,,,619.251,620.251,620.251,7,620.751,622.384,0.002,622.5,0.116,0.117,0.116,0.117,0.116,0.117,0.117,0.116,0.117,0.117,0.116,622.5,622.867,right,0.349,,622.867,623.1,right,0.215,,36,0,88,623.1,624.1,,,,,,1_AB,L5_T1P_T2P,5,1,1,6,11,5,4,15,toast,Did you see the toast,0.12,0,resources/,pics/piggybank.jpg,pics/leaf02a.jpg,pics/carrot01.jpg,pics/birdhouse.jpg,pics/bowlingpin.jpg,pics/toast.jpg,pics/spiderweb.jpg,pics/cork02.jpg,pics/sink.jpg,pics/nutcracker01.jpg,pics/stapler02.jpg,pics/ashtray01.jpg,pics/fanblades.jpg,pics/pencil01.jpg,pics/lightswitch01.jpg,blankImage,blankImage,toast,46,0.117,0.117,0.116,,,,,,,,,,,,,,,,,,,,,,,,,,,,,,,,,,,,,,0,43,43,45,1,,,,,,,,,,,,,,,,,,,,,,,,,,,,,,,,,,,,,,,,,,,,,,,,,,,,,,,
,,,,,60b2785e793387fa22524fce,6682b41eeb79ab8215dff63d,6682cce3aa44eb333efbac11,27,female,english,2024-07-01_16h37.00.570,ABmemTask3,2023.2.3,Win32,60.0240096,,,,,,,,,,,,,,,,,,,,,,,,,,,,,,,624.101,625.101,625.101,7,625.601,626.651,0.001,626.766,0.116,0.117,0.116,0.117,0.117,0.116,0.116,0.118,0.116,,,626.767,627.4,right,0.62,,627.4,627.634,right,0.217,,38,0,90,627.634,628.633,,,,,,1_AB,L1_T1P_T2P,1,1,1,4,5,3,5,10,vacuum,Did you see the vacuum,0.12,0,resources/,pics/birdhouse.jpg,pics/floortile02.jpg,pics/toiletpaper01a.jpg,pics/vacuumcleaner01.jpg,pics/stapler02.jpg,pics/spoon01.jpg,pics/banjo.jpg,pics/binder03b.jpg,pics/leaf02a.jpg,pics/aquarium.jpg,blankImage,blankImage,blankImage,blankImage,blankImage,blankImage,blankImage,vacuumcleaner01,5,,,,,,,,,,,,,,,,,,,,,,,,,,,,,,,,,,,,,,,,,0,44,44,4,1,,,,,,,,,,,,,,,,,,,,,,,,,,,,,,,,,,,,,,,,,,,,,,,,,,,,,,,
,,,,,60b2785e793387fa22524fce,6682b41eeb79ab8215dff63d,6682cce3aa44eb333efbac11,27,female,english,2024-07-01_16h37.00.570,ABmemTask3,2023.2.3,Win32,60.0240096,,,,,,,,,,,,,,,,,,,,,,,,,,,,,,,628.634,629.633,629.633,7,630.133,631.067,0.002,631.183,0.116,0.116,0.117,0.117,0.116,0.117,0.117,0.116,,,,631.183,631.75,right,0.554,,631.75,632.067,left,0.303,,38,0,92,632.067,633.067,,,,,,1_AB,L1_T1P_T2P,1,1,1,5,6,4,3,9,paint brush,Did you see the paint brush,0.12,0,resources/,pics/nutcracker01.jpg,pics/piggybank.jpg,pics/spiderweb.jpg,pics/table01.jpg,pics/paintbrush01.jpg,pics/stapler09.jpg,pics/hose.jpg,pics/cannon.jpg,pics/mummy.jpg,blankImage,blankImage,blankImage,blankImage,blankImage,blankImage,blankImage,blankImage,paintbrush01,20,,,,,,,,,,,,,,,,,,,,,,,,,,,,,,,,,,,,,,,,,0,45,45,19,1,,,,,,,,,,,,,,,,,,,,,,,,,,,,,,,,,,,,,,,,,,,,,,,,,,,,,,,
,,,,,60b2785e793387fa22524fce,6682b41eeb79ab8215dff63d,6682cce3aa44eb333efbac11,27,female,english,2024-07-01_16h37.00.570,ABmemTask3,2023.2.3,Win32,60.0240096,,,,,,,,,,,,,,,,,,,,,,,,,,,,,,,633.068,634.066,634.066,7,634.567,635.966,0.003,636.083,0.113,0.118,0.115,0.118,0.116,0.117,0.117,0.116,0.117,0.117,0.116,636.083,636.532,right,0.433,,636.532,636.783,right,0.235,,40,0,94,636.783,637.783,,,,,,1_AB,L1_T1P_T2P,1,1,1,7,8,6,5,13,Totem Pole,Did you see the Totem Pole,0.12,0,resources/,pics/laptop01a.jpg,pics/carrot01.jpg,pics/wheel01.jpg,pics/icecube01.jpg,pics/ashtray01.jpg,pics/lock03a.jpg,pics/totempole.jpg,pics/stapler08.jpg,pics/golfball.jpg,pics/pencil01.jpg,pics/banjo.jpg,pics/sandbarshark.jpg,pics/shipinabottle.jpg,blankImage,blankImage,blankImage,blankImage,totempole,22,0.117,,,,,,,,,,,,,,,,,,,,,,,,,,,,,,,,,,,,,,,,0,46,46,21,1,,,,,,,,,,,,,,,,,,,,,,,,,,,,,,,,,,,,,,,,,,,,,,,,,,,,,,,
,,,,,60b2785e793387fa22524fce,6682b41eeb79ab8215dff63d,6682cce3aa44eb333efbac11,27,female,english,2024-07-01_16h37.00.570,ABmemTask3,2023.2.3,Win32,60.0240096,,,,,,,,,,,,,,,,,,,,,,,,,,,,,,,637.783,638.784,638.784,7,639.283,640.566,0.006,640.682,0.113,0.115,0.116,0.118,0.117,0.115,0.119,0.114,0.117,0.117,0.116,640.682,641.25,right,0.547,,641.25,641.483,left,0.219,,40,0,96,641.483,642.482,,,,,,1_AB,L1_T1P_T2P,1,1,1,7,8,6,4,12,hammer,Did you see the hammer,0.12,0,resources/,pics/microscope.jpg,pics/blender.jpg,pics/dustpan.jpg,pics/snowshoe.jpg,pics/mummy.jpg,pics/bowtie.jpg,pics/hammer01.jpg,pics/stapler04b.jpg,pics/seaturtle.jpg,pics/candle01.jpg,pics/necklace.jpg,pics/cannon.jpg,blankImage,blankImage,blankImage,blankImage,blankImage,hammer01,21,,,,,,,,,,,,,,,,,,,,,,,,,,,,,,,,,,,,,,,,,0,47,47,20,1,,,,,,,,,,,,,,,,,,,,,,,,,,,,,,,,,,,,,,,,,,,,,,,,,,,,,,,
,,,,,60b2785e793387fa22524fce,6682b41eeb79ab8215dff63d,6682cce3aa44eb333efbac11,27,female,english,2024-07-01_16h37.00.570,ABmemTask3,2023.2.3,Win32,60.0240096,,,,,,,,,,,,,,,,,,,,,,,,,,,,,,,642.483,643.483,643.483,7,643.983,645.616,0.002,645.732,0.115,0.116,0.118,0.115,0.117,0.117,0.116,0.117,0.116,0.117,0.117,645.732,646.449,left,0.703,,646.45,646.932,left,0.468,,40,0,98,646.932,647.932,,,,,,1_AB,L5_T1A_T2P,5,0,1,7,12,6,3,15,scissors,Did you see the scissors,0.12,0,resources/,pics/cannon.jpg,pics/mummy.jpg,pics/shovel01.jpg,pics/christmaslights.jpg,pics/snowshoe.jpg,pics/candle01.jpg,pics/bowtie.jpg,pics/giraffe.jpg,pics/carrot01.jpg,pics/spoon01.jpg,pics/seaturtle.jpg,pics/stapler10.jpg,pics/footballhelmet.jpg,pics/onion.jpg,pics/wheel01.jpg,blankImage,blankImage,scissors01,57,0.116,0.116,0.117,,,,,,,,,,,,,,,,,,,,,,,,,,,,,,,,,,,,,,0,48,48,56,1,,,,,,,,,,,,,,,,,,,,,,,,,,,,,,,,,,,,,,,,,,,,,,,,,,,,,,,
,,,,,60b2785e793387fa22524fce,6682b41eeb79ab8215dff63d,6682cce3aa44eb333efbac11,27,female,english,2024-07-01_16h37.00.570,ABmemTask3,2023.2.3,Win32,60.0240096,,,,,,,,,,,,,,,,,,,,,,,,,,,,,,,647.933,648.932,648.932,7,649.432,650.483,0.002,650.599,0.115,0.116,0.118,0.117,0.116,0.117,0.116,0.117,0.117,,,650.599,651.182,left,0.57,,651.182,651.449,left,0.252,,40,0,100,651.449,652.449,,,,,,1_AB,L1_T1A_T2P,1,0,1,5,6,4,4,10,button,Did you see the button,0.12,0,resources/,pics/pencil01.jpg,pics/necklace.jpg,pics/sink.jpg,pics/noparkingsign.jpg,pics/banjo.jpg,pics/stapler03b.jpg,pics/candle01.jpg,pics/icecube01.jpg,pics/shovel01.jpg,pics/pencilsharpener02a.jpg,blankImage,blankImage,blankImage,blankImage,blankImage,blankImage,blankImage,button01,25,,,,,,,,,,,,,,,,,,,,,,,,,,,,,,,,,,,,,,,,,0,49,49,24,1,,,,,,,,,,,,,,,,,,,,,,,,,,,,,,,,,,,,,,,,,,,,,,,,,,,,,,,
,,,,,60b2785e793387fa22524fce,6682b41eeb79ab8215dff63d,6682cce3aa44eb333efbac11,27,female,english,2024-07-01_16h37.00.570,ABmemTask3,2023.2.3,Win32,60.0240096,,,,,,,,,,,,,,,,,,,,,,,,,,,,,,,652.449,653.448,653.448,7,653.949,654.882,0.001,654.998,0.116,0.117,0.115,0.117,0.117,0.118,0.116,0.117,,,,654.998,655.965,right,0.95,,655.965,656.215,right,0.235,,34,0,102,656.216,657.215,,,,,,1_AB,L1_T1A_T2A,1,0,0,4,5,3,4,9,License Plate,Did you see the License Plate,0.12,0,resources/,pics/snowshoe.jpg,pics/kangaroo.jpg,pics/noparkingsign.jpg,pics/match.jpg,pics/hose.jpg,pics/blender.jpg,pics/ashtray01.jpg,pics/ball02.jpg,pics/sink.jpg,blankImage,blankImage,blankImage,blankImage,blankImage,blankImage,blankImage,blankImage,licenseplate,40,,,,,,,,,,,,,,,,,,,,,,,,,,,,,,,,,,,,,,,,,0,50,50,39,1,,,,,,,,,,,,,,,,,,,,,,,,,,,,,,,,,,,,,,,,,,,,,,,,,,,,,,,
,,,,,60b2785e793387fa22524fce,6682b41eeb79ab8215dff63d,6682cce3aa44eb333efbac11,27,female,english,2024-07-01_16h37.00.570,ABmemTask3,2023.2.3,Win32,60.0240096,,,,,,,,,,,,,,,,,,,,,,,,,,,,,,,657.216,658.215,658.215,7,658.714,660.248,0.002,660.365,0.132,0.118,0.116,0.117,0.116,0.117,0.117,0.117,0.116,0.117,0.116,660.365,661.665,left,1.28,,661.665,661.981,left,0.301,,32,0,104,661.981,662.981,,,,,,1_AB,L5_T1P_T2P,5,1,1,6,11,5,3,14,mail box,Did you see the mail box,0.12,0,resources/,pics/pictureframe04.jpg,pics/seaturtle.jpg,pics/blender.jpg,pics/carrot01.jpg,pics/nutcracker01.jpg,pics/mailbox02.jpg,pics/seagull.jpg,pics/sink.jpg,pics/siamesecat.jpg,pics/spiderweb.jpg,pics/stapler08.jpg,pics/safetypin.jpg,pics/candle01.jpg,pics/mummy.jpg,blankImage,blankImage,blankImage,mailbox02,43,0.117,0.117,,,,,,,,,,,,,,,,,,,,,,,,,,,,,,,,,,,,,,,0,51,51,42,1,,,,,,,,,,,,,,,,,,,,,,,,,,,,,,,,,,,,,,,,,,,,,,,,,,,,,,,
,,,,,60b2785e793387fa22524fce,6682b41eeb79ab8215dff63d,6682cce3aa44eb333efbac11,27,female,english,2024-07-01_16h37.00.570,ABmemTask3,2023.2.3,Win32,60.0240096,,,,,,,,,,,,,,,,,,,,,,,,,,,,,,,662.981,663.981,663.981,7,664.482,666.115,0.002,666.231,0.115,0.115,0.118,0.117,0.116,0.116,0.118,0.115,0.118,0.117,0.116,666.231,666.915,left,0.666,,666.915,667.098,right,0.174,,34,0,106,667.098,668.097,,,,,,1_AB,L5_T1A_T2P,5,0,1,5,10,4,5,15,scorpion,Did you see the scorpion,0.12,0,resources/,pics/pictureframe04.jpg,pics/binder03b.jpg,pics/pencil01.jpg,pics/leaf02a.jpg,pics/icecube01.jpg,pics/dromedary.jpg,pics/toiletpaper01a.jpg,pics/peanut01.jpg,pics/golfball.jpg,pics/stapler03.jpg,pics/carrot01.jpg,pics/peach01.jpg,pics/sealion.jpg,pics/football.jpg,pics/zebra.jpg,blankImage,blankImage,scorpion,54,0.116,0.118,0.116,,,,,,,,,,,,,,,,,,,,,,,,,,,,,,,,,,,,,,0,52,52,53,1,,,,,,,,,,,,,,,,,,,,,,,,,,,,,,,,,,,,,,,,,,,,,,,,,,,,,,,
,,,,,60b2785e793387fa22524fce,6682b41eeb79ab8215dff63d,6682cce3aa44eb333efbac11,27,female,english,2024-07-01_16h37.00.570,ABmemTask3,2023.2.3,Win32,60.0240096,,,,,,,,,,,,,,,,,,,,,,,,,,,,,,,668.098,669.098,669.098,7,669.598,670.765,0.005,670.881,0.112,0.116,0.118,0.116,0.117,0.116,0.117,0.116,0.116,0.117,,670.881,671.398,right,0.501,,671.398,671.665,right,0.249,,36,0,108,671.666,672.664,,,,,,1_AB,L1_T1P_T2P,1,1,1,7,8,6,3,11,Eiffel tower,Did you see the Eiffel tower,0.12,0,resources/,pics/seagull.jpg,pics/cymbal.jpg,pics/match.jpg,pics/binoculars01b.jpg,pics/ball02.jpg,pics/onion.jpg,pics/eiffeltower.jpg,pics/stapler11.jpg,pics/peach01.jpg,pics/sandbarshark.jpg,pics/boot02b.jpg,blankImage,blankImage,blankImage,blankImage,blankImage,blankImage,eiffeltower,1,,,,,,,,,,,,,,,,,,,,,,,,,,,,,,,,,,,,,,,,,0,53,53,0,1,,,,,,,,,,,,,,,,,,,,,,,,,,,,,,,,,,,,,,,,,,,,,,,,,,,,,,,
,,,,,60b2785e793387fa22524fce,6682b41eeb79ab8215dff63d,6682cce3aa44eb333efbac11,27,female,english,2024-07-01_16h37.00.570,ABmemTask3,2023.2.3,Win32,60.0240096,,,,,,,,,,,,,,,,,,,,,,,,,,,,,,,672.665,673.664,673.664,7,674.163,675.798,0.003,675.913,0.115,0.117,0.115,0.117,0.117,0.117,0.116,0.117,0.116,0.117,0.117,675.914,676.281,right,0.344,,676.281,676.53,right,0.232,,38,0,110,676.531,677.53,,,,,,1_AB,L5_T1P_T2P,5,1,1,5,10,4,5,15,ribbon,Did you see the ribbon,0.12,0,resources/,pics/giraffe.jpg,pics/boot02b.jpg,pics/cymbal.jpg,pics/leaf02a.jpg,pics/ribbon04.jpg,pics/lightswitch01.jpg,pics/necklace.jpg,pics/calendar.jpg,pics/kangaroo.jpg,pics/stapler12.jpg,pics/hose.jpg,pics/carrot01.jpg,pics/match.jpg,pics/sink.jpg,pics/candleholder01.jpg,blankImage,blankImage,ribbon04,53,0.116,0.117,0.117,,,,,,,,,,,,,,,,,,,,,,,,,,,,,,,,,,,,,,0,54,54,52,1,,,,,,,,,,,,,,,,,,,,,,,,,,,,,,,,,,,,,,,,,,,,,,,,,,,,,,,
,,,,,60b2785e793387fa22524fce,6682b41eeb79ab8215dff63d,6682cce3aa44eb333efbac11,27,female,english,2024-07-01_16h37.00.570,ABmemTask3,2023.2.3,Win32,60.0240096,,,,,,,,,,,,,,,,,,,,,,,,,,,,,,,677.531,678.53,678.53,7,679.031,680.548,0.001,680.664,0.116,0.116,0.117,0.116,0.116,0.117,0.117,0.116,0.117,0.118,0.115,680.665,681.28,right,0.595,,681.28,681.53,left,0.24,,38,0,112,681.531,682.53,,,,,,1_AB,L5_T1P_T2P,5,1,1,4,9,3,5,14,asparagus,Did you see the asparagus,0.12,0,resources/,pics/siamesecat.jpg,pics/starfish01.jpg,pics/aquarium.jpg,pics/asparagus.jpg,pics/salmon.jpg,pics/binoculars01b.jpg,pics/ball02.jpg,pics/calendar.jpg,pics/stapler10.jpg,pics/giraffe.jpg,pics/dromedary.jpg,pics/seaturtle.jpg,pics/sandbarshark.jpg,pics/shipinabottle.jpg,blankImage,blankImage,blankImage,asparagus,44,0.117,0.117,,,,,,,,,,,,,,,,,,,,,,,,,,,,,,,,,,,,,,,0,55,55,43,1,,,,,,,,,,,,,,,,,,,,,,,,,,,,,,,,,,,,,,,,,,,,,,,,,,,,,,,
,,,,,60b2785e793387fa22524fce,6682b41eeb79ab8215dff63d,6682cce3aa44eb333efbac11,27,female,english,2024-07-01_16h37.00.570,ABmemTask3,2023.2.3,Win32,60.0240096,,,,,,,,,,,,,,,,,,,,,,,,,,,,,,,682.531,683.531,683.531,7,684.03,685.081,0.001,685.196,0.116,0.117,0.117,0.117,0.116,0.117,0.116,0.117,0.117,,,685.196,685.664,right,0.449,,685.664,685.98,right,0.303,,40,0,114,685.98,686.979,,,,,,1_AB,L1_T1P_T2P,1,1,1,5,6,4,4,10,thermometer,Did you see the thermometer,0.12,0,resources/,pics/triangle.jpg,pics/shovel01.jpg,pics/mummy.jpg,pics/noparkingsign.jpg,pics/thermometer02b.jpg,pics/stapler04.jpg,pics/piggybank.jpg,pics/golfball.jpg,pics/laptop01a.jpg,pics/aquarium.jpg,blankImage,blankImage,blankImage,blankImage,blankImage,blankImage,blankImage,thermometer02b,8,,,,,,,,,,,,,,,,,,,,,,,,,,,,,,,,,,,,,,,,,0,56,56,7,1,,,,,,,,,,,,,,,,,,,,,,,,,,,,,,,,,,,,,,,,,,,,,,,,,,,,,,,
,,,,,60b2785e793387fa22524fce,6682b41eeb79ab8215dff63d,6682cce3aa44eb333efbac11,27,female,english,2024-07-01_16h37.00.570,ABmemTask3,2023.2.3,Win32,60.0240096,,,,,,,,,,,,,,,,,,,,,,,,,,,,,,,686.98,687.98,687.98,7,688.48,689.647,0.001,689.764,0.116,0.117,0.117,0.116,0.117,0.117,0.116,0.116,0.117,0.117,,689.764,690.98,right,1.198,,690.98,691.385,left,0.395,,36,0,116,691.385,692.379,,,,,,1_AB,L1_T1A_T2P,1,0,1,7,8,6,3,11,turkey,Did you see the turkey,0.12,0,resources/,pics/proboscismonkey.jpg,pics/blender.jpg,pics/sealion.jpg,pics/snowshoe.jpg,pics/carrot01.jpg,pics/microscope.jpg,pics/piggybank.jpg,pics/stapler12.jpg,pics/peanut01.jpg,pics/dustpan.jpg,pics/footballhelmet.jpg,blankImage,blankImage,blankImage,blankImage,blankImage,blankImage,turkey,26,,,,,,,,,,,,,,,,,,,,,,,,,,,,,,,,,,,,,,,,,0,57,57,25,1,,,,,,,,,,,,,,,,,,,,,,,,,,,,,,,,,,,,,,,,,,,,,,,,,,,,,,,
,,,,,60b2785e793387fa22524fce,6682b41eeb79ab8215dff63d,6682cce3aa44eb333efbac11,27,female,english,2024-07-01_16h37.00.570,ABmemTask3,2023.2.3,Win32,60.0240096,,,,,,,,,,,,,,,,,,,,,,,,,,,,,,,692.381,693.38,693.38,7,693.88,695.163,0.001,695.279,0.116,0.116,0.118,0.116,0.116,0.117,0.118,0.115,0.117,0.117,0.116,695.279,695.613,right,0.317,,695.613,695.83,right,0.201,,34,0,118,695.83,696.829,,,,,,1_AB,L1_T1P_T2A,1,1,0,7,8,6,4,12,Tennis racket,Did you see the Tennis racket,0.12,0,resources/,pics/banjo.jpg,pics/leaf02a.jpg,pics/shovel01.jpg,pics/microscope.jpg,pics/cork02.jpg,pics/seagull.jpg,pics/tennisracket.jpg,pics/binder03b.jpg,pics/floortile02.jpg,pics/carrot01.jpg,pics/candle01.jpg,pics/siamesecat.jpg,blankImage,blankImage,blankImage,blankImage,blankImage,tennisracket,38,,,,,,,,,,,,,,,,,,,,,,,,,,,,,,,,,,,,,,,,,0,58,58,37,1,,,,,,,,,,,,,,,,,,,,,,,,,,,,,,,,,,,,,,,,,,,,,,,,,,,,,,,
,,,,,60b2785e793387fa22524fce,6682b41eeb79ab8215dff63d,6682cce3aa44eb333efbac11,27,female,english,2024-07-01_16h37.00.570,ABmemTask3,2023.2.3,Win32,60.0240096,,,,,,,,,,,,,,,,,,,,,,,,,,,,,,,696.83,697.829,697.829,7,698.329,700.079,0.002,700.196,0.115,0.117,0.117,0.116,0.117,0.116,0.117,0.117,0.116,0.117,0.117,700.196,700.713,right,0.497,,700.713,700.929,left,0.197,,36,0,120,700.929,701.929,,,,,,1_AB,L5_T1P_T2A,5,1,0,6,11,5,5,16,belt,Did you see the belt,0.12,0,resources/,pics/banjo.jpg,pics/birdhouse.jpg,pics/spoon01.jpg,pics/table01.jpg,pics/candle01.jpg,pics/belt02a.jpg,pics/peach01.jpg,pics/chainsaw.jpg,pics/toiletpaper01a.jpg,pics/proboscismonkey.jpg,pics/cymbal.jpg,pics/binoculars01b.jpg,pics/cannon.jpg,pics/noparkingsign.jpg,pics/sailboat.jpg,pics/carrot01.jpg,blankImage,belt02a,61,0.117,0.123,0.11,,,,,,,,,,,,,,,,,,,,,,,,,,,,,,,,,,,,,,0,59,59,60,1,0.116,,,,,,,,,,,,,,,,,,,,,,,,,,,,,,,,,,,,,,,,,,,,,,,,,,,,,,
,,,,,60b2785e793387fa22524fce,6682b41eeb79ab8215dff63d,6682cce3aa44eb333efbac11,27,female,english,2024-07-01_16h37.00.570,ABmemTask3,2023.2.3,Win32,60.0240096,,,,,,,,,,,,,,,,,,,,,,,,,,,,,,,701.931,702.929,702.929,7,703.429,704.246,0.003,704.362,0.115,0.116,0.117,0.117,0.116,0.117,0.116,,,,,704.366,704.895,right,0.517,,704.895,705.129,right,0.224,,38,0,122,705.13,706.129,,,,,,1_AB,L1_T1P_T2P,1,1,1,4,5,3,3,8,Recycling bin,Did you see the Recycling bin,0.12,0,resources/,pics/microscope.jpg,pics/dustpan.jpg,pics/seagull.jpg,pics/recyclingbin.jpg,pics/stapler06.jpg,pics/bowtie.jpg,pics/dromedary.jpg,pics/salmon.jpg,blankImage,blankImage,blankImage,blankImage,blankImage,blankImage,blankImage,blankImage,blankImage,recyclingbin,16,,,,,,,,,,,,,,,,,,,,,,,,,,,,,,,,,,,,,,,,,0,60,60,15,1,,,,,,,,,,,,,,,,,,,,,,,,,,,,,,,,,,,,,,,,,,,,,,,,,,,,,,,
,,,,,60b2785e793387fa22524fce,6682b41eeb79ab8215dff63d,6682cce3aa44eb333efbac11,27,female,english,2024-07-01_16h37.00.570,ABmemTask3,2023.2.3,Win32,60.0240096,,,,,,,,,,,,,,,,,,,,,,,,,,,,,,,706.129,707.129,707.129,7,707.629,708.445,0.001,708.562,0.116,0.117,0.116,0.117,0.117,0.116,0.117,,,,,708.562,710.545,left,1.97,,710.545,710.878,right,0.316,,40,0,124,710.879,711.878,,,,,,1_AB,L1_T1A_T2P,1,0,1,4,5,3,3,8,Parking meter,Did you see the Parking meter,0.12,0,resources/,pics/leaf02a.jpg,pics/carrot01.jpg,pics/sink.jpg,pics/butterfly.jpg,pics/stapler10.jpg,pics/pictureframe04.jpg,pics/spiderweb.jpg,pics/icecube01.jpg,blankImage,blankImage,blankImage,blankImage,blankImage,blankImage,blankImage,blankImage,blankImage,parkingmeter,30,,,,,,,,,,,,,,,,,,,,,,,,,,,,,,,,,,,,,,,,,0,61,61,29,1,,,,,,,,,,,,,,,,,,,,,,,,,,,,,,,,,,,,,,,,,,,,,,,,,,,,,,,
,,,,,60b2785e793387fa22524fce,6682b41eeb79ab8215dff63d,6682cce3aa44eb333efbac11,27,female,english,2024-07-01_16h37.00.570,ABmemTask3,2023.2.3,Win32,60.0240096,,,,,,,,,,,,,,,,,,,,,,,,,,,,,,,,,,,,,,,,,,,,,,,,,,,,,,,,,,,,,,,,,,,,,,,,,,,,,,,,,,,,,,,,,,,,,,,,,,,,,,,,,,,711.878,717.595,space,5.693,,,,,,,,,,,,,,,,,,,,,,,,,,,,,,,,,,,,,,,,,,,,,,,,,,,,,,,,,,,,,,,,,,,,,,,,,,,,,,,,,,,,,,,,,,,,,
