consent1.started,consent1.stopped,key_resp_8.keys,key_resp_8.rt,key_resp_8.duration,PROLIFIC_PID,STUDY_ID,SESSION_ID,age,sex,native language,date,expName,psychopyVersion,OS,frameRate,consent2.started,consent2.stopped,key_resp_9.keys,key_resp_9.rt,key_resp_9.duration,consent3.started,consent3.stopped,key_resp_10.keys,key_resp_10.rt,key_resp_10.duration,consent4.started,consent4.stopped,key_resp_11.keys,key_resp_11.rt,key_resp_11.duration,consent5.started,consent5.stopped,key_resp_12.keys,key_resp_12.rt,key_resp_12.duration,bonusInstruct.started,bonusInstruct.stopped,key_resp_14.keys,key_resp_14.rt,key_resp_14.duration,practiceInstruct.started,practiceInstruct.stopped,key_resp.keys,key_resp.rt,key_resp.duration,cueWord_2.started,cueWord_2.stopped,fix.started,frameTarget,fix.stopped,trial.started,img1Add,trial.stopped,img2Add,img3Add,img4Add,img5Add,img6Add,img7Add,img8Add,img9Add,img10Add,img11Add,img12Add,prompt1.started,prompt1.stopped,key_resp_2.keys,key_resp_2.rt,key_resp_2.duration,prompt2.started,prompt2.stopped,key_resp_3.keys,key_resp_3.rt,key_resp_3.duration,runningAcc_AB,runningTotal,runningCount_AB,feedback.started,feedback.stopped,trials.thisRepN,trials.thisTrialN,trials.thisN,trials.thisIndex,trials.ran,TrialType,CondType,Lag,T1_PA,T2_PA,T1Loc,T2Loc,PreDistractor,PostDistractor,TotalImg,cueWord,T1cue,StimLength,isi,PicFolder,Img1,Img2,Img3,Img4,Img5,Img6,Img7,Img8,Img9,Img10,Img11,Img12,Img13,Img14,Img15,Img16,Img17,T1_Identity,trialID,img13Add,img14Add,img15Add,ABfeedback.started,ABfeedback.stopped,key_resp_13.keys,key_resp_13.rt,key_resp_13.duration,MemPracticeInstruction.started,MemPracticeInstruction.stopped,key_resp_5.keys,key_resp_5.rt,key_resp_5.duration,memTrial.started,memTrial.stopped,Mem_runningPoints,key_resp_4.keys,key_resp_4.rt,key_resp_4.duration,memTrialFeedback.started,memTrialFeedback.stopped,trials_2.thisRepN,trials_2.thisTrialN,trials_2.thisN,trials_2.thisIndex,trials_2.ran,ABtrialID,priorLag,image,memFeedback.started,memFeedback.frame,memFeedback.ended,memFeedback.stopped,bonus.started,bonus.stopped,memoryBlockABInstruct.started,memoryBlockABInstruct.stopped,key_resp_6.keys,key_resp_6.rt,key_resp_6.duration,AB_block_1.thisRepN,AB_block_1.thisTrialN,AB_block_1.thisN,AB_block_1.thisIndex,AB_block_1.ran,img16Add,img17Add,AB_break1.started,AB_break1.stopped,PerceiveBlockABInstruct.started,PerceiveBlockABInstruct.stopped,key_resp_7.keys,key_resp_7.rt,key_resp_7.duration,AB_block_2.thisRepN,AB_block_2.thisTrialN,AB_block_2.thisN,AB_block_2.thisIndex,AB_block_2.ran,AB_break2.started,AB_break2.stopped,AB_block_3.thisRepN,AB_block_3.thisTrialN,AB_block_3.thisN,AB_block_3.thisIndex,AB_block_3.ran,AB_break3.started,AB_break3.stopped,AB_block_4.thisRepN,AB_block_4.thisTrialN,AB_block_4.thisN,AB_block_4.thisIndex,AB_block_4.ran,AB_break4.started,AB_break4.stopped,AB_block_5.thisRepN,AB_block_5.thisTrialN,AB_block_5.thisN,AB_block_5.thisIndex,AB_block_5.ran,AB_break5.started,AB_break5.stopped,AB_block_6.thisRepN,AB_block_6.thisTrialN,AB_block_6.thisN,AB_block_6.thisIndex,AB_block_6.ran,AB_break6.started,AB_break6.stopped,MemInstructionSURPRISE.started,MemInstructionSURPRISE.stopped,MemInstruction.started,MemInstruction.stopped,memBreak.started,memBreak.stopped,Mem_block_1.thisRepN,Mem_block_1.thisTrialN,Mem_block_1.thisN,Mem_block_1.thisIndex,Mem_block_1.ran
0.0005,119.9822,space,119.945,,66589e8fcd6777edf59bd70b,6682b41eeb79ab8215dff63d,6682ddc1d66ba08ec7a2105a,,,,2024-07-01_17h59.56.229,ABmemTask3,2023.2.3,Win32,58.82352941,,,,,,,,,,,,,,,,,,,,,,,,,,,,,,,,,,,,,,,,,,,,,,,,,,,,,,,,,,,,,,,,,,,,,,,,,,,,,,,,,,,,,,,,,,,,,,,,,,,,,,,,,,,,,,,,,,,,,,,,,,,,,,,,,,,,,,,,,,,,,,,,,,,,,,,,,,,,,,,,,,,,,,,,,,,,,,,,,,,,,,,,,,,,,,,,,,,,,,,,,,,
,,,,,66589e8fcd6777edf59bd70b,6682b41eeb79ab8215dff63d,6682ddc1d66ba08ec7a2105a,,,,2024-07-01_17h59.56.229,ABmemTask3,2023.2.3,Win32,58.82352941,119.9827,139.1756,space,19.1557,,,,,,,,,,,,,,,,,,,,,,,,,,,,,,,,,,,,,,,,,,,,,,,,,,,,,,,,,,,,,,,,,,,,,,,,,,,,,,,,,,,,,,,,,,,,,,,,,,,,,,,,,,,,,,,,,,,,,,,,,,,,,,,,,,,,,,,,,,,,,,,,,,,,,,,,,,,,,,,,,,,,,,,,,,,,,,,,,,,,,,,,,,,,,,,,,,,,,,,
,,,,,66589e8fcd6777edf59bd70b,6682b41eeb79ab8215dff63d,6682ddc1d66ba08ec7a2105a,,,,2024-07-01_17h59.56.229,ABmemTask3,2023.2.3,Win32,58.82352941,,,,,,139.1758,144.2576,space,5.0619,,,,,,,,,,,,,,,,,,,,,,,,,,,,,,,,,,,,,,,,,,,,,,,,,,,,,,,,,,,,,,,,,,,,,,,,,,,,,,,,,,,,,,,,,,,,,,,,,,,,,,,,,,,,,,,,,,,,,,,,,,,,,,,,,,,,,,,,,,,,,,,,,,,,,,,,,,,,,,,,,,,,,,,,,,,,,,,,,,,,,,,,,,,,,,,,,,
,,,,,66589e8fcd6777edf59bd70b,6682b41eeb79ab8215dff63d,6682ddc1d66ba08ec7a2105a,,,,2024-07-01_17h59.56.229,ABmemTask3,2023.2.3,Win32,58.82352941,,,,,,,,,,,144.2577,145.7735,space,1.4992,,,,,,,,,,,,,,,,,,,,,,,,,,,,,,,,,,,,,,,,,,,,,,,,,,,,,,,,,,,,,,,,,,,,,,,,,,,,,,,,,,,,,,,,,,,,,,,,,,,,,,,,,,,,,,,,,,,,,,,,,,,,,,,,,,,,,,,,,,,,,,,,,,,,,,,,,,,,,,,,,,,,,,,,,,,,,,,,,,,,,,,,,,,,,
,,,,,66589e8fcd6777edf59bd70b,6682b41eeb79ab8215dff63d,6682ddc1d66ba08ec7a2105a,,,,2024-07-01_17h59.56.229,ABmemTask3,2023.2.3,Win32,58.82352941,,,,,,,,,,,,,,,,145.7737,147.9042,space,2.1081,,,,,,,,,,,,,,,,,,,,,,,,,,,,,,,,,,,,,,,,,,,,,,,,,,,,,,,,,,,,,,,,,,,,,,,,,,,,,,,,,,,,,,,,,,,,,,,,,,,,,,,,,,,,,,,,,,,,,,,,,,,,,,,,,,,,,,,,,,,,,,,,,,,,,,,,,,,,,,,,,,,,,,,,,,,,,,,,,,,,,,,,
,,,,,66589e8fcd6777edf59bd70b,6682b41eeb79ab8215dff63d,6682ddc1d66ba08ec7a2105a,,,,2024-07-01_17h59.56.229,ABmemTask3,2023.2.3,Win32,58.82352941,,,,,,,,,,,,,,,,,,,,,147.9044,166.3861,space,18.4427,,,,,,,,,,,,,,,,,,,,,,,,,,,,,,,,,,,,,,,,,,,,,,,,,,,,,,,,,,,,,,,,,,,,,,,,,,,,,,,,,,,,,,,,,,,,,,,,,,,,,,,,,,,,,,,,,,,,,,,,,,,,,,,,,,,,,,,,,,,,,,,,,,,,,,,,,,,,,,,,,,,,,,,,,,,,,,,,,,,
,,,,,66589e8fcd6777edf59bd70b,6682b41eeb79ab8215dff63d,6682ddc1d66ba08ec7a2105a,,,,2024-07-01_17h59.56.229,ABmemTask3,2023.2.3,Win32,58.82352941,,,,,,,,,,,,,,,,,,,,,,,,,,166.3864,275.4579,space,109.0441,,,,,,,,,,,,,,,,,,,,,,,,,,,,,,,,,,,,,,,,,,,,,,,,,,,,,,,,,,,,,,,,,,,,,,,,,,,,,,,,,,,,,,,,,,,,,,,,,,,,,,,,,,,,,,,,,,,,,,,,,,,,,,,,,,,,,,,,,,,,,,,,,,,,,,,,,,,,,,,,,,,,,,,,,,,,,,
,,,,,66589e8fcd6777edf59bd70b,6682b41eeb79ab8215dff63d,6682ddc1d66ba08ec7a2105a,,,,2024-07-01_17h59.56.229,ABmemTask3,2023.2.3,Win32,58.82352941,,,,,,,,,,,,,,,,,,,,,,,,,,,,,,,275.4754,276.4773,276.4777,15,276.9735,279.7224,0.0049,279.9706,0.2523,0.2485,0.2448,0.2548,0.2441,0.2554,0.2451,0.255,0.244,0.2538,0.2467,279.9752,282.9112,right,2.9157,,282.9114,285.303,left,2.3682,,2,0,2,285.3037,286.3091,0,0,0,0,1,prac_AB,L1_T1P_T2A,1,1,0,6,7,5,5,12,cat,Did you see the cat,0.25,0,resources/,pics/shipinabottle.jpg,pics/table01.jpg,pics/dustpan.jpg,pics/golfball.jpg,pics/giraffe.jpg,pics/cat.jpg,pics/peanut01.jpg,pics/pictureframe04.jpg,pics/fanblades.jpg,pics/laptop01a.jpg,pics/ball02.jpg,pics/blender.jpg,blankImage,blankImage,blankImage,blankImage,blankImage,cat,8,,,,,,,,,,,,,,,,,,,,,,,,,,,,,,,,,,,,,,,,,,,,,,,,,,,,,,,,,,,,,,,,,,,,,,,,,,,,,,,,,,,,,,,,,,,,,,,,,,,,
,,,,,66589e8fcd6777edf59bd70b,6682b41eeb79ab8215dff63d,6682ddc1d66ba08ec7a2105a,,,,2024-07-01_17h59.56.229,ABmemTask3,2023.2.3,Win32,58.82352941,,,,,,,,,,,,,,,,,,,,,,,,,,,,,,,286.3231,287.318,287.3182,14,287.808,289.9013,0.0026,290.1384,0.2296,0.2307,0.2372,0.2309,0.2349,0.2327,0.2334,0.2289,0.2335,,,290.1385,294.1704,right,4.0135,,294.1704,295.9482,right,1.7552,,4,0,4,295.9484,296.9537,0,1,1,1,1,prac_AB,L1_T1P_T2P,1,1,1,5,6,4,4,10,tree,Did you see the tree,0.24,0,resources/,pics/carrot01.jpg,pics/hammerheadshark.jpg,pics/kangaroo.jpg,pics/proboscismonkey.jpg,pics/tree.jpg,pics/stapler07.jpg,pics/siamesecat.jpg,pics/ball02.jpg,pics/pictureframe04.jpg,pics/mummy.jpg,blankImage,blankImage,blankImage,blankImage,blankImage,blankImage,blankImage,tree,1,,,,,,,,,,,,,,,,,,,,,,,,,,,,,,,,,,,,,,,,,,,,,,,,,,,,,,,,,,,,,,,,,,,,,,,,,,,,,,,,,,,,,,,,,,,,,,,,,,,,
,,,,,66589e8fcd6777edf59bd70b,6682b41eeb79ab8215dff63d,6682ddc1d66ba08ec7a2105a,,,,2024-07-01_17h59.56.229,ABmemTask3,2023.2.3,Win32,58.82352941,,,,,,,,,,,,,,,,,,,,,,,,,,,,,,,296.966,297.964,297.9642,14,298.4645,301.0375,0.003,301.2631,0.2372,0.228,0.2332,0.2331,0.2335,0.2391,0.2274,0.2326,0.2338,0.2372,0.2353,301.2634,306.1165,left,4.8301,,306.1166,307.5352,right,1.4002,,6,0,6,307.5354,308.5274,0,2,2,2,1,prac_AB,L1_T1A_T2P,1,0,1,7,8,6,4,12,grapes,Did you see the grapes,0.23,0,resources/,pics/sailboat.jpg,pics/butterfly.jpg,pics/giraffe.jpg,pics/spoon01.jpg,pics/hose.jpg,pics/nutcracker01.jpg,pics/table01.jpg,pics/stapler13.jpg,pics/pencil01.jpg,pics/football.jpg,pics/triangle.jpg,pics/hairdryer02a.jpg,blankImage,blankImage,blankImage,blankImage,blankImage,grape01,6,,,,,,,,,,,,,,,,,,,,,,,,,,,,,,,,,,,,,,,,,,,,,,,,,,,,,,,,,,,,,,,,,,,,,,,,,,,,,,,,,,,,,,,,,,,,,,,,,,,,
,,,,,66589e8fcd6777edf59bd70b,6682b41eeb79ab8215dff63d,6682ddc1d66ba08ec7a2105a,,,,2024-07-01_17h59.56.229,ABmemTask3,2023.2.3,Win32,58.82352941,,,,,,,,,,,,,,,,,,,,,,,,,,,,,,,308.5421,309.5528,309.5529,13,310.0465,313.0765,0.0037,313.2936,0.2118,0.2203,0.2195,0.2112,0.2205,0.2161,0.2171,0.2186,0.2124,0.2175,0.2197,313.2941,315.2584,right,1.9375,,315.2585,315.9578,right,0.6751,,8,0,8,315.9584,316.9575,0,3,3,3,1,prac_AB,L5_T1P_T2P,5,1,1,7,12,6,3,15,Human skull,Did you see the Human skull,0.22,0,resources/,pics/peach01.jpg,pics/proboscismonkey.jpg,pics/hose.jpg,pics/laptop01a.jpg,pics/hammerheadshark.jpg,pics/nutcracker01.jpg,pics/humanskull.jpg,pics/table01.jpg,pics/icecube01.jpg,pics/boot02b.jpg,pics/calendar.jpg,pics/stapler03a.jpg,pics/ashtray01.jpg,pics/giraffe.jpg,pics/dromedary.jpg,blankImage,blankImage,humanskull,12,0.2168,0.2139,0.2112,,,,,,,,,,,,,,,,,,,,,,,,,,,,,,,,,,,,,,,,,,,,,,,,,,,,,,,,,,,,,,,,,,,,,,,,,,,,,,,,,,,,,,,,,,,,,,,,,
,,,,,66589e8fcd6777edf59bd70b,6682b41eeb79ab8215dff63d,6682ddc1d66ba08ec7a2105a,,,,2024-07-01_17h59.56.229,ABmemTask3,2023.2.3,Win32,58.82352941,,,,,,,,,,,,,,,,,,,,,,,,,,,,,,,316.977,317.9741,317.9743,12,318.4799,320.4777,0.0015,320.6788,0.199,0.196,0.1994,0.2,0.2008,0.1991,0.1986,0.2066,0.1969,0.2001,,320.679,322.0468,left,1.3506,,322.047,322.9473,right,0.885,,10,0,10,322.9475,323.9458,0,4,4,4,1,prac_AB,L1_T1A_T2P,1,0,1,7,8,6,3,11,dog,Did you see the dog,0.21,0,resources/,pics/ball02.jpg,pics/binder03b.jpg,pics/dromedary.jpg,pics/shipinabottle.jpg,pics/proboscismonkey.jpg,pics/laptop01a.jpg,pics/chainsaw.jpg,pics/stapler13.jpg,pics/nutcracker01.jpg,pics/carrot01.jpg,pics/calendar.jpg,blankImage,blankImage,blankImage,blankImage,blankImage,blankImage,saintbernard,7,,,,,,,,,,,,,,,,,,,,,,,,,,,,,,,,,,,,,,,,,,,,,,,,,,,,,,,,,,,,,,,,,,,,,,,,,,,,,,,,,,,,,,,,,,,,,,,,,,,,
,,,,,66589e8fcd6777edf59bd70b,6682b41eeb79ab8215dff63d,6682ddc1d66ba08ec7a2105a,,,,2024-07-01_17h59.56.229,ABmemTask3,2023.2.3,Win32,58.82352941,,,,,,,,,,,,,,,,,,,,,,,,,,,,,,,323.9592,324.9614,324.9615,12,325.46,328.2555,0.0027,328.4603,0.194,0.2001,0.201,0.1987,0.2042,0.1966,0.2037,0.2006,0.2004,0.1941,0.2012,328.4605,329.6447,right,1.1679,,329.6449,330.1379,right,0.4708,,12,0,12,330.1382,331.1264,0,5,5,5,1,prac_AB,L5_T1P_T2P,5,1,1,5,10,4,5,15,grater,Did you see the grater,0.2,0,resources/,pics/pencil01.jpg,pics/laptop01a.jpg,pics/hammerheadshark.jpg,pics/cork02.jpg,pics/grater01a.jpg,pics/shipinabottle.jpg,pics/binder03b.jpg,pics/dromedary.jpg,pics/pictureframe04.jpg,pics/stapler04b.jpg,pics/fanblades.jpg,pics/aquarium.jpg,pics/hairdryer02a.jpg,pics/lightswitch01.jpg,pics/piggybank.jpg,blankImage,blankImage,grater01a,11,0.1998,0.1991,0.2,,,,,,,,,,,,,,,,,,,,,,,,,,,,,,,,,,,,,,,,,,,,,,,,,,,,,,,,,,,,,,,,,,,,,,,,,,,,,,,,,,,,,,,,,,,,,,,,,
,,,,,66589e8fcd6777edf59bd70b,6682b41eeb79ab8215dff63d,6682ddc1d66ba08ec7a2105a,,,,2024-07-01_17h59.56.229,ABmemTask3,2023.2.3,Win32,58.82352941,,,,,,,,,,,,,,,,,,,,,,,,,,,,,,,331.1423,332.1421,332.1422,11,332.6419,334.1044,0.0012,334.2855,0.178,0.1887,0.1834,0.178,0.1916,0.1794,0.1798,0.1826,,,,334.286,336.2082,right,1.8995,,336.2085,337.4412,left,1.2174,,14,0,14,337.4412,338.4387,0,6,6,6,1,prac_AB,L1_T1P_T2A,1,1,0,4,5,3,4,9,chalk,Did you see the chalk,0.19,0,resources/,pics/necklace.jpg,pics/starfish01.jpg,pics/safetypin.jpg,pics/chalk.jpg,pics/candleholder01.jpg,pics/bowtie.jpg,pics/match.jpg,pics/candle01.jpg,pics/pencilsharpener02a.jpg,blankImage,blankImage,blankImage,blankImage,blankImage,blankImage,blankImage,blankImage,chalk,9,,,,,,,,,,,,,,,,,,,,,,,,,,,,,,,,,,,,,,,,,,,,,,,,,,,,,,,,,,,,,,,,,,,,,,,,,,,,,,,,,,,,,,,,,,,,,,,,,,,,
,,,,,66589e8fcd6777edf59bd70b,6682b41eeb79ab8215dff63d,6682ddc1d66ba08ec7a2105a,,,,2024-07-01_17h59.56.229,ABmemTask3,2023.2.3,Win32,58.82352941,,,,,,,,,,,,,,,,,,,,,,,,,,,,,,,338.4579,339.4506,339.4507,11,339.9504,341.6003,0.0009,341.783,0.1822,0.1829,0.186,0.183,0.1825,0.1815,0.1867,0.182,0.1828,,,341.7831,343.0166,right,1.2134,,343.0168,343.5509,right,0.5182,,16,0,16,343.5511,344.5488,0,7,7,7,1,prac_AB,L1_T1P_T2P,1,1,1,5,6,4,4,10,pants,Did you see the pants,0.18,0,resources/,pics/kangaroo.jpg,pics/safetypin.jpg,pics/salmon.jpg,pics/sandbarshark.jpg,pics/pants.jpg,pics/stapler03a.jpg,pics/sink.jpg,pics/calendar.jpg,pics/butterfly.jpg,pics/fanblades.jpg,blankImage,blankImage,blankImage,blankImage,blankImage,blankImage,blankImage,pants,2,,,,,,,,,,,,,,,,,,,,,,,,,,,,,,,,,,,,,,,,,,,,,,,,,,,,,,,,,,,,,,,,,,,,,,,,,,,,,,,,,,,,,,,,,,,,,,,,,,,,
,,,,,66589e8fcd6777edf59bd70b,6682b41eeb79ab8215dff63d,6682ddc1d66ba08ec7a2105a,,,,2024-07-01_17h59.56.229,ABmemTask3,2023.2.3,Win32,58.82352941,,,,,,,,,,,,,,,,,,,,,,,,,,,,,,,344.5502,345.5481,345.5485,10,346.0481,348.3813,0.003,348.5462,0.1641,0.168,0.1672,0.1641,0.168,0.1656,0.1682,0.1669,0.1652,0.1685,0.1654,348.5463,349.9466,left,1.3903,,349.9467,350.648,right,0.6847,,18,0,18,350.6483,351.6461,0,8,8,8,1,prac_AB,L5_T1A_T2P,5,0,1,7,12,6,3,15,shirt,Did you see the shirt,0.17,0,resources/,pics/banjo.jpg,pics/chainsaw.jpg,pics/sailboat.jpg,pics/shipinabottle.jpg,pics/lightswitch01.jpg,pics/starfish01.jpg,pics/hen.jpg,pics/ball02.jpg,pics/bowlingpin.jpg,pics/hammerheadshark.jpg,pics/footballhelmet.jpg,pics/stapler10.jpg,pics/laptop01a.jpg,pics/cannon.jpg,pics/golfball.jpg,blankImage,blankImage,shirt02,13,0.1659,0.1675,0.1661,,,,,,,,,,,,,,,,,,,,,,,,,,,,,,,,,,,,,,,,,,,,,,,,,,,,,,,,,,,,,,,,,,,,,,,,,,,,,,,,,,,,,,,,,,,,,,,,,
,,,,,66589e8fcd6777edf59bd70b,6682b41eeb79ab8215dff63d,6682ddc1d66ba08ec7a2105a,,,,2024-07-01_17h59.56.229,ABmemTask3,2023.2.3,Win32,58.82352941,,,,,,,,,,,,,,,,,,,,,,,,,,,,,,,351.6662,352.6628,352.6631,9,353.1616,354.6614,0.0021,354.812,0.149,0.1491,0.1523,0.1482,0.1495,0.1526,0.1491,0.15,0.1509,0.148,,354.8122,356.3287,left,1.498,,356.3289,356.9454,right,0.6092,,18,0,20,356.9458,357.944,0,9,9,9,1,prac_AB,L1_T1P_T2P,1,1,1,7,8,6,3,11,tongs,Did you see the tongs,0.16,0,resources/,pics/sewingmachine01a.jpg,pics/shovel01.jpg,pics/football.jpg,pics/hen.jpg,pics/banjo.jpg,pics/zebra.jpg,pics/tongs01b.jpg,pics/stapler11.jpg,pics/shipinabottle.jpg,pics/match.jpg,pics/candle01.jpg,blankImage,blankImage,blankImage,blankImage,blankImage,blankImage,tongs01b,5,,,,,,,,,,,,,,,,,,,,,,,,,,,,,,,,,,,,,,,,,,,,,,,,,,,,,,,,,,,,,,,,,,,,,,,,,,,,,,,,,,,,,,,,,,,,,,,,,,,,
,,,,,66589e8fcd6777edf59bd70b,6682b41eeb79ab8215dff63d,6682ddc1d66ba08ec7a2105a,,,,2024-07-01_17h59.56.229,ABmemTask3,2023.2.3,Win32,58.82352941,,,,,,,,,,,,,,,,,,,,,,,,,,,,,,,357.9642,358.9602,358.9603,9,359.4615,361.1111,0.004,361.2596,0.1468,0.1487,0.1501,0.1499,0.15,0.1502,0.1513,0.147,0.152,0.1489,0.1514,361.2597,363.0594,left,1.7796,,363.0596,365.4607,right,2.3937,,16,0,22,365.4608,366.458,0,10,10,10,1,prac_AB,L1_T1A_T2A,1,0,0,7,8,6,4,12,camera,Did you see the camera,0.15,0,resources/,pics/lightswitch01.jpg,pics/table01.jpg,pics/aquarium.jpg,pics/boot02b.jpg,pics/butterfly.jpg,pics/chainsaw.jpg,pics/binoculars01b.jpg,pics/giraffe.jpg,pics/triangle.jpg,pics/microscope.jpg,pics/mummy.jpg,pics/icecube01.jpg,blankImage,blankImage,blankImage,blankImage,blankImage,camera01a,10,,,,,,,,,,,,,,,,,,,,,,,,,,,,,,,,,,,,,,,,,,,,,,,,,,,,,,,,,,,,,,,,,,,,,,,,,,,,,,,,,,,,,,,,,,,,,,,,,,,,
,,,,,66589e8fcd6777edf59bd70b,6682b41eeb79ab8215dff63d,6682ddc1d66ba08ec7a2105a,,,,2024-07-01_17h59.56.229,ABmemTask3,2023.2.3,Win32,58.82352941,,,,,,,,,,,,,,,,,,,,,,,,,,,,,,,366.474,367.4739,367.474,8,367.9737,369.1735,0.0025,369.307,0.1315,0.1342,0.1333,0.1328,0.1337,0.1321,0.1343,0.1339,0.1319,,,369.3072,371.0228,right,1.6944,,371.023,371.8388,right,0.8026,,18,0,24,371.8389,372.8386,0,11,11,11,1,prac_AB,L1_T1P_T2P,1,1,1,6,7,5,3,10,shorts,Did you see the shorts,0.14,0,resources/,pics/snowshoe.jpg,pics/chainsaw.jpg,pics/sailboat.jpg,pics/ball02.jpg,pics/candleholder01.jpg,pics/shorts01.jpg,pics/stapler07.jpg,pics/peach01.jpg,pics/proboscismonkey.jpg,pics/hen.jpg,blankImage,blankImage,blankImage,blankImage,blankImage,blankImage,blankImage,shorts01,4,,,,,,,,,,,,,,,,,,,,,,,,,,,,,,,,,,,,,,,,,,,,,,,,,,,,,,,,,,,,,,,,,,,,,,,,,,,,,,,,,,,,,,,,,,,,,,,,,,,,
,,,,,66589e8fcd6777edf59bd70b,6682b41eeb79ab8215dff63d,6682ddc1d66ba08ec7a2105a,,,,2024-07-01_17h59.56.229,ABmemTask3,2023.2.3,Win32,58.82352941,,,,,,,,,,,,,,,,,,,,,,,,,,,,,,,372.8475,373.8379,373.8379,8,374.3391,375.9376,0.0016,376.0707,0.1312,0.1337,0.1338,0.1324,0.1327,0.1333,0.1339,0.1339,0.1336,0.135,0.1311,376.071,378.087,right,1.9962,,378.0872,378.8204,left,0.7183,,20,0,26,378.8205,379.8198,0,12,12,12,1,prac_AB,L5_T1P_T2A,5,1,0,5,10,4,3,13,fish,Did you see the fish,0.13,0,resources/,pics/football.jpg,pics/safetypin.jpg,pics/shovel01.jpg,pics/sink.jpg,pics/holdfast.jpg,pics/nutcracker01.jpg,pics/starfish01.jpg,pics/onion.jpg,pics/footballhelmet.jpg,pics/boot02b.jpg,pics/sewingmachine01a.jpg,pics/kangaroo.jpg,pics/banjo.jpg,blankImage,blankImage,blankImage,blankImage,holdfast,14,0.1324,,,,,,,,,,,,,,,,,,,,,,,,,,,,,,,,,,,,,,,,,,,,,,,,,,,,,,,,,,,,,,,,,,,,,,,,,,,,,,,,,,,,,,,,,,,,,,,,,,,
,,,,,66589e8fcd6777edf59bd70b,6682b41eeb79ab8215dff63d,6682ddc1d66ba08ec7a2105a,,,,2024-07-01_17h59.56.229,ABmemTask3,2023.2.3,Win32,58.82352941,,,,,,,,,,,,,,,,,,,,,,,,,,,,,,,379.8364,380.8366,380.8366,7,381.3403,382.3857,0.0012,382.5021,0.1123,0.1162,0.1165,0.1185,0.1148,0.1168,0.1157,0.1176,0.1169,,,382.5022,383.8377,right,1.3263,,383.838,384.2343,right,0.3806,,22,0,28,384.2343,385.235,0,13,13,13,1,prac_AB,L1_T1P_T2P,1,1,1,5,6,4,4,10,fish,Did you see the fish,0.12,0,resources/,pics/butterfly.jpg,pics/banjo.jpg,pics/leaf02a.jpg,pics/dustpan.jpg,pics/sturgeon.jpg,pics/stapler02.jpg,pics/necklace.jpg,pics/shovel01.jpg,pics/starfish01.jpg,pics/chainsaw.jpg,blankImage,blankImage,blankImage,blankImage,blankImage,blankImage,blankImage,sturgeon,3,,,,,,,,,,,,,,,,,,,,,,,,,,,,,,,,,,,,,,,,,,,,,,,,,,,,,,,,,,,,,,,,,,,,,,,,,,,,,,,,,,,,,,,,,,,,,,,,,,,,
,,,,,66589e8fcd6777edf59bd70b,6682b41eeb79ab8215dff63d,6682ddc1d66ba08ec7a2105a,,,,2024-07-01_17h59.56.229,ABmemTask3,2023.2.3,Win32,58.82352941,,,,,,,,,,,,,,,,,,,,,,,,,,,,,,,,,,,,,,,,,,,,,,,,,,,,,,,,,,,,,,,,,,,,,,,,,,,,,,,,,,,,,,,,,,,,,,,,,,,,,,,,,,,385.2383,388.1348,space,2.8725,,,,,,,,,,,,,,,,,,,,,,,,,,,,,,,,,,,,,,,,,,,,,,,,,,,,,,,,,,,,,,,,,,,,,,,,,,,,,,,,,,,,,,,,,,,,,
,,,,,66589e8fcd6777edf59bd70b,6682b41eeb79ab8215dff63d,6682ddc1d66ba08ec7a2105a,,,,2024-07-01_17h59.56.229,ABmemTask3,2023.2.3,Win32,58.82352941,,,,,,,,,,,,,,,,,,,,,,,,,,,,,,,,,,,,,,,,,,,,,,,,,,,,,,,,,,,,,,,,,,,,,,,,,,,,,,,,,,,,,,,,,,,,,,,,,,,,,,,,,,,388.1441,388.1457,,,,,,,,,,,,,,,,,,,,,,,,,,,,,,,,,,,,,,,,,,,,,,,,,,,,,,,,,,,,,,,,,,,,,,,,,,,,,,,,,,,,,,,,,,,,,,,
,,,,,66589e8fcd6777edf59bd70b,6682b41eeb79ab8215dff63d,6682ddc1d66ba08ec7a2105a,,,,2024-07-01_17h59.56.229,ABmemTask3,2023.2.3,Win32,58.82352941,,,,,,,,,,,,,,,,,,,,,,,,,,,,,,,,,,,,,,,,,,,,,,,,,,,,,,,,,,,,,,,,,,,,,,,,,,,,,,,,,,,,,,,,,,,,,,,,,,,,,,,,,,,388.1473,388.1473,,,,,,,,,,,,,,,,,,,,,,,,,,,,,,,,,,,,,,,,,,,,,,,,,,,,,,,,,,,,,,,,,,,,,,,,,,,,,,,,,,,,,,,,,,,,,,,
,,,,,66589e8fcd6777edf59bd70b,6682b41eeb79ab8215dff63d,6682ddc1d66ba08ec7a2105a,,,,2024-07-01_17h59.56.229,ABmemTask3,2023.2.3,Win32,58.82352941,,,,,,,,,,,,,,,,,,,,,,,,,,,,,,,,,,,,,,,,,,,,,,,,,,,,,,,,,,,,,,,,,,,,,,,,,,,,,,,,,,,,,,,,,,,,,,,,,,,,,,,,,,,388.148,388.148,,,,,,,,,,,,,,,,,,,,,,,,,,,,,,,,,,,,,,,,,,,,,,,,,,,,,,,,,,,,,,,,,,,,,,,,,,,,,,,,,,,,,,,,,,,,,,,
,,,,,66589e8fcd6777edf59bd70b,6682b41eeb79ab8215dff63d,6682ddc1d66ba08ec7a2105a,,,,2024-07-01_17h59.56.229,ABmemTask3,2023.2.3,Win32,58.82352941,,,,,,,,,,,,,,,,,,,,,,,,,,,,,,,,,,,,,,,,,,,,,,,,,,,,,,,,,,,,,,,,,,,,,,,,,,,,,,,,,,,,,,,,,,,,,,,,,,,,,,,,,,,388.1493,388.1494,,,,,,,,,,,,,,,,,,,,,,,,,,,,,,,,,,,,,,,,,,,,,,,,,,,,,,,,,,,,,,,,,,,,,,,,,,,,,,,,,,,,,,,,,,,,,,,
,,,,,66589e8fcd6777edf59bd70b,6682b41eeb79ab8215dff63d,6682ddc1d66ba08ec7a2105a,,,,2024-07-01_17h59.56.229,ABmemTask3,2023.2.3,Win32,58.82352941,,,,,,,,,,,,,,,,,,,,,,,,,,,,,,,,,,,,,,,,,,,,,,,,,,,,,,,,,,,,,,,,,,,,,,,,,,,,,,,,,,,,,,,,,,,,,,,,,,,,,,,,,,,388.1523,388.1524,,,,,,,,,,,,,,,,,,,,,,,,,,,,,,,,,,,,,,,,,,,,,,,,,,,,,,,,,,,,,,,,,,,,,,,,,,,,,,,,,,,,,,,,,,,,,,,
,,,,,66589e8fcd6777edf59bd70b,6682b41eeb79ab8215dff63d,6682ddc1d66ba08ec7a2105a,,,,2024-07-01_17h59.56.229,ABmemTask3,2023.2.3,Win32,58.82352941,,,,,,,,,,,,,,,,,,,,,,,,,,,,,,,,,,,,,,,,,,,,,,,,,,,,,,,,,,,,,,,,,,,,,,,,,,,,,,,,,,,,,,,,,,,,,,,,,,,,,,,,,,,388.1546,388.1546,,,,,,,,,,,,,,,,,,,,,,,,,,,,,,,,,,,,,,,,,,,,,,,,,,,,,,,,,,,,,,,,,,,,,,,,,,,,,,,,,,,,,,,,,,,,,,,
,,,,,66589e8fcd6777edf59bd70b,6682b41eeb79ab8215dff63d,6682ddc1d66ba08ec7a2105a,,,,2024-07-01_17h59.56.229,ABmemTask3,2023.2.3,Win32,58.82352941,,,,,,,,,,,,,,,,,,,,,,,,,,,,,,,,,,,,,,,,,,,,,,,,,,,,,,,,,,,,,,,,,,,,,,,,,,,,,,,,,,,,,,,,,,,,,,,,,,,,,,,,,,,388.1552,388.1552,,,,,,,,,,,,,,,,,,,,,,,,,,,,,,,,,,,,,,,,,,,,,,,,,,,,,,,,,,,,,,,,,,,,,,,,,,,,,,,,,,,,,,,,,,,,,,,
,,,,,66589e8fcd6777edf59bd70b,6682b41eeb79ab8215dff63d,6682ddc1d66ba08ec7a2105a,,,,2024-07-01_17h59.56.229,ABmemTask3,2023.2.3,Win32,58.82352941,,,,,,,,,,,,,,,,,,,,,,,,,,,,,,,,,,,,,,,,,,,,,,,,,,,,,,,,,,,,,,,,,,,,,,,,,,,,,,,,,,,,,,,,,,,,,,,,,,,,,,,,,,,388.1559,388.1559,,,,,,,,,,,,,,,,,,,,,,,,,,,,,,,,,,,,,,,,,,,,,,,,,,,,,,,,,,,,,,,,,,,,,,,,,,,,,,,,,,,,,,,,,,,,,,,
,,,,,66589e8fcd6777edf59bd70b,6682b41eeb79ab8215dff63d,6682ddc1d66ba08ec7a2105a,,,,2024-07-01_17h59.56.229,ABmemTask3,2023.2.3,Win32,58.82352941,,,,,,,,,,,,,,,,,,,,,,,,,,,,,,,,,,,,,,,,,,,,,,,,,,,,,,,,,,,,,,,,,,,,,,,,,,,,,,,,,,,,,,,,,,,,,,,,,,,,,,,,,,,388.1567,388.1568,,,,,,,,,,,,,,,,,,,,,,,,,,,,,,,,,,,,,,,,,,,,,,,,,,,,,,,,,,,,,,,,,,,,,,,,,,,,,,,,,,,,,,,,,,,,,,,
,,,,,66589e8fcd6777edf59bd70b,6682b41eeb79ab8215dff63d,6682ddc1d66ba08ec7a2105a,,,,2024-07-01_17h59.56.229,ABmemTask3,2023.2.3,Win32,58.82352941,,,,,,,,,,,,,,,,,,,,,,,,,,,,,,,,,,,,,,,,,,,,,,,,,,,,,,,,,,,,,,,,,,,,,,,,,,,,,,,,,,,,,,,,,,,,,,,,,,,,,,,,,,,388.1574,388.1574,,,,,,,,,,,,,,,,,,,,,,,,,,,,,,,,,,,,,,,,,,,,,,,,,,,,,,,,,,,,,,,,,,,,,,,,,,,,,,,,,,,,,,,,,,,,,,,
,,,,,66589e8fcd6777edf59bd70b,6682b41eeb79ab8215dff63d,6682ddc1d66ba08ec7a2105a,,,,2024-07-01_17h59.56.229,ABmemTask3,2023.2.3,Win32,58.82352941,,,,,,,,,,,,,,,,,,,,,,,,,,,,,,,,,,,,,,,,,,,,,,,,,,,,,,,,,,,,,,,,,,,,,,,,,,,,,,,,,,,,,,,,,,,,,,,,,,,,,,,,,,,388.1578,388.1578,,,,,,,,,,,,,,,,,,,,,,,,,,,,,,,,,,,,,,,,,,,,,,,,,,,,,,,,,,,,,,,,,,,,,,,,,,,,,,,,,,,,,,,,,,,,,,,
,,,,,66589e8fcd6777edf59bd70b,6682b41eeb79ab8215dff63d,6682ddc1d66ba08ec7a2105a,,,,2024-07-01_17h59.56.229,ABmemTask3,2023.2.3,Win32,58.82352941,,,,,,,,,,,,,,,,,,,,,,,,,,,,,,,,,,,,,,,,,,,,,,,,,,,,,,,,,,,,,,,,,,,,,,,,,,,,,,,,,,,,,,,,,,,,,,,,,,,,,,,,,,,388.1583,388.1584,,,,,,,,,,,,,,,,,,,,,,,,,,,,,,,,,,,,,,,,,,,,,,,,,,,,,,,,,,,,,,,,,,,,,,,,,,,,,,,,,,,,,,,,,,,,,,,
,,,,,66589e8fcd6777edf59bd70b,6682b41eeb79ab8215dff63d,6682ddc1d66ba08ec7a2105a,,,,2024-07-01_17h59.56.229,ABmemTask3,2023.2.3,Win32,58.82352941,,,,,,,,,,,,,,,,,,,,,,,,,,,,,,,,,,,,,,,,,,,,,,,,,,,,,,,,,,,,,,,,,,,,,,,,,,,,,,,,,,,,,,,,,,,,,,,,,,,,,,,,,,,388.1591,388.1591,,,,,,,,,,,,,,,,,,,,,,,,,,,,,,,,,,,,,,,,,,,,,,,,,,,,,,,,,,,,,,,,,,,,,,,,,,,,,,,,,,,,,,,,,,,,,,,
,,,,,66589e8fcd6777edf59bd70b,6682b41eeb79ab8215dff63d,6682ddc1d66ba08ec7a2105a,,,,2024-07-01_17h59.56.229,ABmemTask3,2023.2.3,Win32,58.82352941,,,,,,,,,,,,,,,,,,,,,,,,,,,,,,,,,,,,,,,,,,,,,,,,,,,,,,,,,,,,,,,,,,,,,,,,,,,,,,,,,,,,,,,,,,,,,,,,,,,,,,,,,,,388.1596,388.1597,,,,,,,,,,,,,,,,,,,,,,,,,,,,,,,,,,,,,,,,,,,,,,,,,,,,,,,,,,,,,,,,,,,,,,,,,,,,,,,,,,,,,,,,,,,,,,,
,,,,,66589e8fcd6777edf59bd70b,6682b41eeb79ab8215dff63d,6682ddc1d66ba08ec7a2105a,,,,2024-07-01_17h59.56.229,ABmemTask3,2023.2.3,Win32,58.82352941,,,,,,,,,,,,,,,,,,,,,,,,,,,,,,,,,,,,,,,,,,,,,,,,,,,,,,,,,,,,,,,,,,,,,,,,,,,,,,,,,,,,,,,,,,,,,,,,,,,,,,,,,,,388.1602,388.1603,,,,,,,,,,,,,,,,,,,,,,,,,,,,,,,,,,,,,,,,,,,,,,,,,,,,,,,,,,,,,,,,,,,,,,,,,,,,,,,,,,,,,,,,,,,,,,,
,,,,,66589e8fcd6777edf59bd70b,6682b41eeb79ab8215dff63d,6682ddc1d66ba08ec7a2105a,,,,2024-07-01_17h59.56.229,ABmemTask3,2023.2.3,Win32,58.82352941,,,,,,,,,,,,,,,,,,,,,,,,,,,,,,,,,,,,,,,,,,,,,,,,,,,,,,,,,,,,,,,,,,,,,,,,,,,,,,,,,,,,,,,,,,,,,,,,,,,,,,,,,,,388.1608,388.1608,,,,,,,,,,,,,,,,,,,,,,,,,,,,,,,,,,,,,,,,,,,,,,,,,,,,,,,,,,,,,,,,,,,,,,,,,,,,,,,,,,,,,,,,,,,,,,,
,,,,,66589e8fcd6777edf59bd70b,6682b41eeb79ab8215dff63d,6682ddc1d66ba08ec7a2105a,,,,2024-07-01_17h59.56.229,ABmemTask3,2023.2.3,Win32,58.82352941,,,,,,,,,,,,,,,,,,,,,,,,,,,,,,,,,,,,,,,,,,,,,,,,,,,,,,,,,,,,,,,,,,,,,,,,,,,,,,,,,,,,,,,,,,,,,,,,,,,,,,,,,,,388.1617,388.1617,,,,,,,,,,,,,,,,,,,,,,,,,,,,,,,,,,,,,,,,,,,,,,,,,,,,,,,,,,,,,,,,,,,,,,,,,,,,,,,,,,,,,,,,,,,,,,,
,,,,,66589e8fcd6777edf59bd70b,6682b41eeb79ab8215dff63d,6682ddc1d66ba08ec7a2105a,,,,2024-07-01_17h59.56.229,ABmemTask3,2023.2.3,Win32,58.82352941,,,,,,,,,,,,,,,,,,,,,,,,,,,,,,,,,,,,,,,,,,,,,,,,,,,,,,,,,,,,,,,,,,,,,,,,,,,,,,,,,,,,,,,,,,,,,,,,,,,,,,,,,,,388.1622,388.1622,,,,,,,,,,,,,,,,,,,,,,,,,,,,,,,,,,,,,,,,,,,,,,,,,,,,,,,,,,,,,,,,,,,,,,,,,,,,,,,,,,,,,,,,,,,,,,,
,,,,,66589e8fcd6777edf59bd70b,6682b41eeb79ab8215dff63d,6682ddc1d66ba08ec7a2105a,,,,2024-07-01_17h59.56.229,ABmemTask3,2023.2.3,Win32,58.82352941,,,,,,,,,,,,,,,,,,,,,,,,,,,,,,,,,,,,,,,,,,,,,,,,,,,,,,,,,,,,,,,,,,,,,,,,,,,,,,,,,,,,,,,,,,,,,,,,,,,,,,,,,,,388.1627,388.1627,,,,,,,,,,,,,,,,,,,,,,,,,,,,,,,,,,,,,,,,,,,,,,,,,,,,,,,,,,,,,,,,,,,,,,,,,,,,,,,,,,,,,,,,,,,,,,,
,,,,,66589e8fcd6777edf59bd70b,6682b41eeb79ab8215dff63d,6682ddc1d66ba08ec7a2105a,,,,2024-07-01_17h59.56.229,ABmemTask3,2023.2.3,Win32,58.82352941,,,,,,,,,,,,,,,,,,,,,,,,,,,,,,,,,,,,,,,,,,,,,,,,,,,,,,,,,,,,,,,,,,,,,,,,,,,,,,,,,,,,,,,,,,,,,,,,,,,,,,,,,,,388.1636,388.1636,,,,,,,,,,,,,,,,,,,,,,,,,,,,,,,,,,,,,,,,,,,,,,,,,,,,,,,,,,,,,,,,,,,,,,,,,,,,,,,,,,,,,,,,,,,,,,,
,,,,,66589e8fcd6777edf59bd70b,6682b41eeb79ab8215dff63d,6682ddc1d66ba08ec7a2105a,,,,2024-07-01_17h59.56.229,ABmemTask3,2023.2.3,Win32,58.82352941,,,,,,,,,,,,,,,,,,,,,,,,,,,,,,,,,,,,,,,,,,,,,,,,,,,,,,,,,,,,,,,,,,,,,,,,,,,,,,,,,,,,,,,,,,,,,,,,,,,,,,,,,,,388.1642,388.1642,,,,,,,,,,,,,,,,,,,,,,,,,,,,,,,,,,,,,,,,,,,,,,,,,,,,,,,,,,,,,,,,,,,,,,,,,,,,,,,,,,,,,,,,,,,,,,,
,,,,,66589e8fcd6777edf59bd70b,6682b41eeb79ab8215dff63d,6682ddc1d66ba08ec7a2105a,,,,2024-07-01_17h59.56.229,ABmemTask3,2023.2.3,Win32,58.82352941,,,,,,,,,,,,,,,,,,,,,,,,,,,,,,,,,,,,,,,,,,,,,,,,,,,,,,,,,,,,,,,,,,,,,,,,,,,,,,,,,,,,,,,,,,,,,,,,,,,,,,,,,,,,,,,,388.1643,410.294,space,22.1041,,,,,,,,,,,,,,,,,,,,,,,,,,,,,,,,,,,,,,,,,,,,,,,,,,,,,,,,,,,,,,,,,,,,,,,,,,,,,,,,,,,,,,,,
,,,,,66589e8fcd6777edf59bd70b,6682b41eeb79ab8215dff63d,6682ddc1d66ba08ec7a2105a,,,,2024-07-01_17h59.56.229,ABmemTask3,2023.2.3,Win32,58.82352941,,,,,,,,,,,,,,,,,,,,,,,,,,,,,,,,,410.3026,588,410.7981,,,,,,,,,,,,,,,,,,,,,,,,,,0,,,,,,,,,prac_MEM,old,,,,,,,,,,,10,,,,,,,,,,,,,,,,,,,,,,,,,,,,,,,,,,,410.7983,414.592,3,6,3.7713,,414.5932,415.5909,0,0,0,3,1,4,1,pics/shorts01.jpg,,,,,,,,,,,,,,,,,,,,,,,,,,,,,,,,,,,,,,,,,,,,,,,,,,,,,,,,,,,,,,,,,,,,,,,
,,,,,66589e8fcd6777edf59bd70b,6682b41eeb79ab8215dff63d,6682ddc1d66ba08ec7a2105a,,,,2024-07-01_17h59.56.229,ABmemTask3,2023.2.3,Win32,58.82352941,,,,,,,,,,,,,,,,,,,,,,,,,,,,,,,,,415.5979,588,416.0897,,,,,,,,,,,,,,,,,,,,,,,,,,0,,,,,,,,,prac_MEM,old,,,,,,,,,,,10,,,,,,,,,,,,,,,,,,,,,,,,,,,,,,,,,,,416.0898,418.3056,6,6,2.1885,,418.3083,419.3109,0,1,1,6,1,12,5,pics/humanskull.jpg,,,,,,,,,,,,,,,,,,,,,,,,,,,,,,,,,,,,,,,,,,,,,,,,,,,,,,,,,,,,,,,,,,,,,,,
,,,,,66589e8fcd6777edf59bd70b,6682b41eeb79ab8215dff63d,6682ddc1d66ba08ec7a2105a,,,,2024-07-01_17h59.56.229,ABmemTask3,2023.2.3,Win32,58.82352941,,,,,,,,,,,,,,,,,,,,,,,,,,,,,,,,,419.3163,588,419.8059,,,,,,,,,,,,,,,,,,,,,,,,,,0,,,,,,,,,prac_MEM,old,,,,,,,,,,,10,,,,,,,,,,,,,,,,,,,,,,,,,,,,,,,,,,,419.8061,422.0586,9,6,2.2296,,422.0586,423.0606,0,2,2,0,1,1,1,pics/tree.jpg,,,,,,,,,,,,,,,,,,,,,,,,,,,,,,,,,,,,,,,,,,,,,,,,,,,,,,,,,,,,,,,,,,,,,,,
,,,,,66589e8fcd6777edf59bd70b,6682b41eeb79ab8215dff63d,6682ddc1d66ba08ec7a2105a,,,,2024-07-01_17h59.56.229,ABmemTask3,2023.2.3,Win32,58.82352941,,,,,,,,,,,,,,,,,,,,,,,,,,,,,,,,,423.0734,588,423.5774,,,,,,,,,,,,,,,,,,,,,,,,,,0,,,,,,,,,prac_MEM,new,,,,,,,,,,,10,,,,,,,,,,,,,,,,,,,,,,,,,,,,,,,,,,,423.5774,426.0378,12,1,2.437,,426.0397,427.0424,0,3,3,10,1,999,999,pics/tomato01.jpg,,,,,,,,,,,,,,,,,,,,,,,,,,,,,,,,,,,,,,,,,,,,,,,,,,,,,,,,,,,,,,,,,,,,,,,
,,,,,66589e8fcd6777edf59bd70b,6682b41eeb79ab8215dff63d,6682ddc1d66ba08ec7a2105a,,,,2024-07-01_17h59.56.229,ABmemTask3,2023.2.3,Win32,58.82352941,,,,,,,,,,,,,,,,,,,,,,,,,,,,,,,,,427.0519,588,427.5533,,,,,,,,,,,,,,,,,,,,,,,,,,0,,,,,,,,,prac_MEM,new,,,,,,,,,,,10,,,,,,,,,,,,,,,,,,,,,,,,,,,,,,,,,,,427.5534,428.6276,15,1,1.0502,,428.6286,429.6207,0,4,4,8,1,999,999,pics/thread02.jpg,,,,,,,,,,,,,,,,,,,,,,,,,,,,,,,,,,,,,,,,,,,,,,,,,,,,,,,,,,,,,,,,,,,,,,,
,,,,,66589e8fcd6777edf59bd70b,6682b41eeb79ab8215dff63d,6682ddc1d66ba08ec7a2105a,,,,2024-07-01_17h59.56.229,ABmemTask3,2023.2.3,Win32,58.82352941,,,,,,,,,,,,,,,,,,,,,,,,,,,,,,,,,429.6221,588,430.1195,,,,,,,,,,,,,,,,,,,,,,,,,,0,,,,,,,,,prac_MEM,new,,,,,,,,,,,10,,,,,,,,,,,,,,,,,,,,,,,,,,,,,,,,,,,430.1197,431.7039,18,1,1.5602,,431.7044,432.7074,0,5,5,7,1,999,999,pics/cherry01.jpg,,,,,,,,,,,,,,,,,,,,,,,,,,,,,,,,,,,,,,,,,,,,,,,,,,,,,,,,,,,,,,,,,,,,,,,
,,,,,66589e8fcd6777edf59bd70b,6682b41eeb79ab8215dff63d,6682ddc1d66ba08ec7a2105a,,,,2024-07-01_17h59.56.229,ABmemTask3,2023.2.3,Win32,58.82352941,,,,,,,,,,,,,,,,,,,,,,,,,,,,,,,,,432.7162,588,433.2243,,,,,,,,,,,,,,,,,,,,,,,,,,0,,,,,,,,,prac_MEM,new,,,,,,,,,,,10,,,,,,,,,,,,,,,,,,,,,,,,,,,,,,,,,,,433.2244,434.3916,21,1,1.1503,,434.3925,435.3841,0,6,6,9,1,999,999,pics/moth.jpg,,,,,,,,,,,,,,,,,,,,,,,,,,,,,,,,,,,,,,,,,,,,,,,,,,,,,,,,,,,,,,,,,,,,,,,
,,,,,66589e8fcd6777edf59bd70b,6682b41eeb79ab8215dff63d,6682ddc1d66ba08ec7a2105a,,,,2024-07-01_17h59.56.229,ABmemTask3,2023.2.3,Win32,58.82352941,,,,,,,,,,,,,,,,,,,,,,,,,,,,,,,,,435.3852,588,435.8843,,,,,,,,,,,,,,,,,,,,,,,,,,0,,,,,,,,,prac_MEM,old,,,,,,,,,,,10,,,,,,,,,,,,,,,,,,,,,,,,,,,,,,,,,,,435.8844,437.874,24,6,1.966,,437.8743,438.8668,0,7,7,5,1,11,5,pics/grater01a.jpg,,,,,,,,,,,,,,,,,,,,,,,,,,,,,,,,,,,,,,,,,,,,,,,,,,,,,,,,,,,,,,,,,,,,,,,
,,,,,66589e8fcd6777edf59bd70b,6682b41eeb79ab8215dff63d,6682ddc1d66ba08ec7a2105a,,,,2024-07-01_17h59.56.229,ABmemTask3,2023.2.3,Win32,58.82352941,,,,,,,,,,,,,,,,,,,,,,,,,,,,,,,,,438.8762,588,439.3723,,,,,,,,,,,,,,,,,,,,,,,,,,0,,,,,,,,,prac_MEM,old,,,,,,,,,,,10,,,,,,,,,,,,,,,,,,,,,,,,,,,,,,,,,,,439.3724,442.0391,21,1,2.6497,,442.0401,443.0369,0,8,8,4,1,5,1,pics/tongs01b.jpg,,,,,,,,,,,,,,,,,,,,,,,,,,,,,,,,,,,,,,,,,,,,,,,,,,,,,,,,,,,,,,,,,,,,,,,
,,,,,66589e8fcd6777edf59bd70b,6682b41eeb79ab8215dff63d,6682ddc1d66ba08ec7a2105a,,,,2024-07-01_17h59.56.229,ABmemTask3,2023.2.3,Win32,58.82352941,,,,,,,,,,,,,,,,,,,,,,,,,,,,,,,,,443.0509,588,443.5481,,,,,,,,,,,,,,,,,,,,,,,,,,0,,,,,,,,,prac_MEM,old,,,,,,,,,,,10,,,,,,,,,,,,,,,,,,,,,,,,,,,,,,,,,,,443.5483,445.5699,24,6,1.9981,,445.5708,446.5696,0,9,9,1,1,2,1,pics/pants.jpg,,,,,,,,,,,,,,,,,,,,,,,,,,,,,,,,,,,,,,,,,,,,,,,,,,,,,,,,,,,,,,,,,,,,,,,
,,,,,66589e8fcd6777edf59bd70b,6682b41eeb79ab8215dff63d,6682ddc1d66ba08ec7a2105a,,,,2024-07-01_17h59.56.229,ABmemTask3,2023.2.3,Win32,58.82352941,,,,,,,,,,,,,,,,,,,,,,,,,,,,,,,,,446.5837,588,447.0817,,,,,,,,,,,,,,,,,,,,,,,,,,0,,,,,,,,,prac_MEM,old,,,,,,,,,,,10,,,,,,,,,,,,,,,,,,,,,,,,,,,,,,,,,,,447.0817,449.4793,27,6,2.3736,,449.4812,450.469,0,10,10,2,1,3,1,pics/sturgeon.jpg,,,,,,,,,,,,,,,,,,,,,,,,,,,,,,,,,,,,,,,,,,,,,,,,,,,,,,,,,,,,,,,,,,,,,,,
,,,,,66589e8fcd6777edf59bd70b,6682b41eeb79ab8215dff63d,6682ddc1d66ba08ec7a2105a,,,,2024-07-01_17h59.56.229,ABmemTask3,2023.2.3,Win32,58.82352941,,,,,,,,,,,,,,,,,,,,,,,,,,,,,,,,,,,,,,,,,,,,,,,,,,,,,,,,,,,,,,,,,,,,,,,,,,,,,,,,,,,,,,,,,,,,,,,,,,,,,,,,,,,,,,,,,,,,,,,,,,,,,,,,,,,,,450.4698,451.9165,451.9167,451.9171,,,,,,,,,,,,,,,,,,,,,,,,,,,,,,,,,,,,,,,,,,,,,,,,,,,,,,,,,,,,,,,,,,,
,,,,,66589e8fcd6777edf59bd70b,6682b41eeb79ab8215dff63d,6682ddc1d66ba08ec7a2105a,,,,2024-07-01_17h59.56.229,ABmemTask3,2023.2.3,Win32,58.82352941,,,,,,,,,,,,,,,,,,space,35.1101,,,,,,,,,,,,,,,,,,,,,,,,,,,,,,,,,,,,,,,,,,,,,,,,,,,,,,,,,,,,,,,,,,,,,,,,,,,,,,,,,,,,,,,,,,,,,,,,,,,,,,,,,,,,,,,,,,,,,,451.9174,487.0571,,,,,,,,,,,,,,,,,,,,,,,,,,,,,,,,,,,,,,,,,,,,,,,,,,,,,,,,,,,,,,,,,
,,,,,66589e8fcd6777edf59bd70b,6682b41eeb79ab8215dff63d,6682ddc1d66ba08ec7a2105a,,,,2024-07-01_17h59.56.229,ABmemTask3,2023.2.3,Win32,58.82352941,,,,,,,,,,,,,,,,,,,,,,,,,,,,,,,,,,,,,,,,,,,,,,,,,,,,,,,,,,,,,,,,,,,,,,,,,,,,,,,,,,,,,,,,,,,,,,,,,,,,,,,,,,,,,,,,,,,,,,,,,,,,,,,,,,,,,,,,,,,487.0571,494.2877,space,7.2105,,,,,,,,,,,,,,,,,,,,,,,,,,,,,,,,,,,,,,,,,,,,,,,,,,,,,,,,,,,,,
,,,,,66589e8fcd6777edf59bd70b,6682b41eeb79ab8215dff63d,6682ddc1d66ba08ec7a2105a,,,,2024-07-01_17h59.56.229,ABmemTask3,2023.2.3,Win32,58.82352941,,,,,,,,,,,,,,,,,,,,,,,,,,,,,,,494.2922,495.2858,495.2858,7,495.7837,497.2963,0.0009,497.4124,0.113,0.1219,0.111,0.1191,0.1202,0.1165,0.1111,0.1212,0.1125,0.1177,0.1159,497.413,498.2526,right,0.817,,498.2526,498.8017,right,0.5326,,2,0,2,498.8018,499.7945,,,,,,1_AB,L5_T1P_T2P,5,1,1,5,10,4,4,14,Fox,Did you see the Fox,0.12,0,resources/,pics/hammerheadshark.jpg,pics/bowlingpin.jpg,pics/pictureframe04.jpg,pics/peanut01.jpg,pics/redfox.jpg,pics/cymbal.jpg,pics/spoon01.jpg,pics/banjo.jpg,pics/butterfly.jpg,pics/stapler11.jpg,pics/football.jpg,pics/safetypin.jpg,pics/triangle.jpg,pics/onion.jpg,blankImage,blankImage,blankImage,redfox,45,0.1213,0.1109,,,,,,,,,,,,,,,,,,,,,,,,,,,,,,,,,,,,,,,0,0,0,44,1,,,,,,,,,,,,,,,,,,,,,,,,,,,,,,,,,,,,,,,,,,,,,,,,,,,,,,,
,,,,,66589e8fcd6777edf59bd70b,6682b41eeb79ab8215dff63d,6682ddc1d66ba08ec7a2105a,,,,2024-07-01_17h59.56.229,ABmemTask3,2023.2.3,Win32,58.82352941,,,,,,,,,,,,,,,,,,,,,,,,,,,,,,,499.7965,500.7951,500.7953,7,501.2837,502.2115,0.001,502.3337,0.1115,0.1161,0.1162,0.1217,0.1116,0.1228,0.1099,0.1174,,,,502.3339,503.7991,left,1.4452,,503.7992,504.9106,left,1.0908,,2,0,4,504.9109,505.91,,,,,,1_AB,L1_T1P_T2A,1,1,0,4,5,3,4,9,blueberry,Did you see the blueberry,0.12,0,resources/,pics/sealion.jpg,pics/piggybank.jpg,pics/sink.jpg,pics/blueberry01.jpg,pics/onion.jpg,pics/sailboat.jpg,pics/seaturtle.jpg,pics/hen.jpg,pics/fanblades.jpg,blankImage,blankImage,blankImage,blankImage,blankImage,blankImage,blankImage,blankImage,blueberry01,35,,,,,,,,,,,,,,,,,,,,,,,,,,,,,,,,,,,,,,,,,0,1,1,34,1,,,,,,,,,,,,,,,,,,,,,,,,,,,,,,,,,,,,,,,,,,,,,,,,,,,,,,,
,,,,,66589e8fcd6777edf59bd70b,6682b41eeb79ab8215dff63d,6682ddc1d66ba08ec7a2105a,,,,2024-07-01_17h59.56.229,ABmemTask3,2023.2.3,Win32,58.82352941,,,,,,,,,,,,,,,,,,,,,,,,,,,,,,,505.9169,506.9152,506.9152,7,507.4164,508.8114,0.0016,508.9311,0.1141,0.1186,0.1159,0.1177,0.1149,0.1158,0.1128,0.122,0.116,0.1136,0.1153,508.9312,510.1585,right,1.2047,,510.1586,511.6977,right,1.5167,,4,0,6,511.6978,512.6913,,,,,,1_AB,L1_T1P_T2P,1,1,1,7,8,6,5,13,Totem Pole,Did you see the Totem Pole,0.12,0,resources/,pics/laptop01a.jpg,pics/carrot01.jpg,pics/wheel01.jpg,pics/icecube01.jpg,pics/ashtray01.jpg,pics/lock03a.jpg,pics/totempole.jpg,pics/stapler08.jpg,pics/golfball.jpg,pics/pencil01.jpg,pics/banjo.jpg,pics/sandbarshark.jpg,pics/shipinabottle.jpg,blankImage,blankImage,blankImage,blankImage,totempole,22,0.1169,,,,,,,,,,,,,,,,,,,,,,,,,,,,,,,,,,,,,,,,0,2,2,21,1,,,,,,,,,,,,,,,,,,,,,,,,,,,,,,,,,,,,,,,,,,,,,,,,,,,,,,,
,,,,,66589e8fcd6777edf59bd70b,6682b41eeb79ab8215dff63d,6682ddc1d66ba08ec7a2105a,,,,2024-07-01_17h59.56.229,ABmemTask3,2023.2.3,Win32,58.82352941,,,,,,,,,,,,,,,,,,,,,,,,,,,,,,,512.7098,513.7128,513.7128,7,514.2071,515.6073,0.003,515.7299,0.1146,0.1179,0.1175,0.1152,0.123,0.1132,0.1152,0.1185,0.1139,0.1162,0.1208,515.7301,516.4599,right,0.7134,,516.4599,516.8639,right,0.3844,,6,0,8,516.864,517.8625,,,,,,1_AB,L5_T1P_T2P,5,1,1,4,9,3,4,13,Forklift,Did you see the Forklift,0.12,0,resources/,pics/dustpan.jpg,pics/table01.jpg,pics/sink.jpg,pics/forklift.jpg,pics/dromedary.jpg,pics/proboscismonkey.jpg,pics/cymbal.jpg,pics/shovel01.jpg,pics/stapler10.jpg,pics/backpack01a.jpg,pics/binder03b.jpg,pics/banjo.jpg,pics/candleholder01.jpg,blankImage,blankImage,blankImage,blankImage,forklift,47,0.112,,,,,,,,,,,,,,,,,,,,,,,,,,,,,,,,,,,,,,,,0,3,3,46,1,,,,,,,,,,,,,,,,,,,,,,,,,,,,,,,,,,,,,,,,,,,,,,,,,,,,,,,
,,,,,66589e8fcd6777edf59bd70b,6682b41eeb79ab8215dff63d,6682ddc1d66ba08ec7a2105a,,,,2024-07-01_17h59.56.229,ABmemTask3,2023.2.3,Win32,58.82352941,,,,,,,,,,,,,,,,,,,,,,,,,,,,,,,517.8633,518.8558,518.8559,7,519.3614,520.2946,0.0016,520.4057,0.1101,0.1223,0.1153,0.1179,0.1156,0.1169,0.1123,0.122,,,,520.4061,521.3719,right,0.9356,,521.3721,521.7086,right,0.3143,,8,0,10,521.7088,522.7083,,,,,,1_AB,L1_T1P_T2P,1,1,1,5,6,4,3,9,Ant,Did you see the Ant,0.12,0,resources/,pics/kangaroo.jpg,pics/giraffe.jpg,pics/footballhelmet.jpg,pics/onion.jpg,pics/ant.jpg,pics/stapler04b.jpg,pics/banjo.jpg,pics/zebra.jpg,pics/dromedary.jpg,blankImage,blankImage,blankImage,blankImage,blankImage,blankImage,blankImage,blankImage,ant,15,,,,,,,,,,,,,,,,,,,,,,,,,,,,,,,,,,,,,,,,,0,4,4,14,1,,,,,,,,,,,,,,,,,,,,,,,,,,,,,,,,,,,,,,,,,,,,,,,,,,,,,,,
,,,,,66589e8fcd6777edf59bd70b,6682b41eeb79ab8215dff63d,6682ddc1d66ba08ec7a2105a,,,,2024-07-01_17h59.56.229,ABmemTask3,2023.2.3,Win32,58.82352941,,,,,,,,,,,,,,,,,,,,,,,,,,,,,,,522.709,523.7043,523.7045,7,524.1926,525.3547,0.0014,525.4701,0.1131,0.1207,0.1176,0.1099,0.1157,0.1178,0.1176,0.1195,0.1135,0.1162,,525.4704,526.47,right,0.9717,,526.4703,526.8097,right,0.3166,,10,0,12,526.8097,527.8072,,,,,,1_AB,L1_T1P_T2P,1,1,1,7,8,6,3,11,medal,Did you see the medal,0.12,0,resources/,pics/hen.jpg,pics/starfish01.jpg,pics/nutcracker01.jpg,pics/ball02.jpg,pics/fanblades.jpg,pics/christmaslights.jpg,pics/medal02b.jpg,pics/stapler09.jpg,pics/carrot01.jpg,pics/hammerheadshark.jpg,pics/sailboat.jpg,blankImage,blankImage,blankImage,blankImage,blankImage,blankImage,medal02b,19,,,,,,,,,,,,,,,,,,,,,,,,,,,,,,,,,,,,,,,,,0,5,5,18,1,,,,,,,,,,,,,,,,,,,,,,,,,,,,,,,,,,,,,,,,,,,,,,,,,,,,,,,
,,,,,66589e8fcd6777edf59bd70b,6682b41eeb79ab8215dff63d,6682ddc1d66ba08ec7a2105a,,,,2024-07-01_17h59.56.229,ABmemTask3,2023.2.3,Win32,58.82352941,,,,,,,,,,,,,,,,,,,,,,,,,,,,,,,527.808,528.8067,528.8068,7,529.3078,530.5897,0.0009,530.707,0.1161,0.1186,0.1163,0.1153,0.1126,0.1158,0.1169,0.1166,0.1205,0.1123,0.12,530.7071,531.2578,right,0.5334,,531.2581,531.5245,right,0.2501,,12,0,14,531.5246,532.5165,,,,,,1_AB,L1_T1P_T2P,1,1,1,6,7,5,5,12,Bear,Did you see the Bear,0.12,0,resources/,pics/necklace.jpg,pics/hen.jpg,pics/dromedary.jpg,pics/piggybank.jpg,pics/sandbarshark.jpg,pics/grizzly.jpg,pics/stapler12.jpg,pics/bowlingpin.jpg,pics/christmaslights.jpg,pics/icecube01.jpg,pics/match.jpg,pics/lock03a.jpg,blankImage,blankImage,blankImage,blankImage,blankImage,grizzly,18,,,,,,,,,,,,,,,,,,,,,,,,,,,,,,,,,,,,,,,,,0,6,6,17,1,,,,,,,,,,,,,,,,,,,,,,,,,,,,,,,,,,,,,,,,,,,,,,,,,,,,,,,
,,,,,66589e8fcd6777edf59bd70b,6682b41eeb79ab8215dff63d,6682ddc1d66ba08ec7a2105a,,,,2024-07-01_17h59.56.229,ABmemTask3,2023.2.3,Win32,58.82352941,,,,,,,,,,,,,,,,,,,,,,,,,,,,,,,532.5178,533.5241,533.5241,7,534.0235,535.4226,0.0019,535.5331,0.1161,0.1173,0.1157,0.112,0.1158,0.1214,0.1167,0.1116,0.1166,0.1229,0.1109,535.5335,536.2831,right,0.7199,,536.2831,536.5732,right,0.2677,,14,0,16,536.5733,537.5687,,,,,,1_AB,L1_T1P_T2P,1,1,1,7,8,6,5,13,strawberry,Did you see the strawberry,0.12,0,resources/,pics/sealion.jpg,pics/backpack01a.jpg,pics/binoculars01b.jpg,pics/ball02.jpg,pics/proboscismonkey.jpg,pics/pictureframe04.jpg,pics/strawberry.jpg,pics/stapler12.jpg,pics/seaturtle.jpg,pics/dustpan.jpg,pics/bowlingpin.jpg,pics/hammerheadshark.jpg,pics/hen.jpg,blankImage,blankImage,blankImage,blankImage,strawberry,10,0.1209,,,,,,,,,,,,,,,,,,,,,,,,,,,,,,,,,,,,,,,,0,7,7,9,1,,,,,,,,,,,,,,,,,,,,,,,,,,,,,,,,,,,,,,,,,,,,,,,,,,,,,,,
,,,,,66589e8fcd6777edf59bd70b,6682b41eeb79ab8215dff63d,6682ddc1d66ba08ec7a2105a,,,,2024-07-01_17h59.56.229,ABmemTask3,2023.2.3,Win32,58.82352941,,,,,,,,,,,,,,,,,,,,,,,,,,,,,,,537.5693,538.5655,538.5656,7,539.0705,540.1165,0.0022,540.2376,0.111,0.1167,0.1242,0.1089,0.1195,0.112,0.1228,0.1148,0.1151,,,540.238,541.438,right,1.1833,,541.4381,542.4705,right,1.017,,16,0,18,542.4707,543.4639,,,,,,1_AB,L1_T1P_T2P,1,1,1,4,5,3,5,10,flute,Did you see the flute,0.12,0,resources/,pics/peach01.jpg,pics/seaturtle.jpg,pics/dromedary.jpg,pics/recorder01.jpg,pics/stapler08.jpg,pics/giraffe.jpg,pics/blender.jpg,pics/necklace.jpg,pics/sink.jpg,pics/dustpan.jpg,blankImage,blankImage,blankImage,blankImage,blankImage,blankImage,blankImage,recorder01,7,,,,,,,,,,,,,,,,,,,,,,,,,,,,,,,,,,,,,,,,,0,8,8,6,1,,,,,,,,,,,,,,,,,,,,,,,,,,,,,,,,,,,,,,,,,,,,,,,,,,,,,,,
,,,,,66589e8fcd6777edf59bd70b,6682b41eeb79ab8215dff63d,6682ddc1d66ba08ec7a2105a,,,,2024-07-01_17h59.56.229,ABmemTask3,2023.2.3,Win32,58.82352941,,,,,,,,,,,,,,,,,,,,,,,,,,,,,,,543.4804,544.4697,544.4698,7,544.9632,546.0142,0.0023,546.1357,0.1166,0.1166,0.1164,0.1214,0.1228,0.1058,0.1168,0.1221,0.1106,,,546.1358,547.5456,left,1.387,,547.5457,548.6021,right,1.034,,18,0,20,548.6021,549.6002,,,,,,1_AB,L1_T1A_T2P,1,0,1,5,6,4,4,10,button,Did you see the button,0.12,0,resources/,pics/pencil01.jpg,pics/necklace.jpg,pics/sink.jpg,pics/noparkingsign.jpg,pics/banjo.jpg,pics/stapler03b.jpg,pics/candle01.jpg,pics/icecube01.jpg,pics/shovel01.jpg,pics/pencilsharpener02a.jpg,blankImage,blankImage,blankImage,blankImage,blankImage,blankImage,blankImage,button01,25,,,,,,,,,,,,,,,,,,,,,,,,,,,,,,,,,,,,,,,,,0,9,9,24,1,,,,,,,,,,,,,,,,,,,,,,,,,,,,,,,,,,,,,,,,,,,,,,,,,,,,,,,
,,,,,66589e8fcd6777edf59bd70b,6682b41eeb79ab8215dff63d,6682ddc1d66ba08ec7a2105a,,,,2024-07-01_17h59.56.229,ABmemTask3,2023.2.3,Win32,58.82352941,,,,,,,,,,,,,,,,,,,,,,,,,,,,,,,549.6168,550.6123,550.6125,7,551.1171,552.1678,0.0008,552.278,0.1177,0.1116,0.121,0.1112,0.1171,0.1168,0.1207,0.1177,0.1161,,,552.2783,553.199,right,0.8985,,553.1991,553.6007,right,0.3839,,16,0,22,553.6008,554.5996,,,,,,1_AB,L1_T1P_T2A,1,1,0,6,7,5,3,10,Duct tape,Did you see the Duct tape,0.12,0,resources/,pics/butterfly.jpg,pics/noparkingsign.jpg,pics/pictureframe04.jpg,pics/cork02.jpg,pics/fanblades.jpg,pics/ducttape.jpg,pics/icecube01.jpg,pics/siamesecat.jpg,pics/sink.jpg,pics/sandbarshark.jpg,blankImage,blankImage,blankImage,blankImage,blankImage,blankImage,blankImage,ducttape,36,,,,,,,,,,,,,,,,,,,,,,,,,,,,,,,,,,,,,,,,,0,10,10,35,1,,,,,,,,,,,,,,,,,,,,,,,,,,,,,,,,,,,,,,,,,,,,,,,,,,,,,,,
,,,,,66589e8fcd6777edf59bd70b,6682b41eeb79ab8215dff63d,6682ddc1d66ba08ec7a2105a,,,,2024-07-01_17h59.56.229,ABmemTask3,2023.2.3,Win32,58.82352941,,,,,,,,,,,,,,,,,,,,,,,,,,,,,,,554.6009,555.5979,555.598,7,556.0985,557.1417,0.0009,557.2589,0.1162,0.1185,0.1137,0.1178,0.1137,0.1206,0.1174,0.11,0.1144,,,557.2592,558.6495,right,1.3671,,558.6495,559.3984,left,0.7335,,16,0,24,559.3985,560.3974,,,,,,1_AB,L1_T1P_T2P,1,1,1,4,5,3,5,10,vacuum,Did you see the vacuum,0.12,0,resources/,pics/birdhouse.jpg,pics/floortile02.jpg,pics/toiletpaper01a.jpg,pics/vacuumcleaner01.jpg,pics/stapler02.jpg,pics/spoon01.jpg,pics/banjo.jpg,pics/binder03b.jpg,pics/leaf02a.jpg,pics/aquarium.jpg,blankImage,blankImage,blankImage,blankImage,blankImage,blankImage,blankImage,vacuumcleaner01,5,,,,,,,,,,,,,,,,,,,,,,,,,,,,,,,,,,,,,,,,,0,11,11,4,1,,,,,,,,,,,,,,,,,,,,,,,,,,,,,,,,,,,,,,,,,,,,,,,,,,,,,,,
,,,,,66589e8fcd6777edf59bd70b,6682b41eeb79ab8215dff63d,6682ddc1d66ba08ec7a2105a,,,,2024-07-01_17h59.56.229,ABmemTask3,2023.2.3,Win32,58.82352941,,,,,,,,,,,,,,,,,,,,,,,,,,,,,,,560.4118,561.4102,561.4103,7,561.9146,563.4242,0.0015,563.5397,0.1093,0.1194,0.1185,0.1168,0.1164,0.1125,0.1226,0.1112,0.1213,0.1171,0.1095,563.54,564.2172,right,0.6515,,564.2174,564.4732,right,0.2357,,18,0,26,564.4734,565.4639,,,,,,1_AB,L5_T1P_T2P,5,1,1,4,9,3,5,14,pliers,Did you see the pliers,0.12,0,resources/,pics/calendar.jpg,pics/footballhelmet.jpg,pics/seaturtle.jpg,pics/pliers02b.jpg,pics/wheel01.jpg,pics/cannon.jpg,pics/proboscismonkey.jpg,pics/shovel01.jpg,pics/stapler06.jpg,pics/football.jpg,pics/hose.jpg,pics/dustpan.jpg,pics/spiderweb.jpg,pics/golfball.jpg,blankImage,blankImage,blankImage,pliers02b,48,0.1202,0.1134,,,,,,,,,,,,,,,,,,,,,,,,,,,,,,,,,,,,,,,0,12,12,47,1,,,,,,,,,,,,,,,,,,,,,,,,,,,,,,,,,,,,,,,,,,,,,,,,,,,,,,,
,,,,,66589e8fcd6777edf59bd70b,6682b41eeb79ab8215dff63d,6682ddc1d66ba08ec7a2105a,,,,2024-07-01_17h59.56.229,ABmemTask3,2023.2.3,Win32,58.82352941,,,,,,,,,,,,,,,,,,,,,,,,,,,,,,,565.4806,566.473,566.4731,7,566.9627,568.0069,0.0015,568.1223,0.1165,0.1157,0.1116,0.127,0.1084,0.114,0.1166,0.1167,0.1164,,,568.1227,569.1452,right,0.9999,,569.1453,569.3623,right,0.2025,,16,0,28,569.3624,570.3553,,,,,,1_AB,L1_T1P_T2A,1,1,0,6,7,5,3,10,Electric toothbrush,Did you see the Electric toothbrush,0.12,0,resources/,pics/football.jpg,pics/sailboat.jpg,pics/cymbal.jpg,pics/hen.jpg,pics/pencil01.jpg,pics/electrictoothbrush01c.jpg,pics/bowlingpin.jpg,pics/wheel01.jpg,pics/birdhouse.jpg,pics/leaf02a.jpg,blankImage,blankImage,blankImage,blankImage,blankImage,blankImage,blankImage,electrictoothbrush01c,34,,,,,,,,,,,,,,,,,,,,,,,,,,,,,,,,,,,,,,,,,0,13,13,33,1,,,,,,,,,,,,,,,,,,,,,,,,,,,,,,,,,,,,,,,,,,,,,,,,,,,,,,,
,,,,,66589e8fcd6777edf59bd70b,6682b41eeb79ab8215dff63d,6682ddc1d66ba08ec7a2105a,,,,2024-07-01_17h59.56.229,ABmemTask3,2023.2.3,Win32,58.82352941,,,,,,,,,,,,,,,,,,,,,,,,,,,,,,,570.3571,571.359,571.359,7,571.86,573.0223,0.0007,573.1376,0.115,0.1146,0.1217,0.1101,0.1225,0.1172,0.1104,0.1169,0.1207,0.1128,,573.1381,574.2108,right,1.0506,,574.2109,574.6041,right,0.3721,,18,0,30,574.6043,575.6101,,,,,,1_AB,L1_T1P_T2P,1,1,1,7,8,6,3,11,sock,Did you see the sock,0.12,0,resources/,pics/hen.jpg,pics/christmaslights.jpg,pics/salmon.jpg,pics/sealion.jpg,pics/seaturtle.jpg,pics/giraffe.jpg,pics/athleticsock.jpg,pics/stapler01.jpg,pics/shovel01.jpg,pics/leaf02a.jpg,pics/backpack01a.jpg,blankImage,blankImage,blankImage,blankImage,blankImage,blankImage,athleticsock,11,,,,,,,,,,,,,,,,,,,,,,,,,,,,,,,,,,,,,,,,,0,14,14,10,1,,,,,,,,,,,,,,,,,,,,,,,,,,,,,,,,,,,,,,,,,,,,,,,,,,,,,,,
,,,,,66589e8fcd6777edf59bd70b,6682b41eeb79ab8215dff63d,6682ddc1d66ba08ec7a2105a,,,,2024-07-01_17h59.56.229,ABmemTask3,2023.2.3,Win32,58.82352941,,,,,,,,,,,,,,,,,,,,,,,,,,,,,,,575.6254,576.6244,576.6245,7,577.1243,578.9901,0.0022,579.1024,0.1147,0.1124,0.119,0.1144,0.1235,0.1121,0.1196,0.1125,0.1174,0.12,0.1172,579.1029,580.7349,left,1.6066,,580.735,581.7921,right,1.0344,,16,0,32,581.7922,582.7869,,,,,,1_AB,L5_T1A_T2A,5,0,0,7,12,6,5,17,Bib,Did you see the Bib,0.12,0,resources/,pics/hammerheadshark.jpg,pics/wheel01.jpg,pics/binder03b.jpg,pics/hairdryer02a.jpg,pics/christmaslights.jpg,pics/sandbarshark.jpg,pics/binoculars01b.jpg,pics/piggybank.jpg,pics/aquarium.jpg,pics/candleholder01.jpg,pics/sink.jpg,pics/calendar.jpg,pics/birdhouse.jpg,pics/bowtie.jpg,pics/onion.jpg,pics/golfball.jpg,pics/sailboat.jpg,bib,62,0.1158,0.1121,0.1197,,,,,,,,,,,,,,,,,,,,,,,,,,,,,,,,,,,,,,0,15,15,61,1,0.1133,0.1202,,,,,,,,,,,,,,,,,,,,,,,,,,,,,,,,,,,,,,,,,,,,,,,,,,,,,
,,,,,66589e8fcd6777edf59bd70b,6682b41eeb79ab8215dff63d,6682ddc1d66ba08ec7a2105a,,,,2024-07-01_17h59.56.229,ABmemTask3,2023.2.3,Win32,58.82352941,,,,,,,,,,,,,,,,,,,,,,,,,,,,,,,582.8032,583.8058,583.8059,7,584.3071,585.4722,0.0019,585.5853,0.1142,0.1178,0.1173,0.1163,0.1139,0.1133,0.1166,0.1169,0.1151,0.122,,585.5854,587.1229,right,1.5163,,587.123,587.8567,right,0.7179,,14,0,34,587.8568,588.849,,,,,,1_AB,L1_T1P_T2A,1,1,0,6,7,5,4,11,lamp,Did you see the lamp,0.12,0,resources/,pics/chainsaw.jpg,pics/fanblades.jpg,pics/salmon.jpg,pics/proboscismonkey.jpg,pics/boot02b.jpg,pics/lamp04a.jpg,pics/blender.jpg,pics/sink.jpg,pics/pencil01.jpg,pics/floortile02.jpg,pics/shovel01.jpg,blankImage,blankImage,blankImage,blankImage,blankImage,blankImage,lamp04a,37,,,,,,,,,,,,,,,,,,,,,,,,,,,,,,,,,,,,,,,,,0,16,16,36,1,,,,,,,,,,,,,,,,,,,,,,,,,,,,,,,,,,,,,,,,,,,,,,,,,,,,,,,
,,,,,66589e8fcd6777edf59bd70b,6682b41eeb79ab8215dff63d,6682ddc1d66ba08ec7a2105a,,,,2024-07-01_17h59.56.229,ABmemTask3,2023.2.3,Win32,58.82352941,,,,,,,,,,,,,,,,,,,,,,,,,,,,,,,588.8607,589.8484,589.8486,7,590.3544,591.8653,0.0017,591.9863,0.1122,0.1152,0.1166,0.119,0.1198,0.1153,0.116,0.1177,0.1166,0.1171,0.1107,591.9863,593.0368,right,1.0344,,593.0369,594.5033,right,1.4498,,12,0,36,594.5033,595.4963,,,,,,1_AB,L5_T1P_T2A,5,1,0,6,11,5,3,14,Kiwi,Did you see the Kiwi,0.12,0,resources/,pics/candleholder01.jpg,pics/kangaroo.jpg,pics/banjo.jpg,pics/binoculars01b.jpg,pics/microscope.jpg,pics/kiwi03.jpg,pics/bowtie.jpg,pics/peanut01.jpg,pics/backpack01a.jpg,pics/zebra.jpg,pics/toiletpaper01a.jpg,pics/hen.jpg,pics/spoon01.jpg,pics/calendar.jpg,blankImage,blankImage,blankImage,kiwi03,59,0.1158,0.1176,,,,,,,,,,,,,,,,,,,,,,,,,,,,,,,,,,,,,,,0,17,17,58,1,,,,,,,,,,,,,,,,,,,,,,,,,,,,,,,,,,,,,,,,,,,,,,,,,,,,,,,
,,,,,66589e8fcd6777edf59bd70b,6682b41eeb79ab8215dff63d,6682ddc1d66ba08ec7a2105a,,,,2024-07-01_17h59.56.229,ABmemTask3,2023.2.3,Win32,58.82352941,,,,,,,,,,,,,,,,,,,,,,,,,,,,,,,595.4982,596.4957,596.4958,7,596.9859,598.2679,0.0018,598.3815,0.1152,0.1174,0.116,0.1119,0.1186,0.1196,0.1123,0.1185,0.1178,0.1155,0.1176,598.3816,600.2185,right,1.8169,,600.2187,600.8007,right,0.5666,,10,0,38,600.8008,601.7995,,,,,,1_AB,L1_T1P_T2A,1,1,0,7,8,6,4,12,Tennis racket,Did you see the Tennis racket,0.12,0,resources/,pics/banjo.jpg,pics/leaf02a.jpg,pics/shovel01.jpg,pics/microscope.jpg,pics/cork02.jpg,pics/seagull.jpg,pics/tennisracket.jpg,pics/binder03b.jpg,pics/floortile02.jpg,pics/carrot01.jpg,pics/candle01.jpg,pics/siamesecat.jpg,blankImage,blankImage,blankImage,blankImage,blankImage,tennisracket,38,,,,,,,,,,,,,,,,,,,,,,,,,,,,,,,,,,,,,,,,,0,18,18,37,1,,,,,,,,,,,,,,,,,,,,,,,,,,,,,,,,,,,,,,,,,,,,,,,,,,,,,,,
,,,,,66589e8fcd6777edf59bd70b,6682b41eeb79ab8215dff63d,6682ddc1d66ba08ec7a2105a,,,,2024-07-01_17h59.56.229,ABmemTask3,2023.2.3,Win32,58.82352941,,,,,,,,,,,,,,,,,,,,,,,,,,,,,,,601.8159,602.8172,602.8173,7,603.3095,604.5955,0.0029,604.7086,0.116,0.123,0.1105,0.1163,0.1172,0.1171,0.1193,0.1153,0.1204,0.1112,0.1174,604.709,605.6595,right,0.9222,,605.6601,606.0261,right,0.3411,,12,0,40,606.0264,607.0256,,,,,,1_AB,L1_T1P_T2P,1,1,1,6,7,5,5,12,jeep,Did you see the jeep,0.12,0,resources/,pics/sandbarshark.jpg,pics/laptop01a.jpg,pics/peach01.jpg,pics/binoculars01b.jpg,pics/giraffe.jpg,pics/jeep.jpg,pics/stapler03b.jpg,pics/fanblades.jpg,pics/cannon.jpg,pics/starfish01.jpg,pics/piggybank.jpg,pics/noparkingsign.jpg,blankImage,blankImage,blankImage,blankImage,blankImage,jeep,2,,,,,,,,,,,,,,,,,,,,,,,,,,,,,,,,,,,,,,,,,0,19,19,1,1,,,,,,,,,,,,,,,,,,,,,,,,,,,,,,,,,,,,,,,,,,,,,,,,,,,,,,,
,,,,,66589e8fcd6777edf59bd70b,6682b41eeb79ab8215dff63d,6682ddc1d66ba08ec7a2105a,,,,2024-07-01_17h59.56.229,ABmemTask3,2023.2.3,Win32,58.82352941,,,,,,,,,,,,,,,,,,,,,,,,,,,,,,,607.0274,608.0308,608.0308,7,608.5317,609.4637,0.0021,609.5768,0.115,0.1161,0.1145,0.1186,0.1164,0.1147,0.1191,0.1156,,,,609.5769,610.5748,right,0.975,,610.575,611.3301,left,0.7339,,12,0,42,611.3301,612.3237,,,,,,1_AB,L1_T1P_T2P,1,1,1,4,5,3,4,9,antenna,Did you see the antenna,0.12,0,resources/,pics/microscope.jpg,pics/spoon01.jpg,pics/dromedary.jpg,pics/antenna.jpg,pics/stapler03.jpg,pics/hen.jpg,pics/leaf02a.jpg,pics/candle01.jpg,pics/sealion.jpg,blankImage,blankImage,blankImage,blankImage,blankImage,blankImage,blankImage,blankImage,antenna,9,,,,,,,,,,,,,,,,,,,,,,,,,,,,,,,,,,,,,,,,,0,20,20,8,1,,,,,,,,,,,,,,,,,,,,,,,,,,,,,,,,,,,,,,,,,,,,,,,,,,,,,,,
,,,,,66589e8fcd6777edf59bd70b,6682b41eeb79ab8215dff63d,6682ddc1d66ba08ec7a2105a,,,,2024-07-01_17h59.56.229,ABmemTask3,2023.2.3,Win32,58.82352941,,,,,,,,,,,,,,,,,,,,,,,,,,,,,,,612.3423,613.3463,613.3464,7,613.8404,615.3574,0.0032,615.4721,0.1206,0.1109,0.1229,0.1098,0.1174,0.1212,0.1116,0.1174,0.1192,0.1137,0.1162,615.4725,616.8781,left,1.3826,,616.8781,617.2466,right,0.3511,,12,0,44,617.2467,618.2414,,,,,,1_AB,L5_T1P_T2P,5,1,1,6,11,5,3,14,truck,Did you see the truck,0.12,0,resources/,pics/calendar.jpg,pics/mummy.jpg,pics/ashtray01.jpg,pics/pencilsharpener02a.jpg,pics/dustpan.jpg,pics/boxtruck.jpg,pics/lightswitch01.jpg,pics/pictureframe04.jpg,pics/starfish01.jpg,pics/zebra.jpg,pics/stapler12.jpg,pics/bowtie.jpg,pics/candleholder01.jpg,pics/candle01.jpg,blankImage,blankImage,blankImage,boxtruck,50,0.1193,0.1147,,,,,,,,,,,,,,,,,,,,,,,,,,,,,,,,,,,,,,,0,21,21,49,1,,,,,,,,,,,,,,,,,,,,,,,,,,,,,,,,,,,,,,,,,,,,,,,,,,,,,,,
,,,,,66589e8fcd6777edf59bd70b,6682b41eeb79ab8215dff63d,6682ddc1d66ba08ec7a2105a,,,,2024-07-01_17h59.56.229,ABmemTask3,2023.2.3,Win32,58.82352941,,,,,,,,,,,,,,,,,,,,,,,,,,,,,,,618.2576,619.2552,619.2553,7,619.7589,620.688,0.0008,620.8039,0.1147,0.1147,0.1219,0.1169,0.1119,0.1214,0.1168,0.1103,,,,620.8044,622.0387,right,1.2108,,622.0388,622.3097,right,0.2507,,14,0,46,622.3097,623.3105,,,,,,1_AB,L1_T1P_T2P,1,1,1,5,6,4,3,9,paint brush,Did you see the paint brush,0.12,0,resources/,pics/nutcracker01.jpg,pics/piggybank.jpg,pics/spiderweb.jpg,pics/table01.jpg,pics/paintbrush01.jpg,pics/stapler09.jpg,pics/hose.jpg,pics/cannon.jpg,pics/mummy.jpg,blankImage,blankImage,blankImage,blankImage,blankImage,blankImage,blankImage,blankImage,paintbrush01,20,,,,,,,,,,,,,,,,,,,,,,,,,,,,,,,,,,,,,,,,,0,22,22,19,1,,,,,,,,,,,,,,,,,,,,,,,,,,,,,,,,,,,,,,,,,,,,,,,,,,,,,,,
,,,,,66589e8fcd6777edf59bd70b,6682b41eeb79ab8215dff63d,6682ddc1d66ba08ec7a2105a,,,,2024-07-01_17h59.56.229,ABmemTask3,2023.2.3,Win32,58.82352941,,,,,,,,,,,,,,,,,,,,,,,,,,,,,,,623.3116,624.3046,624.3047,7,624.8036,625.9696,0.0014,626.0883,0.1208,0.1168,0.111,0.1167,0.117,0.1163,0.1186,0.115,0.1162,0.1165,,626.0883,626.9256,right,0.8168,,626.9256,627.1574,right,0.2166,,12,0,48,627.1575,628.154,,,,,,1_AB,L1_T1P_T2A,1,1,0,7,8,6,3,11,Spear,Did you see the Spear,0.12,0,resources/,pics/butterfly.jpg,pics/banjo.jpg,pics/chainsaw.jpg,pics/christmaslights.jpg,pics/dustpan.jpg,pics/shovel01.jpg,pics/spear02.jpg,pics/table01.jpg,pics/starfish01.jpg,pics/bowlingpin.jpg,pics/carrot01.jpg,blankImage,blankImage,blankImage,blankImage,blankImage,blankImage,spear02,39,,,,,,,,,,,,,,,,,,,,,,,,,,,,,,,,,,,,,,,,,0,23,23,38,1,,,,,,,,,,,,,,,,,,,,,,,,,,,,,,,,,,,,,,,,,,,,,,,,,,,,,,,
,,,,,66589e8fcd6777edf59bd70b,6682b41eeb79ab8215dff63d,6682ddc1d66ba08ec7a2105a,,,,2024-07-01_17h59.56.229,ABmemTask3,2023.2.3,Win32,58.82352941,,,,,,,,,,,,,,,,,,,,,,,,,,,,,,,628.1545,629.154,629.154,7,629.6572,631.2849,0.0009,631.4003,0.1108,0.1166,0.1228,0.1108,0.1161,0.117,0.1161,0.1166,0.1225,0.1111,0.1167,631.4006,633.0501,right,1.6203,,633.0504,634.2003,right,1.1246,,14,0,50,634.2004,635.1882,,,,,,1_AB,L5_T1P_T2P,5,1,1,5,10,4,5,15,ribbon,Did you see the ribbon,0.12,0,resources/,pics/giraffe.jpg,pics/boot02b.jpg,pics/cymbal.jpg,pics/leaf02a.jpg,pics/ribbon04.jpg,pics/lightswitch01.jpg,pics/necklace.jpg,pics/calendar.jpg,pics/kangaroo.jpg,pics/stapler12.jpg,pics/hose.jpg,pics/carrot01.jpg,pics/match.jpg,pics/sink.jpg,pics/candleholder01.jpg,blankImage,blankImage,ribbon04,53,0.1186,0.1144,0.117,,,,,,,,,,,,,,,,,,,,,,,,,,,,,,,,,,,,,,0,24,24,52,1,,,,,,,,,,,,,,,,,,,,,,,,,,,,,,,,,,,,,,,,,,,,,,,,,,,,,,,
,,,,,66589e8fcd6777edf59bd70b,6682b41eeb79ab8215dff63d,6682ddc1d66ba08ec7a2105a,,,,2024-07-01_17h59.56.229,ABmemTask3,2023.2.3,Win32,58.82352941,,,,,,,,,,,,,,,,,,,,,,,,,,,,,,,635.1968,636.1882,636.1883,7,636.6879,638.0882,0.0009,638.2039,0.1108,0.1171,0.1162,0.1164,0.1219,0.1174,0.1108,0.1168,0.1218,0.117,0.1163,638.2039,639.4707,left,1.2503,,639.4708,640.8473,left,1.3575,,16,0,52,640.8475,641.8357,,,,,,1_AB,L1_T1A_T2A,1,0,0,7,8,6,5,13,fan,Did you see the fan,0.12,0,resources/,pics/leaf02a.jpg,pics/dustpan.jpg,pics/pencil01.jpg,pics/kangaroo.jpg,pics/golfball.jpg,pics/lightswitch01.jpg,pics/nutcracker01.jpg,pics/calendar.jpg,pics/hose.jpg,pics/starfish01.jpg,pics/siamesecat.jpg,pics/bowlingpin.jpg,pics/necklace.jpg,blankImage,blankImage,blankImage,blankImage,fan,42,0.1171,,,,,,,,,,,,,,,,,,,,,,,,,,,,,,,,,,,,,,,,0,25,25,41,1,,,,,,,,,,,,,,,,,,,,,,,,,,,,,,,,,,,,,,,,,,,,,,,,,,,,,,,
,,,,,66589e8fcd6777edf59bd70b,6682b41eeb79ab8215dff63d,6682ddc1d66ba08ec7a2105a,,,,2024-07-01_17h59.56.229,ABmemTask3,2023.2.3,Win32,58.82352941,,,,,,,,,,,,,,,,,,,,,,,,,,,,,,,641.8409,642.8358,642.8359,7,643.3289,644.4969,0.0026,644.6151,0.1156,0.123,0.1131,0.1187,0.1178,0.1111,0.1168,0.1168,0.1177,0.1151,,644.6152,645.8785,left,1.2421,,645.8787,646.3624,left,0.4575,,18,0,54,646.3627,647.3614,,,,,,1_AB,L1_T1A_T2A,1,0,0,7,8,6,3,11,Poker chips,Did you see the Poker chips,0.12,0,resources/,pics/candle01.jpg,pics/proboscismonkey.jpg,pics/fanblades.jpg,pics/dromedary.jpg,pics/aquarium.jpg,pics/salmon.jpg,pics/hose.jpg,pics/kangaroo.jpg,pics/noparkingsign.jpg,pics/carrot01.jpg,pics/leaf02a.jpg,blankImage,blankImage,blankImage,blankImage,blankImage,blankImage,pokerchips,41,,,,,,,,,,,,,,,,,,,,,,,,,,,,,,,,,,,,,,,,,0,26,26,40,1,,,,,,,,,,,,,,,,,,,,,,,,,,,,,,,,,,,,,,,,,,,,,,,,,,,,,,,
,,,,,66589e8fcd6777edf59bd70b,6682b41eeb79ab8215dff63d,6682ddc1d66ba08ec7a2105a,,,,2024-07-01_17h59.56.229,ABmemTask3,2023.2.3,Win32,58.82352941,,,,,,,,,,,,,,,,,,,,,,,,,,,,,,,647.363,648.3513,648.3513,7,648.8447,649.7818,0.0019,649.8942,0.1161,0.122,0.1108,0.1171,0.1216,0.1172,0.1108,0.1197,,,,649.8945,651.7442,left,1.8186,,651.7444,652.0429,left,0.2757,,16,0,56,652.0431,653.0501,,,,,,1_AB,L1_T1P_T2P,1,1,1,4,5,3,4,9,Chefs hat,Did you see the Chefs hat,0.12,0,resources/,pics/sewingmachine01a.jpg,pics/icecube01.jpg,pics/fanblades.jpg,pics/chefshat.jpg,pics/stapler06.jpg,pics/ashtray01.jpg,pics/blender.jpg,pics/sandbarshark.jpg,pics/lock03a.jpg,blankImage,blankImage,blankImage,blankImage,blankImage,blankImage,blankImage,blankImage,chefshat,12,,,,,,,,,,,,,,,,,,,,,,,,,,,,,,,,,,,,,,,,,0,27,27,11,1,,,,,,,,,,,,,,,,,,,,,,,,,,,,,,,,,,,,,,,,,,,,,,,,,,,,,,,
,,,,,66589e8fcd6777edf59bd70b,6682b41eeb79ab8215dff63d,6682ddc1d66ba08ec7a2105a,,,,2024-07-01_17h59.56.229,ABmemTask3,2023.2.3,Win32,58.82352941,,,,,,,,,,,,,,,,,,,,,,,,,,,,,,,653.0559,654.0453,654.0453,7,654.5427,656.1757,0.0022,656.2943,0.1157,0.1186,0.1151,0.1165,0.116,0.1229,0.1163,0.1103,0.1186,0.1149,0.1162,656.2944,657.3823,left,1.0674,,657.3823,657.7578,left,0.3575,,16,0,58,657.7581,658.7576,,,,,,1_AB,L5_T1A_T2P,5,0,1,7,12,6,3,15,scissors,Did you see the scissors,0.12,0,resources/,pics/cannon.jpg,pics/mummy.jpg,pics/shovel01.jpg,pics/christmaslights.jpg,pics/snowshoe.jpg,pics/candle01.jpg,pics/bowtie.jpg,pics/giraffe.jpg,pics/carrot01.jpg,pics/spoon01.jpg,pics/seaturtle.jpg,pics/stapler10.jpg,pics/footballhelmet.jpg,pics/onion.jpg,pics/wheel01.jpg,blankImage,blankImage,scissors01,57,0.1167,0.1172,0.1158,,,,,,,,,,,,,,,,,,,,,,,,,,,,,,,,,,,,,,0,28,28,56,1,,,,,,,,,,,,,,,,,,,,,,,,,,,,,,,,,,,,,,,,,,,,,,,,,,,,,,,
,,,,,66589e8fcd6777edf59bd70b,6682b41eeb79ab8215dff63d,6682ddc1d66ba08ec7a2105a,,,,2024-07-01_17h59.56.229,ABmemTask3,2023.2.3,Win32,58.82352941,,,,,,,,,,,,,,,,,,,,,,,,,,,,,,,658.7592,659.7631,659.7631,7,660.257,661.1909,0.0021,661.3069,0.1198,0.1189,0.1104,0.1167,0.1172,0.1155,0.1172,0.1165,,,,661.3072,662.2733,left,0.9352,,662.2735,662.6227,left,0.337,,16,0,60,662.6229,663.6247,,,,,,1_AB,L1_T1A_T2P,1,0,1,5,6,4,3,9,Trailer,Did you see the Trailer,0.12,0,resources/,pics/pencil01.jpg,pics/football.jpg,pics/hairdryer02a.jpg,pics/wheel01.jpg,pics/chainsaw.jpg,pics/stapler10.jpg,pics/peanut01.jpg,pics/triangle.jpg,pics/sink.jpg,blankImage,blankImage,blankImage,blankImage,blankImage,blankImage,blankImage,blankImage,boxtrailer,29,,,,,,,,,,,,,,,,,,,,,,,,,,,,,,,,,,,,,,,,,0,29,29,28,1,,,,,,,,,,,,,,,,,,,,,,,,,,,,,,,,,,,,,,,,,,,,,,,,,,,,,,,
,,,,,66589e8fcd6777edf59bd70b,6682b41eeb79ab8215dff63d,6682ddc1d66ba08ec7a2105a,,,,2024-07-01_17h59.56.229,ABmemTask3,2023.2.3,Win32,58.82352941,,,,,,,,,,,,,,,,,,,,,,,,,,,,,,,663.6261,664.6226,664.6229,7,665.129,666.64,0.0018,666.7565,0.113,0.1163,0.1139,0.1177,0.118,0.1186,0.1176,0.1106,0.1232,0.1115,0.115,666.7568,671.5039,left,4.7195,,671.5041,671.6745,left,0.1486,,16,0,62,671.6746,672.67,,,,,,1_AB,L5_T1P_T2A,5,1,0,4,9,3,5,14,Frisbee,Did you see the Frisbee,0.12,0,resources/,pics/giraffe.jpg,pics/christmaslights.jpg,pics/bowtie.jpg,pics/frisbee.jpg,pics/banjo.jpg,pics/calendar.jpg,pics/butterfly.jpg,pics/onion.jpg,pics/starfish01.jpg,pics/footballhelmet.jpg,pics/blender.jpg,pics/candleholder01.jpg,pics/hairdryer02a.jpg,pics/dromedary.jpg,blankImage,blankImage,blankImage,frisbee,58,0.1176,0.1172,,,,,,,,,,,,,,,,,,,,,,,,,,,,,,,,,,,,,,,0,30,30,57,1,,,,,,,,,,,,,,,,,,,,,,,,,,,,,,,,,,,,,,,,,,,,,,,,,,,,,,,
,,,,,66589e8fcd6777edf59bd70b,6682b41eeb79ab8215dff63d,6682ddc1d66ba08ec7a2105a,,,,2024-07-01_17h59.56.229,ABmemTask3,2023.2.3,Win32,58.82352941,,,,,,,,,,,,,,,,,,,,,,,,,,,,,,,672.6911,673.6859,673.6861,7,674.1859,675.357,0.0023,675.472,0.1218,0.1114,0.1209,0.1127,0.1164,0.1158,0.1172,0.1166,0.1219,0.1142,,675.4721,677.1729,right,1.6809,,677.1731,678.5736,left,1.3832,,16,0,64,678.5736,679.5731,,,,,,1_AB,L1_T1P_T2P,1,1,1,7,8,6,3,11,toothpick,Did you see the toothpick,0.12,0,resources/,pics/candleholder01.jpg,pics/blender.jpg,pics/siamesecat.jpg,pics/peanut01.jpg,pics/spiderweb.jpg,pics/football.jpg,pics/toothpick02.jpg,pics/stapler04b.jpg,pics/seagull.jpg,pics/pictureframe04.jpg,pics/shipinabottle.jpg,blankImage,blankImage,blankImage,blankImage,blankImage,blankImage,toothpick02,17,,,,,,,,,,,,,,,,,,,,,,,,,,,,,,,,,,,,,,,,,0,31,31,16,1,,,,,,,,,,,,,,,,,,,,,,,,,,,,,,,,,,,,,,,,,,,,,,,,,,,,,,,
,,,,,66589e8fcd6777edf59bd70b,6682b41eeb79ab8215dff63d,6682ddc1d66ba08ec7a2105a,,,,2024-07-01_17h59.56.229,ABmemTask3,2023.2.3,Win32,58.82352941,,,,,,,,,,,,,,,,,,,,,,,,,,,,,,,679.5786,680.567,680.5672,7,681.0731,682.5861,0.0019,682.707,0.113,0.1133,0.117,0.1158,0.122,0.1124,0.1201,0.1189,0.1133,0.1185,0.1169,682.7071,683.5852,right,0.8632,,683.5852,683.8031,right,0.1982,,18,0,66,683.8031,684.8043,,,,,,1_AB,L5_T1P_T2P,5,1,1,6,11,5,3,14,mail box,Did you see the mail box,0.12,0,resources/,pics/pictureframe04.jpg,pics/seaturtle.jpg,pics/blender.jpg,pics/carrot01.jpg,pics/nutcracker01.jpg,pics/mailbox02.jpg,pics/seagull.jpg,pics/sink.jpg,pics/siamesecat.jpg,pics/spiderweb.jpg,pics/stapler08.jpg,pics/safetypin.jpg,pics/candle01.jpg,pics/mummy.jpg,blankImage,blankImage,blankImage,mailbox02,43,0.1121,0.1179,,,,,,,,,,,,,,,,,,,,,,,,,,,,,,,,,,,,,,,0,32,32,42,1,,,,,,,,,,,,,,,,,,,,,,,,,,,,,,,,,,,,,,,,,,,,,,,,,,,,,,,
,,,,,66589e8fcd6777edf59bd70b,6682b41eeb79ab8215dff63d,6682ddc1d66ba08ec7a2105a,,,,2024-07-01_17h59.56.229,ABmemTask3,2023.2.3,Win32,58.82352941,,,,,,,,,,,,,,,,,,,,,,,,,,,,,,,684.8047,685.8046,685.8047,7,686.303,687.2325,0.0013,687.3486,0.1177,0.1121,0.1216,0.1161,0.1168,0.1162,0.1171,0.1111,,,,687.3489,688.4881,left,1.1169,,688.4883,689.5164,left,1.0123,,20,0,68,689.5164,690.5199,,,,,,1_AB,L1_T1A_T2A,1,0,0,4,5,3,4,9,License Plate,Did you see the License Plate,0.12,0,resources/,pics/snowshoe.jpg,pics/kangaroo.jpg,pics/noparkingsign.jpg,pics/match.jpg,pics/hose.jpg,pics/blender.jpg,pics/ashtray01.jpg,pics/ball02.jpg,pics/sink.jpg,blankImage,blankImage,blankImage,blankImage,blankImage,blankImage,blankImage,blankImage,licenseplate,40,,,,,,,,,,,,,,,,,,,,,,,,,,,,,,,,,,,,,,,,,0,33,33,39,1,,,,,,,,,,,,,,,,,,,,,,,,,,,,,,,,,,,,,,,,,,,,,,,,,,,,,,,
,,,,,66589e8fcd6777edf59bd70b,6682b41eeb79ab8215dff63d,6682ddc1d66ba08ec7a2105a,,,,2024-07-01_17h59.56.229,ABmemTask3,2023.2.3,Win32,58.82352941,,,,,,,,,,,,,,,,,,,,,,,,,,,,,,,690.5356,691.5305,691.5306,7,692.0203,693.1802,0.0016,693.3026,0.1143,0.1159,0.1177,0.1176,0.1102,0.1213,0.1172,0.1124,0.115,0.1174,,693.3028,693.9359,right,0.6174,,693.9361,694.7453,right,0.7864,,18,0,70,694.7455,695.7343,,,,,,1_AB,L1_T1P_T2A,1,1,0,7,8,6,3,11,eggplant,Did you see the eggplant,0.12,0,resources/,pics/salmon.jpg,pics/fanblades.jpg,pics/hammerheadshark.jpg,pics/wheel01.jpg,pics/snowshoe.jpg,pics/birdhouse.jpg,pics/eggplant.jpg,pics/spiderweb.jpg,pics/zebra.jpg,pics/pencilsharpener02a.jpg,pics/backpack01a.jpg,blankImage,blankImage,blankImage,blankImage,blankImage,blankImage,eggplant,32,,,,,,,,,,,,,,,,,,,,,,,,,,,,,,,,,,,,,,,,,0,34,34,31,1,,,,,,,,,,,,,,,,,,,,,,,,,,,,,,,,,,,,,,,,,,,,,,,,,,,,,,,
,,,,,66589e8fcd6777edf59bd70b,6682b41eeb79ab8215dff63d,6682ddc1d66ba08ec7a2105a,,,,2024-07-01_17h59.56.229,ABmemTask3,2023.2.3,Win32,58.82352941,,,,,,,,,,,,,,,,,,,,,,,,,,,,,,,695.7353,696.7283,696.7285,7,697.2173,698.4946,0.0018,698.6163,0.1147,0.1165,0.1134,0.1199,0.1131,0.1155,0.1227,0.1153,0.1125,0.1161,0.117,698.6164,700.1334,right,1.5,,700.1334,700.7158,left,0.5668,,18,0,72,700.7159,701.7097,,,,,,1_AB,L1_T1P_T2P,1,1,1,7,8,6,4,12,hammer,Did you see the hammer,0.12,0,resources/,pics/microscope.jpg,pics/blender.jpg,pics/dustpan.jpg,pics/snowshoe.jpg,pics/mummy.jpg,pics/bowtie.jpg,pics/hammer01.jpg,pics/stapler04b.jpg,pics/seaturtle.jpg,pics/candle01.jpg,pics/necklace.jpg,pics/cannon.jpg,blankImage,blankImage,blankImage,blankImage,blankImage,hammer01,21,,,,,,,,,,,,,,,,,,,,,,,,,,,,,,,,,,,,,,,,,0,35,35,20,1,,,,,,,,,,,,,,,,,,,,,,,,,,,,,,,,,,,,,,,,,,,,,,,,,,,,,,,
,,,,,66589e8fcd6777edf59bd70b,6682b41eeb79ab8215dff63d,6682ddc1d66ba08ec7a2105a,,,,2024-07-01_17h59.56.229,ABmemTask3,2023.2.3,Win32,58.82352941,,,,,,,,,,,,,,,,,,,,,,,,,,,,,,,701.7111,702.7109,702.711,7,703.1999,704.8262,0.0022,704.9475,0.1085,0.1171,0.1191,0.1178,0.1179,0.1158,0.1175,0.1112,0.1167,0.1161,0.1173,704.9475,705.5416,right,0.5713,,705.5417,705.765,right,0.2012,,20,0,74,705.765,706.7581,,,,,,1_AB,L5_T1P_T2P,5,1,1,5,10,4,5,15,dolphin,Did you see the dolphin,0.12,0,resources/,pics/banjo.jpg,pics/shipinabottle.jpg,pics/laptop01a.jpg,pics/onion.jpg,pics/dolphin01.jpg,pics/sink.jpg,pics/seaturtle.jpg,pics/butterfly.jpg,pics/hen.jpg,pics/stapler10.jpg,pics/proboscismonkey.jpg,pics/starfish01.jpg,pics/salmon.jpg,pics/spiderweb.jpg,pics/cymbal.jpg,blankImage,blankImage,dolphin01,49,0.1166,0.1235,0.1097,,,,,,,,,,,,,,,,,,,,,,,,,,,,,,,,,,,,,,0,36,36,48,1,,,,,,,,,,,,,,,,,,,,,,,,,,,,,,,,,,,,,,,,,,,,,,,,,,,,,,,
,,,,,66589e8fcd6777edf59bd70b,6682b41eeb79ab8215dff63d,6682ddc1d66ba08ec7a2105a,,,,2024-07-01_17h59.56.229,ABmemTask3,2023.2.3,Win32,58.82352941,,,,,,,,,,,,,,,,,,,,,,,,,,,,,,,706.7599,707.7643,707.7643,7,708.2644,709.6593,0.0006,709.7756,0.1123,0.1186,0.1178,0.1183,0.1104,0.1212,0.1113,0.1173,0.1174,0.1201,0.1134,709.7756,711.0896,left,1.2843,,711.0897,712.1795,left,1.0828,,20,0,76,712.1797,713.1727,,,,,,1_AB,L1_T1A_T2P,1,0,1,7,8,6,5,13,statue,Did you see the statue,0.12,0,resources/,pics/giraffe.jpg,pics/seaturtle.jpg,pics/peach01.jpg,pics/boot02b.jpg,pics/backpack01a.jpg,pics/sandbarshark.jpg,pics/microscope.jpg,pics/stapler07.jpg,pics/snowshoe.jpg,pics/laptop01a.jpg,pics/necklace.jpg,pics/zebra.jpg,pics/carrot01.jpg,blankImage,blankImage,blankImage,blankImage,statue,27,0.1168,,,,,,,,,,,,,,,,,,,,,,,,,,,,,,,,,,,,,,,,0,37,37,26,1,,,,,,,,,,,,,,,,,,,,,,,,,,,,,,,,,,,,,,,,,,,,,,,,,,,,,,,
,,,,,66589e8fcd6777edf59bd70b,6682b41eeb79ab8215dff63d,6682ddc1d66ba08ec7a2105a,,,,2024-07-01_17h59.56.229,ABmemTask3,2023.2.3,Win32,58.82352941,,,,,,,,,,,,,,,,,,,,,,,,,,,,,,,713.1857,714.1796,714.1797,7,714.6726,715.8439,0.0028,715.9613,0.1212,0.1108,0.1203,0.1139,0.1167,0.116,0.1216,0.1121,0.1198,0.1173,,715.9614,717.1783,right,1.2009,,717.1784,717.4606,right,0.2661,,22,0,78,717.4608,718.4548,,,,,,1_AB,L1_T1P_T2P,1,1,1,7,8,6,3,11,pliers,Did you see the pliers,0.12,0,resources/,pics/mummy.jpg,pics/binder03b.jpg,pics/bowtie.jpg,pics/toiletpaper01a.jpg,pics/football.jpg,pics/blender.jpg,pics/needlenosepliers01.jpg,pics/stapler13.jpg,pics/zebra.jpg,pics/hammerheadshark.jpg,pics/sealion.jpg,blankImage,blankImage,blankImage,blankImage,blankImage,blankImage,needlenosepliers01,6,,,,,,,,,,,,,,,,,,,,,,,,,,,,,,,,,,,,,,,,,0,38,38,5,1,,,,,,,,,,,,,,,,,,,,,,,,,,,,,,,,,,,,,,,,,,,,,,,,,,,,,,,
,,,,,66589e8fcd6777edf59bd70b,6682b41eeb79ab8215dff63d,6682ddc1d66ba08ec7a2105a,,,,2024-07-01_17h59.56.229,ABmemTask3,2023.2.3,Win32,58.82352941,,,,,,,,,,,,,,,,,,,,,,,,,,,,,,,718.4735,719.4708,719.4709,7,719.9594,721.1225,0.0006,721.2422,0.1108,0.123,0.1157,0.1116,0.1168,0.1165,0.1216,0.1191,0.1152,0.1127,,721.2422,722.6859,right,1.4217,,722.6861,722.9112,right,0.2185,,24,0,80,722.9112,723.9018,,,,,,1_AB,L1_T1P_T2P,1,1,1,7,8,6,3,11,bird,Did you see the bird,0.12,0,resources/,pics/sealion.jpg,pics/backpack01a.jpg,pics/hose.jpg,pics/table01.jpg,pics/wheel01.jpg,pics/seaturtle.jpg,pics/americangoldfinch.jpg,pics/stapler08.jpg,pics/siamesecat.jpg,pics/hammerheadshark.jpg,pics/ashtray01.jpg,blankImage,blankImage,blankImage,blankImage,blankImage,blankImage,americangoldfinch,23,,,,,,,,,,,,,,,,,,,,,,,,,,,,,,,,,,,,,,,,,0,39,39,22,1,,,,,,,,,,,,,,,,,,,,,,,,,,,,,,,,,,,,,,,,,,,,,,,,,,,,,,,
,,,,,66589e8fcd6777edf59bd70b,6682b41eeb79ab8215dff63d,6682ddc1d66ba08ec7a2105a,,,,2024-07-01_17h59.56.229,ABmemTask3,2023.2.3,Win32,58.82352941,,,,,,,,,,,,,,,,,,,,,,,,,,,,,,,723.9031,724.9087,724.9089,7,725.4018,726.5742,0.0027,726.6921,0.1147,0.1209,0.119,0.1098,0.1214,0.1136,0.1174,0.1202,0.1115,0.1217,,726.6922,727.5257,right,0.818,,727.5259,727.7242,right,0.1841,,22,0,82,727.7243,728.7226,,,,,,1_AB,L1_T1P_T2A,1,1,0,7,8,6,3,11,garlic,Did you see the garlic,0.12,0,resources/,pics/zebra.jpg,pics/banjo.jpg,pics/pencilsharpener02a.jpg,pics/football.jpg,pics/candle01.jpg,pics/footballhelmet.jpg,pics/garlic01a.jpg,pics/birdhouse.jpg,pics/peach01.jpg,pics/pictureframe04.jpg,pics/binder03b.jpg,blankImage,blankImage,blankImage,blankImage,blankImage,blankImage,garlic01a,33,,,,,,,,,,,,,,,,,,,,,,,,,,,,,,,,,,,,,,,,,0,40,40,32,1,,,,,,,,,,,,,,,,,,,,,,,,,,,,,,,,,,,,,,,,,,,,,,,,,,,,,,,
,,,,,66589e8fcd6777edf59bd70b,6682b41eeb79ab8215dff63d,6682ddc1d66ba08ec7a2105a,,,,2024-07-01_17h59.56.229,ABmemTask3,2023.2.3,Win32,58.82352941,,,,,,,,,,,,,,,,,,,,,,,,,,,,,,,728.7229,729.7164,729.7165,7,730.2066,731.3731,0.0015,731.4839,0.1151,0.1153,0.1193,0.1157,0.1163,0.113,0.1153,0.1217,0.1125,0.1214,,731.4842,732.4717,left,0.9656,,732.4717,733.0716,left,0.5838,,22,0,84,733.0716,734.0708,,,,,,1_AB,L1_T1A_T2P,1,0,1,5,6,4,5,11,Recorder,Did you see the Recorder,0.12,0,resources/,pics/bowtie.jpg,pics/nutcracker01.jpg,pics/hairdryer02a.jpg,pics/shovel01.jpg,pics/onion.jpg,pics/stapler13.jpg,pics/safetypin.jpg,pics/spiderweb.jpg,pics/seagull.jpg,pics/dustpan.jpg,pics/icecube01.jpg,blankImage,blankImage,blankImage,blankImage,blankImage,blankImage,recorder04,28,,,,,,,,,,,,,,,,,,,,,,,,,,,,,,,,,,,,,,,,,0,41,41,27,1,,,,,,,,,,,,,,,,,,,,,,,,,,,,,,,,,,,,,,,,,,,,,,,,,,,,,,,
,,,,,66589e8fcd6777edf59bd70b,6682b41eeb79ab8215dff63d,6682ddc1d66ba08ec7a2105a,,,,2024-07-01_17h59.56.229,ABmemTask3,2023.2.3,Win32,58.82352941,,,,,,,,,,,,,,,,,,,,,,,,,,,,,,,734.0723,735.0726,735.0727,7,735.5649,736.5057,0.0023,736.6141,0.117,0.1165,0.1193,0.1154,0.1207,0.1164,0.1175,0.1163,,,,736.6142,737.9871,right,1.3499,,737.9873,738.8701,left,0.8671,,22,0,86,738.8701,739.8694,,,,,,1_AB,L1_T1P_T2P,1,1,1,5,6,4,3,9,cabbage,Did you see the cabbage,0.12,0,resources/,pics/match.jpg,pics/icecube01.jpg,pics/noparkingsign.jpg,pics/christmaslights.jpg,pics/cabbage.jpg,pics/stapler03a.jpg,pics/carrot01.jpg,pics/dustpan.jpg,pics/cannon.jpg,blankImage,blankImage,blankImage,blankImage,blankImage,blankImage,blankImage,blankImage,cabbage,14,,,,,,,,,,,,,,,,,,,,,,,,,,,,,,,,,,,,,,,,,0,42,42,13,1,,,,,,,,,,,,,,,,,,,,,,,,,,,,,,,,,,,,,,,,,,,,,,,,,,,,,,,
,,,,,66589e8fcd6777edf59bd70b,6682b41eeb79ab8215dff63d,6682ddc1d66ba08ec7a2105a,,,,2024-07-01_17h59.56.229,ABmemTask3,2023.2.3,Win32,58.82352941,,,,,,,,,,,,,,,,,,,,,,,,,,,,,,,739.8703,740.8629,740.8634,7,741.3692,742.6466,0.0019,742.7686,0.1155,0.1155,0.112,0.1187,0.1159,0.1158,0.116,0.1175,0.1198,0.1193,0.1103,742.7687,743.7784,right,0.9915,,743.7786,744.2785,right,0.4892,,24,0,88,744.2788,745.2778,,,,,,1_AB,L1_T1P_T2P,1,1,1,7,8,6,4,12,Turnstile,Did you see the Turnstile,0.12,0,resources/,pics/golfball.jpg,pics/hose.jpg,pics/siamesecat.jpg,pics/binoculars01b.jpg,pics/hen.jpg,pics/candleholder01.jpg,pics/turnstile.jpg,pics/stapler03a.jpg,pics/giraffe.jpg,pics/pictureframe04.jpg,pics/sandbarshark.jpg,pics/spoon01.jpg,blankImage,blankImage,blankImage,blankImage,blankImage,turnstile,13,,,,,,,,,,,,,,,,,,,,,,,,,,,,,,,,,,,,,,,,,0,43,43,12,1,,,,,,,,,,,,,,,,,,,,,,,,,,,,,,,,,,,,,,,,,,,,,,,,,,,,,,,
,,,,,66589e8fcd6777edf59bd70b,6682b41eeb79ab8215dff63d,6682ddc1d66ba08ec7a2105a,,,,2024-07-01_17h59.56.229,ABmemTask3,2023.2.3,Win32,58.82352941,,,,,,,,,,,,,,,,,,,,,,,,,,,,,,,745.2795,746.2691,746.2691,7,746.7611,747.9352,0.004,748.0441,0.1202,0.1152,0.1116,0.1167,0.1207,0.1135,0.1169,0.1208,0.1165,0.1182,,748.0445,749.1651,left,1.0979,,749.1652,750.5501,right,1.3674,,26,0,90,750.5502,751.5491,,,,,,1_AB,L1_T1A_T2P,1,0,1,7,8,6,3,11,turkey,Did you see the turkey,0.12,0,resources/,pics/proboscismonkey.jpg,pics/blender.jpg,pics/sealion.jpg,pics/snowshoe.jpg,pics/carrot01.jpg,pics/microscope.jpg,pics/piggybank.jpg,pics/stapler12.jpg,pics/peanut01.jpg,pics/dustpan.jpg,pics/footballhelmet.jpg,blankImage,blankImage,blankImage,blankImage,blankImage,blankImage,turkey,26,,,,,,,,,,,,,,,,,,,,,,,,,,,,,,,,,,,,,,,,,0,44,44,25,1,,,,,,,,,,,,,,,,,,,,,,,,,,,,,,,,,,,,,,,,,,,,,,,,,,,,,,,
,,,,,66589e8fcd6777edf59bd70b,6682b41eeb79ab8215dff63d,6682ddc1d66ba08ec7a2105a,,,,2024-07-01_17h59.56.229,ABmemTask3,2023.2.3,Win32,58.82352941,,,,,,,,,,,,,,,,,,,,,,,,,,,,,,,751.5691,752.5581,752.5582,7,753.0587,753.8763,0.0026,753.992,0.1162,0.1155,0.1173,0.116,0.1172,0.1145,0.119,,,,,753.9924,756.0748,left,2.0624,,756.0749,757.1567,right,1.0688,,28,0,92,757.1567,758.1564,,,,,,1_AB,L1_T1A_T2P,1,0,1,4,5,3,3,8,Parking meter,Did you see the Parking meter,0.12,0,resources/,pics/leaf02a.jpg,pics/carrot01.jpg,pics/sink.jpg,pics/butterfly.jpg,pics/stapler10.jpg,pics/pictureframe04.jpg,pics/spiderweb.jpg,pics/icecube01.jpg,blankImage,blankImage,blankImage,blankImage,blankImage,blankImage,blankImage,blankImage,blankImage,parkingmeter,30,,,,,,,,,,,,,,,,,,,,,,,,,,,,,,,,,,,,,,,,,0,45,45,29,1,,,,,,,,,,,,,,,,,,,,,,,,,,,,,,,,,,,,,,,,,,,,,,,,,,,,,,,
,,,,,66589e8fcd6777edf59bd70b,6682b41eeb79ab8215dff63d,6682ddc1d66ba08ec7a2105a,,,,2024-07-01_17h59.56.229,ABmemTask3,2023.2.3,Win32,58.82352941,,,,,,,,,,,,,,,,,,,,,,,,,,,,,,,758.1708,759.1729,759.1729,7,759.6724,761.0729,0.0014,761.1893,0.1167,0.1164,0.1175,0.1156,0.1165,0.1172,0.1157,0.1172,0.117,0.1176,0.117,761.1895,762.5389,left,1.3321,,762.539,763.7377,right,1.1822,,30,0,94,763.7378,764.737,,,,,,1_AB,L1_T1A_T2P,1,0,1,7,8,6,5,13,Basketball,Did you see the Basketball,0.12,0,resources/,pics/cork02.jpg,pics/table01.jpg,pics/christmaslights.jpg,pics/nutcracker01.jpg,pics/golfball.jpg,pics/hammerheadshark.jpg,pics/seaturtle.jpg,pics/stapler04b.jpg,pics/lock03a.jpg,pics/snowshoe.jpg,pics/sewingmachine01a.jpg,pics/peach01.jpg,pics/hose.jpg,blankImage,blankImage,blankImage,blankImage,basketball01,24,0.1164,,,,,,,,,,,,,,,,,,,,,,,,,,,,,,,,,,,,,,,,0,46,46,23,1,,,,,,,,,,,,,,,,,,,,,,,,,,,,,,,,,,,,,,,,,,,,,,,,,,,,,,,
,,,,,66589e8fcd6777edf59bd70b,6682b41eeb79ab8215dff63d,6682ddc1d66ba08ec7a2105a,,,,2024-07-01_17h59.56.229,ABmemTask3,2023.2.3,Win32,58.82352941,,,,,,,,,,,,,,,,,,,,,,,,,,,,,,,764.7439,765.7366,765.7366,7,766.2369,767.8698,0.0014,767.9864,0.1163,0.1158,0.1164,0.1166,0.1168,0.1176,0.1158,0.1164,0.1167,0.1166,0.1166,767.9865,768.77,right,0.7675,,768.7702,769.0694,right,0.2862,,32,0,96,769.0694,770.0697,,,,,,1_AB,L5_T1P_T2P,5,1,1,6,11,5,4,15,toast,Did you see the toast,0.12,0,resources/,pics/piggybank.jpg,pics/leaf02a.jpg,pics/carrot01.jpg,pics/birdhouse.jpg,pics/bowlingpin.jpg,pics/toast.jpg,pics/spiderweb.jpg,pics/cork02.jpg,pics/sink.jpg,pics/nutcracker01.jpg,pics/stapler02.jpg,pics/ashtray01.jpg,pics/fanblades.jpg,pics/pencil01.jpg,pics/lightswitch01.jpg,blankImage,blankImage,toast,46,0.1169,0.1169,0.1163,,,,,,,,,,,,,,,,,,,,,,,,,,,,,,,,,,,,,,0,47,47,45,1,,,,,,,,,,,,,,,,,,,,,,,,,,,,,,,,,,,,,,,,,,,,,,,,,,,,,,,
,,,,,66589e8fcd6777edf59bd70b,6682b41eeb79ab8215dff63d,6682ddc1d66ba08ec7a2105a,,,,2024-07-01_17h59.56.229,ABmemTask3,2023.2.3,Win32,58.82352941,,,,,,,,,,,,,,,,,,,,,,,,,,,,,,,770.0711,771.0693,771.0694,7,771.5688,772.6194,0.003,772.735,0.115,0.1162,0.1173,0.1155,0.1169,0.1164,0.1173,0.1168,0.1165,,,772.7351,774.1679,left,1.4099,,774.168,775.4183,right,1.235,,34,0,98,775.4185,776.4169,,,,,,1_AB,L1_T1A_T2P,1,0,1,5,6,4,4,10,Rabbit,Did you see the Rabbit,0.12,0,resources/,pics/cannon.jpg,pics/proboscismonkey.jpg,pics/salmon.jpg,pics/nutcracker01.jpg,pics/seagull.jpg,pics/stapler02.jpg,pics/table01.jpg,pics/laptop01a.jpg,pics/necklace.jpg,pics/pencilsharpener02a.jpg,blankImage,blankImage,blankImage,blankImage,blankImage,blankImage,blankImage,jackrabbit,31,,,,,,,,,,,,,,,,,,,,,,,,,,,,,,,,,,,,,,,,,0,48,48,30,1,,,,,,,,,,,,,,,,,,,,,,,,,,,,,,,,,,,,,,,,,,,,,,,,,,,,,,,
,,,,,66589e8fcd6777edf59bd70b,6682b41eeb79ab8215dff63d,6682ddc1d66ba08ec7a2105a,,,,2024-07-01_17h59.56.229,ABmemTask3,2023.2.3,Win32,58.82352941,,,,,,,,,,,,,,,,,,,,,,,,,,,,,,,776.4236,777.4214,777.4214,7,777.9245,779.083,0.002,779.1998,0.1153,0.1165,0.1163,0.1136,0.1149,0.1159,0.1167,0.1165,0.116,0.1152,,779.2001,781.9674,right,2.7437,,781.9676,782.5365,left,0.5624,,34,0,100,782.5366,783.5337,,,,,,1_AB,L1_T1P_T2P,1,1,1,7,8,6,3,11,Eiffel tower,Did you see the Eiffel tower,0.12,0,resources/,pics/seagull.jpg,pics/cymbal.jpg,pics/match.jpg,pics/binoculars01b.jpg,pics/ball02.jpg,pics/onion.jpg,pics/eiffeltower.jpg,pics/stapler11.jpg,pics/peach01.jpg,pics/sandbarshark.jpg,pics/boot02b.jpg,blankImage,blankImage,blankImage,blankImage,blankImage,blankImage,eiffeltower,1,,,,,,,,,,,,,,,,,,,,,,,,,,,,,,,,,,,,,,,,,0,49,49,0,1,,,,,,,,,,,,,,,,,,,,,,,,,,,,,,,,,,,,,,,,,,,,,,,,,,,,,,,
,,,,,66589e8fcd6777edf59bd70b,6682b41eeb79ab8215dff63d,6682ddc1d66ba08ec7a2105a,,,,2024-07-01_17h59.56.229,ABmemTask3,2023.2.3,Win32,58.82352941,,,,,,,,,,,,,,,,,,,,,,,,,,,,,,,783.5435,784.5323,784.5326,7,785.0371,786.3168,0.0011,786.4372,0.1104,0.1169,0.1172,0.1164,0.1221,0.1104,0.117,0.1184,0.1201,0.1163,0.1136,786.4372,787.663,left,1.2074,,787.6632,788.2636,right,0.5897,,36,0,102,788.2637,789.2627,,,,,,1_AB,L5_T1A_T2P,5,0,1,4,9,3,3,12,rooster,Did you see the rooster,0.12,0,resources/,pics/table01.jpg,pics/icecube01.jpg,pics/dustpan.jpg,pics/lock03a.jpg,pics/sailboat.jpg,pics/salmon.jpg,pics/banjo.jpg,pics/zebra.jpg,pics/stapler09.jpg,pics/peach01.jpg,pics/chainsaw.jpg,pics/football.jpg,blankImage,blankImage,blankImage,blankImage,blankImage,rooster,55,,,,,,,,,,,,,,,,,,,,,,,,,,,,,,,,,,,,,,,,,0,50,50,54,1,,,,,,,,,,,,,,,,,,,,,,,,,,,,,,,,,,,,,,,,,,,,,,,,,,,,,,,
,,,,,66589e8fcd6777edf59bd70b,6682b41eeb79ab8215dff63d,6682ddc1d66ba08ec7a2105a,,,,2024-07-01_17h59.56.229,ABmemTask3,2023.2.3,Win32,58.82352941,,,,,,,,,,,,,,,,,,,,,,,,,,,,,,,789.2709,790.2683,790.2683,7,790.768,792.3966,0.001,792.5181,0.1117,0.1167,0.1219,0.116,0.1167,0.1166,0.1112,0.1162,0.1179,0.1213,0.1117,792.5182,795.3156,left,2.7814,,795.3157,796.0838,right,0.7506,,38,0,104,796.0838,797.0826,,,,,,1_AB,L5_T1A_T2P,5,0,1,5,10,4,5,15,scorpion,Did you see the scorpion,0.12,0,resources/,pics/pictureframe04.jpg,pics/binder03b.jpg,pics/pencil01.jpg,pics/leaf02a.jpg,pics/icecube01.jpg,pics/dromedary.jpg,pics/toiletpaper01a.jpg,pics/peanut01.jpg,pics/golfball.jpg,pics/stapler03.jpg,pics/carrot01.jpg,pics/peach01.jpg,pics/sealion.jpg,pics/football.jpg,pics/zebra.jpg,blankImage,blankImage,scorpion,54,0.1217,0.1135,0.1148,,,,,,,,,,,,,,,,,,,,,,,,,,,,,,,,,,,,,,0,51,51,53,1,,,,,,,,,,,,,,,,,,,,,,,,,,,,,,,,,,,,,,,,,,,,,,,,,,,,,,,
,,,,,66589e8fcd6777edf59bd70b,6682b41eeb79ab8215dff63d,6682ddc1d66ba08ec7a2105a,,,,2024-07-01_17h59.56.229,ABmemTask3,2023.2.3,Win32,58.82352941,,,,,,,,,,,,,,,,,,,,,,,,,,,,,,,797.0876,798.0771,798.0772,7,798.5656,799.6156,0.0008,799.7318,0.1112,0.1217,0.1118,0.1183,0.1203,0.1154,0.1138,0.1207,0.1165,,,799.7319,801.3487,right,1.6002,,801.3487,802.0158,right,0.6512,,40,0,106,802.0158,803.008,,,,,,1_AB,L1_T1P_T2P,1,1,1,4,5,3,5,10,chair,Did you see the chair,0.12,0,resources/,pics/zebra.jpg,pics/floortile02.jpg,pics/cork02.jpg,pics/chair.jpg,pics/stapler07.jpg,pics/sealion.jpg,pics/shovel01.jpg,pics/piggybank.jpg,pics/candleholder01.jpg,pics/laptop01a.jpg,blankImage,blankImage,blankImage,blankImage,blankImage,blankImage,blankImage,chair,3,,,,,,,,,,,,,,,,,,,,,,,,,,,,,,,,,,,,,,,,,0,52,52,2,1,,,,,,,,,,,,,,,,,,,,,,,,,,,,,,,,,,,,,,,,,,,,,,,,,,,,,,,
,,,,,66589e8fcd6777edf59bd70b,6682b41eeb79ab8215dff63d,6682ddc1d66ba08ec7a2105a,,,,2024-07-01_17h59.56.229,ABmemTask3,2023.2.3,Win32,58.82352941,,,,,,,,,,,,,,,,,,,,,,,,,,,,,,,803.0148,804.0077,804.0079,7,804.5137,806.2575,0.001,806.3761,0.1112,0.1219,0.1164,0.1114,0.1164,0.1163,0.1224,0.111,0.1175,0.1164,0.1212,806.3761,807.3633,right,0.9668,,807.3634,807.6956,right,0.3165,,42,0,108,807.6956,808.6957,,,,,,1_AB,L5_T1P_T2P,5,1,1,6,11,5,5,16,cruise ship,Did you see the cruise ship,0.12,0,resources/,pics/seaturtle.jpg,pics/ashtray01.jpg,pics/pencil01.jpg,pics/fanblades.jpg,pics/triangle.jpg,pics/cruiseship.jpg,pics/wheel01.jpg,pics/dustpan.jpg,pics/starfish01.jpg,pics/banjo.jpg,pics/stapler12.jpg,pics/match.jpg,pics/cannon.jpg,pics/sandbarshark.jpg,pics/sink.jpg,pics/zebra.jpg,blankImage,cruiseship,51,0.1171,0.1119,0.1161,,,,,,,,,,,,,,,,,,,,,,,,,,,,,,,,,,,,,,0,53,53,50,1,0.1161,,,,,,,,,,,,,,,,,,,,,,,,,,,,,,,,,,,,,,,,,,,,,,,,,,,,,,
,,,,,66589e8fcd6777edf59bd70b,6682b41eeb79ab8215dff63d,6682ddc1d66ba08ec7a2105a,,,,2024-07-01_17h59.56.229,ABmemTask3,2023.2.3,Win32,58.82352941,,,,,,,,,,,,,,,,,,,,,,,,,,,,,,,808.7006,809.6887,809.6887,7,810.1954,811.9411,0.0008,812.0554,0.1158,0.1123,0.1214,0.112,0.1211,0.1122,0.1209,0.1121,0.1215,0.1155,0.1124,812.0559,813.4613,right,1.3823,,813.4614,813.8873,right,0.4008,,40,0,110,813.8875,814.8772,,,,,,1_AB,L5_T1P_T2A,5,1,0,6,11,5,5,16,belt,Did you see the belt,0.12,0,resources/,pics/banjo.jpg,pics/birdhouse.jpg,pics/spoon01.jpg,pics/table01.jpg,pics/candle01.jpg,pics/belt02a.jpg,pics/peach01.jpg,pics/chainsaw.jpg,pics/toiletpaper01a.jpg,pics/proboscismonkey.jpg,pics/cymbal.jpg,pics/binoculars01b.jpg,pics/cannon.jpg,pics/noparkingsign.jpg,pics/sailboat.jpg,pics/carrot01.jpg,blankImage,belt02a,61,0.1187,0.1141,0.1223,,,,,,,,,,,,,,,,,,,,,,,,,,,,,,,,,,,,,,0,54,54,60,1,0.1129,,,,,,,,,,,,,,,,,,,,,,,,,,,,,,,,,,,,,,,,,,,,,,,,,,,,,,
,,,,,66589e8fcd6777edf59bd70b,6682b41eeb79ab8215dff63d,6682ddc1d66ba08ec7a2105a,,,,2024-07-01_17h59.56.229,ABmemTask3,2023.2.3,Win32,58.82352941,,,,,,,,,,,,,,,,,,,,,,,,,,,,,,,814.8838,815.8916,815.8917,7,816.3873,817.4415,0.0036,817.5568,0.1167,0.1142,0.1171,0.1198,0.1129,0.117,0.117,0.1164,0.1202,,,817.557,818.6547,right,1.0701,,818.6548,818.8763,right,0.2004,,42,0,112,818.8764,819.8698,,,,,,1_AB,L1_T1P_T2P,1,1,1,5,6,4,4,10,thermometer,Did you see the thermometer,0.12,0,resources/,pics/triangle.jpg,pics/shovel01.jpg,pics/mummy.jpg,pics/noparkingsign.jpg,pics/thermometer02b.jpg,pics/stapler04.jpg,pics/piggybank.jpg,pics/golfball.jpg,pics/laptop01a.jpg,pics/aquarium.jpg,blankImage,blankImage,blankImage,blankImage,blankImage,blankImage,blankImage,thermometer02b,8,,,,,,,,,,,,,,,,,,,,,,,,,,,,,,,,,,,,,,,,,0,55,55,7,1,,,,,,,,,,,,,,,,,,,,,,,,,,,,,,,,,,,,,,,,,,,,,,,,,,,,,,,
,,,,,66589e8fcd6777edf59bd70b,6682b41eeb79ab8215dff63d,6682ddc1d66ba08ec7a2105a,,,,2024-07-01_17h59.56.229,ABmemTask3,2023.2.3,Win32,58.82352941,,,,,,,,,,,,,,,,,,,,,,,,,,,,,,,819.8714,820.8691,820.8693,7,821.3753,823.1199,0.002,823.2346,0.1102,0.1221,0.1104,0.1166,0.122,0.115,0.115,0.1195,0.1186,0.1159,0.1105,823.2349,824.274,right,1.0173,,824.274,824.5515,right,0.2515,,40,0,114,824.5519,825.5589,,,,,,1_AB,L5_T1P_T2A,5,1,0,7,12,6,4,16,boat,Did you see the boat,0.12,0,resources/,pics/butterfly.jpg,pics/onion.jpg,pics/hose.jpg,pics/ball02.jpg,pics/ashtray01.jpg,pics/bowtie.jpg,pics/boat.jpg,pics/seaturtle.jpg,pics/blender.jpg,pics/zebra.jpg,pics/pictureframe04.jpg,pics/shovel01.jpg,pics/spoon01.jpg,pics/peanut01.jpg,pics/nutcracker01.jpg,pics/aquarium.jpg,blankImage,boat,60,0.1189,0.1203,0.1116,,,,,,,,,,,,,,,,,,,,,,,,,,,,,,,,,,,,,,0,56,56,59,1,0.1165,,,,,,,,,,,,,,,,,,,,,,,,,,,,,,,,,,,,,,,,,,,,,,,,,,,,,,
,,,,,66589e8fcd6777edf59bd70b,6682b41eeb79ab8215dff63d,6682ddc1d66ba08ec7a2105a,,,,2024-07-01_17h59.56.229,ABmemTask3,2023.2.3,Win32,58.82352941,,,,,,,,,,,,,,,,,,,,,,,,,,,,,,,825.5602,826.5547,826.5548,7,827.0506,828.5682,0.002,828.6825,0.1216,0.111,0.1169,0.1174,0.1212,0.1167,0.117,0.1166,0.1114,0.1199,0.117,828.6828,829.89,left,1.1827,,829.8902,831.8818,right,1.9698,,42,0,116,831.8822,832.8866,,,,,,1_AB,L5_T1A_T2P,5,0,1,4,9,3,5,14,lemon,Did you see the lemon,0.12,0,resources/,pics/seaturtle.jpg,pics/lightswitch01.jpg,pics/candle01.jpg,pics/cannon.jpg,pics/seagull.jpg,pics/spoon01.jpg,pics/spiderweb.jpg,pics/sewingmachine01a.jpg,pics/stapler05.jpg,pics/binoculars01b.jpg,pics/zebra.jpg,pics/sealion.jpg,pics/shovel01.jpg,pics/wheel01.jpg,blankImage,blankImage,blankImage,lemon02,56,0.1179,0.1119,,,,,,,,,,,,,,,,,,,,,,,,,,,,,,,,,,,,,,,0,57,57,55,1,,,,,,,,,,,,,,,,,,,,,,,,,,,,,,,,,,,,,,,,,,,,,,,,,,,,,,,
,,,,,66589e8fcd6777edf59bd70b,6682b41eeb79ab8215dff63d,6682ddc1d66ba08ec7a2105a,,,,2024-07-01_17h59.56.229,ABmemTask3,2023.2.3,Win32,58.82352941,,,,,,,,,,,,,,,,,,,,,,,,,,,,,,,832.8973,833.8981,833.8994,7,834.3881,835.6643,0.0023,835.7797,0.1084,0.1227,0.111,0.1235,0.1133,0.1131,0.1234,0.1105,0.1197,0.1137,0.1148,835.7799,837.0053,right,1.2012,,837.0055,837.2809,right,0.2569,,44,0,118,837.2814,838.2869,,,,,,1_AB,L1_T1P_T2P,1,1,1,6,7,5,5,12,rope,Did you see the rope,0.12,0,resources/,pics/toiletpaper01a.jpg,pics/sewingmachine01a.jpg,pics/birdhouse.jpg,pics/sealion.jpg,pics/safetypin.jpg,pics/rope03.jpg,pics/stapler04.jpg,pics/binder03b.jpg,pics/ashtray01.jpg,pics/sandbarshark.jpg,pics/chainsaw.jpg,pics/nutcracker01.jpg,blankImage,blankImage,blankImage,blankImage,blankImage,rope03,4,,,,,,,,,,,,,,,,,,,,,,,,,,,,,,,,,,,,,,,,,0,58,58,3,1,,,,,,,,,,,,,,,,,,,,,,,,,,,,,,,,,,,,,,,,,,,,,,,,,,,,,,,
,,,,,66589e8fcd6777edf59bd70b,6682b41eeb79ab8215dff63d,6682ddc1d66ba08ec7a2105a,,,,2024-07-01_17h59.56.229,ABmemTask3,2023.2.3,Win32,58.82352941,,,,,,,,,,,,,,,,,,,,,,,,,,,,,,,838.2881,839.2798,839.28,7,839.7856,841.2983,0.0012,841.4179,0.1175,0.1161,0.1174,0.1131,0.1129,0.1216,0.1168,0.1181,0.1116,0.1207,0.1121,841.4182,842.7666,right,1.3315,,842.7667,842.967,right,0.1827,,46,0,120,842.9672,843.9637,,,,,,1_AB,L5_T1P_T2P,5,1,1,4,9,3,5,14,asparagus,Did you see the asparagus,0.12,0,resources/,pics/siamesecat.jpg,pics/starfish01.jpg,pics/aquarium.jpg,pics/asparagus.jpg,pics/salmon.jpg,pics/binoculars01b.jpg,pics/ball02.jpg,pics/calendar.jpg,pics/stapler10.jpg,pics/giraffe.jpg,pics/dromedary.jpg,pics/seaturtle.jpg,pics/sandbarshark.jpg,pics/shipinabottle.jpg,blankImage,blankImage,blankImage,asparagus,44,0.1167,0.1174,,,,,,,,,,,,,,,,,,,,,,,,,,,,,,,,,,,,,,,0,59,59,43,1,,,,,,,,,,,,,,,,,,,,,,,,,,,,,,,,,,,,,,,,,,,,,,,,,,,,,,,
,,,,,66589e8fcd6777edf59bd70b,6682b41eeb79ab8215dff63d,6682ddc1d66ba08ec7a2105a,,,,2024-07-01_17h59.56.229,ABmemTask3,2023.2.3,Win32,58.82352941,,,,,,,,,,,,,,,,,,,,,,,,,,,,,,,843.965,844.964,844.9642,7,845.461,846.2767,0.0039,846.4011,0.1153,0.1164,0.1165,0.1166,0.1184,0.1162,0.1131,,,,,846.4012,847.3499,right,0.934,,847.35,847.5322,right,0.1659,,48,0,122,847.5323,848.5303,,,,,,1_AB,L1_T1P_T2P,1,1,1,4,5,3,3,8,Recycling bin,Did you see the Recycling bin,0.12,0,resources/,pics/microscope.jpg,pics/dustpan.jpg,pics/seagull.jpg,pics/recyclingbin.jpg,pics/stapler06.jpg,pics/bowtie.jpg,pics/dromedary.jpg,pics/salmon.jpg,blankImage,blankImage,blankImage,blankImage,blankImage,blankImage,blankImage,blankImage,blankImage,recyclingbin,16,,,,,,,,,,,,,,,,,,,,,,,,,,,,,,,,,,,,,,,,,0,60,60,15,1,,,,,,,,,,,,,,,,,,,,,,,,,,,,,,,,,,,,,,,,,,,,,,,,,,,,,,,
,,,,,66589e8fcd6777edf59bd70b,6682b41eeb79ab8215dff63d,6682ddc1d66ba08ec7a2105a,,,,2024-07-01_17h59.56.229,ABmemTask3,2023.2.3,Win32,58.82352941,,,,,,,,,,,,,,,,,,,,,,,,,,,,,,,848.5309,849.5271,849.5274,7,850.0292,851.3099,0.0015,851.4253,0.1146,0.1173,0.1169,0.1151,0.1158,0.12,0.1169,0.1183,0.1177,0.115,0.1123,851.4263,852.3162,right,0.8672,,852.3162,852.4779,right,0.1393,,50,0,124,852.4779,853.4745,,,,,,1_AB,L5_T1P_T2P,5,1,1,4,9,3,3,12,Sheep,Did you see the Sheep,0.12,0,resources/,pics/icecube01.jpg,pics/cymbal.jpg,pics/wheel01.jpg,pics/sheep.jpg,pics/starfish01.jpg,pics/safetypin.jpg,pics/siamesecat.jpg,pics/lock03a.jpg,pics/stapler01.jpg,pics/sink.jpg,pics/fanblades.jpg,pics/bowlingpin.jpg,blankImage,blankImage,blankImage,blankImage,blankImage,sheep,52,,,,,,,,,,,,,,,,,,,,,,,,,,,,,,,,,,,,,,,,,0,61,61,51,1,,,,,,,,,,,,,,,,,,,,,,,,,,,,,,,,,,,,,,,,,,,,,,,,,,,,,,,
,,,,,66589e8fcd6777edf59bd70b,6682b41eeb79ab8215dff63d,6682ddc1d66ba08ec7a2105a,,,,2024-07-01_17h59.56.229,ABmemTask3,2023.2.3,Win32,58.82352941,,,,,,,,,,,,,,,,,,,,,,,,,,,,,,,,,,,,,,,,,,,,,,,,,,,,,,,,,,,,,,,,,,,,,,,,,,,,,,,,,,,,,,,,,,,,,,,,,,,,,,,,,,,853.4768,862.6396,space,9.1382,,,,,,,,,,,,,,,,,,,,,,,,,,,,,,,,,,,,,,,,,,,,,,,,,,,,,,,,,,,,,,,,,,,,,,,,,,,,,,,,,,,,,,,,,,,,,
,,,,,66589e8fcd6777edf59bd70b,6682b41eeb79ab8215dff63d,6682ddc1d66ba08ec7a2105a,,,,2024-07-01_17h59.56.229,ABmemTask3,2023.2.3,Win32,58.82352941,,,space,10.8519,,,,,,,,,,,,,,,,,,,,,,,,,,,,,,,,,,,,,,,,,,,,,,,,,,,,,,,,,,,,,,,,,,,,,,,,,,,,,,,,,,,,,,,,,,,,,,,,,,,,,,,,,,,,,,,,,,,,,,,,,,,,,,,,,,,,,,,,,,,,,,,,,,,862.6398,873.5187,,,,,,,,,,,,,,,,,,,,,,,,,,,,,,,,,,,,,,,,,,,,,,,,,,,
,,,,,66589e8fcd6777edf59bd70b,6682b41eeb79ab8215dff63d,6682ddc1d66ba08ec7a2105a,,,,2024-07-01_17h59.56.229,ABmemTask3,2023.2.3,Win32,58.82352941,,,,,,,,,,,,,,,,,,,,,,,,,,,,,,,,,,,,,,,,,,,,,,,,,,,,,,,,,,,,,,,,,,,,,,,,,,,,,,,,,,,,,,,,,,,,,,,,,,,,,,,,,,,,,,,,,,,,,,,,,,,,,,,,,,,,,,,,,,,,,,,,,,,,,,,,,873.519,886.471,space,12.9271,,,,,,,,,,,,,,,,,,,,,,,,,,,,,,,,,,,,,,,,,,,,,,,
,,,,,66589e8fcd6777edf59bd70b,6682b41eeb79ab8215dff63d,6682ddc1d66ba08ec7a2105a,,,,2024-07-01_17h59.56.229,ABmemTask3,2023.2.3,Win32,58.82352941,,,,,,,,,,,,,,,,,,,,,,,,,,,,,,,886.4866,887.4797,887.4799,7,887.9791,889.1459,0.0033,889.2612,0.1143,0.1164,0.1167,0.1175,0.116,0.1175,0.1162,0.116,0.1173,0.1155,,889.2614,890.2453,left,0.9692,,,,,,,1,50,2,890.2455,891.2447,,,,,,2_AB,L1_T1A_T2P,1,0,1,6,7,5,4,11,bench,Did you see the bench,0.12,0,resources/,pics/butterfly.jpg,pics/peach01.jpg,pics/blender.jpg,pics/binoculars01b.jpg,pics/starfish01.jpg,pics/ball02.jpg,pics/stapler06.jpg,pics/cork02.jpg,pics/mummy.jpg,pics/calendar.jpg,pics/necklace.jpg,blankImage,blankImage,blankImage,blankImage,blankImage,blankImage,bench01,28,,,,,,,,,,,,,,,,,,,,,,,,,,,,,,,,,,,,,,,,,,,,,,,,,,,,,,,0,0,0,27,1,,,,,,,,,,,,,,,,,,,,,,,,,,,,,,,,,,,,,,,,,
,,,,,66589e8fcd6777edf59bd70b,6682b41eeb79ab8215dff63d,6682ddc1d66ba08ec7a2105a,,,,2024-07-01_17h59.56.229,ABmemTask3,2023.2.3,Win32,58.82352941,,,,,,,,,,,,,,,,,,,,,,,,,,,,,,,891.2466,892.2453,892.2455,7,892.7445,894.3777,0.0025,894.493,0.116,0.1175,0.1157,0.1163,0.1152,0.1163,0.1176,0.1161,0.118,0.1158,0.1193,894.4931,895.4267,left,0.9214,,,,,,,2,50,4,895.4269,896.4261,,,,,,2_AB,L5_T1A_T2P,5,0,1,7,12,6,3,15,Ipad,Did you see the Ipad,0.12,0,resources/,pics/peanut01.jpg,pics/hairdryer02a.jpg,pics/necklace.jpg,pics/shipinabottle.jpg,pics/footballhelmet.jpg,pics/match.jpg,pics/leaf02a.jpg,pics/backpack01a.jpg,pics/noparkingsign.jpg,pics/wheel01.jpg,pics/table01.jpg,pics/stapler03a.jpg,pics/cannon.jpg,pics/aquarium.jpg,pics/lightswitch01.jpg,blankImage,blankImage,ipad02,56,0.1169,0.1146,0.116,,,,,,,,,,,,,,,,,,,,,,,,,,,,,,,,,,,,,,,,,,,,,,,,,,,,0,1,1,55,1,,,,,,,,,,,,,,,,,,,,,,,,,,,,,,,,,,,,,,,,,
,,,,,66589e8fcd6777edf59bd70b,6682b41eeb79ab8215dff63d,6682ddc1d66ba08ec7a2105a,,,,2024-07-01_17h59.56.229,ABmemTask3,2023.2.3,Win32,58.82352941,,,,,,,,,,,,,,,,,,,,,,,,,,,,,,,896.4275,897.4255,897.4256,7,897.9252,899.4425,0.0018,899.5585,0.1158,0.1175,0.1177,0.1152,0.1167,0.1173,0.1167,0.1159,0.1168,0.1165,0.1171,899.5586,900.1251,right,0.5444,,,,,,,3,50,6,900.1253,901.1254,,,,,,2_AB,L5_T1P_T2P,5,1,1,5,10,4,4,14,rock,Did you see the rock,0.12,0,resources/,pics/carrot01.jpg,pics/aquarium.jpg,pics/bowlingpin.jpg,pics/spiderweb.jpg,pics/rock01a.jpg,pics/giraffe.jpg,pics/footballhelmet.jpg,pics/pencilsharpener02a.jpg,pics/sealion.jpg,pics/stapler03.jpg,pics/dustpan.jpg,pics/boot02b.jpg,pics/binoculars01b.jpg,pics/seaturtle.jpg,blankImage,blankImage,blankImage,rock01a,48,0.1179,0.1148,,,,,,,,,,,,,,,,,,,,,,,,,,,,,,,,,,,,,,,,,,,,,,,,,,,,,0,2,2,47,1,,,,,,,,,,,,,,,,,,,,,,,,,,,,,,,,,,,,,,,,,
,,,,,66589e8fcd6777edf59bd70b,6682b41eeb79ab8215dff63d,6682ddc1d66ba08ec7a2105a,,,,2024-07-01_17h59.56.229,ABmemTask3,2023.2.3,Win32,58.82352941,,,,,,,,,,,,,,,,,,,,,,,,,,,,,,,901.1272,902.1243,902.1243,7,902.6238,904.0243,0.0017,904.1397,0.1164,0.1166,0.1172,0.1152,0.1178,0.1157,0.116,0.1185,0.1159,0.116,0.1158,904.1398,904.6578,right,0.5062,,,,,,,4,50,8,904.658,905.6569,,,,,,2_AB,L5_T1P_T2A,5,1,0,5,10,4,3,13,scooter,Did you see the scooter,0.12,0,resources/,pics/banjo.jpg,pics/candleholder01.jpg,pics/chainsaw.jpg,pics/bowtie.jpg,pics/scooter.jpg,pics/necklace.jpg,pics/lightswitch01.jpg,pics/aquarium.jpg,pics/ashtray01.jpg,pics/carrot01.jpg,pics/butterfly.jpg,pics/icecube01.jpg,pics/cork02.jpg,blankImage,blankImage,blankImage,blankImage,scooter,60,0.118,,,,,,,,,,,,,,,,,,,,,,,,,,,,,,,,,,,,,,,,,,,,,,,,,,,,,,0,3,3,59,1,,,,,,,,,,,,,,,,,,,,,,,,,,,,,,,,,,,,,,,,,
,,,,,66589e8fcd6777edf59bd70b,6682b41eeb79ab8215dff63d,6682ddc1d66ba08ec7a2105a,,,,2024-07-01_17h59.56.229,ABmemTask3,2023.2.3,Win32,58.82352941,,,,,,,,,,,,,,,,,,,,,,,,,,,,,,,905.6583,906.6551,906.6551,7,907.1562,908.2062,0.0027,908.322,0.1148,0.1181,0.1159,0.1165,0.1162,0.1167,0.1166,0.1168,0.1164,,,908.3221,908.9724,right,0.6294,,,,,,,5,50,10,908.9728,909.9714,,,,,,2_AB,L1_T1P_T2P,1,1,1,6,7,5,3,10,apple,Did you see the apple,0.12,0,resources/,pics/christmaslights.jpg,pics/sink.jpg,pics/leaf02a.jpg,pics/necklace.jpg,pics/ball02.jpg,pics/apple07.jpg,pics/stapler03.jpg,pics/nutcracker01.jpg,pics/spoon01.jpg,pics/spiderweb.jpg,blankImage,blankImage,blankImage,blankImage,blankImage,blankImage,blankImage,apple07,10,,,,,,,,,,,,,,,,,,,,,,,,,,,,,,,,,,,,,,,,,,,,,,,,,,,,,,,0,4,4,9,1,,,,,,,,,,,,,,,,,,,,,,,,,,,,,,,,,,,,,,,,,
,,,,,66589e8fcd6777edf59bd70b,6682b41eeb79ab8215dff63d,6682ddc1d66ba08ec7a2105a,,,,2024-07-01_17h59.56.229,ABmemTask3,2023.2.3,Win32,58.82352941,,,,,,,,,,,,,,,,,,,,,,,,,,,,,,,909.9725,910.9709,910.971,7,911.4721,912.8722,0.0026,912.9894,0.1142,0.118,0.1144,0.1175,0.1164,0.1163,0.1169,0.1169,0.116,0.1171,0.1165,912.9895,914.2533,left,1.2499,,,,,,,6,50,12,914.2534,915.2523,,,,,,2_AB,L5_T1A_T2P,5,0,1,5,10,4,3,13,suitcase,Did you see the suitcase,0.12,0,resources/,pics/christmaslights.jpg,pics/sandbarshark.jpg,pics/sink.jpg,pics/candle01.jpg,pics/seaturtle.jpg,pics/banjo.jpg,pics/dustpan.jpg,pics/binder03b.jpg,pics/backpack01a.jpg,pics/stapler03a.jpg,pics/birdhouse.jpg,pics/dromedary.jpg,pics/sewingmachine01a.jpg,blankImage,blankImage,blankImage,blankImage,suitcase,54,0.1179,,,,,,,,,,,,,,,,,,,,,,,,,,,,,,,,,,,,,,,,,,,,,,,,,,,,,,0,5,5,53,1,,,,,,,,,,,,,,,,,,,,,,,,,,,,,,,,,,,,,,,,,
,,,,,66589e8fcd6777edf59bd70b,6682b41eeb79ab8215dff63d,6682ddc1d66ba08ec7a2105a,,,,2024-07-01_17h59.56.229,ABmemTask3,2023.2.3,Win32,58.82352941,,,,,,,,,,,,,,,,,,,,,,,,,,,,,,,915.2533,916.2537,916.2538,7,916.7519,917.8021,0.0009,917.918,0.1168,0.116,0.1168,0.1163,0.1168,0.1168,0.1167,0.1176,0.1158,,,917.9181,918.4858,right,0.5505,,,,,,,7,50,14,918.4859,919.4853,,,,,,2_AB,L1_T1P_T2P,1,1,1,5,6,4,4,10,violin,Did you see the violin,0.12,0,resources/,pics/chainsaw.jpg,pics/mummy.jpg,pics/binder03b.jpg,pics/shipinabottle.jpg,pics/violin.jpg,pics/stapler03.jpg,pics/butterfly.jpg,pics/peanut01.jpg,pics/candle01.jpg,pics/sewingmachine01a.jpg,blankImage,blankImage,blankImage,blankImage,blankImage,blankImage,blankImage,violin,18,,,,,,,,,,,,,,,,,,,,,,,,,,,,,,,,,,,,,,,,,,,,,,,,,,,,,,,0,6,6,17,1,,,,,,,,,,,,,,,,,,,,,,,,,,,,,,,,,,,,,,,,,
,,,,,66589e8fcd6777edf59bd70b,6682b41eeb79ab8215dff63d,6682ddc1d66ba08ec7a2105a,,,,2024-07-01_17h59.56.229,ABmemTask3,2023.2.3,Win32,58.82352941,,,,,,,,,,,,,,,,,,,,,,,,,,,,,,,919.4871,920.4842,920.4842,7,920.9853,922.4241,0.0026,922.5413,0.114,0.117,0.1161,0.1176,0.1563,0.1166,0.1155,0.1181,0.1143,0.117,0.1171,922.5413,923.5914,left,1.034,,,,,,,6,50,16,923.5915,924.5903,,,,,,2_AB,L5_T1P_T2P,5,1,1,4,9,3,4,13,earrings,Did you see the earrings,0.12,0,resources/,pics/pencil01.jpg,pics/onion.jpg,pics/toiletpaper01a.jpg,pics/earring01.jpg,pics/seagull.jpg,pics/proboscismonkey.jpg,pics/carrot01.jpg,pics/pencilsharpener02a.jpg,pics/stapler11.jpg,pics/hairdryer02a.jpg,pics/peanut01.jpg,pics/zebra.jpg,pics/lightswitch01.jpg,blankImage,blankImage,blankImage,blankImage,earring01,46,0.1171,,,,,,,,,,,,,,,,,,,,,,,,,,,,,,,,,,,,,,,,,,,,,,,,,,,,,,0,7,7,45,1,,,,,,,,,,,,,,,,,,,,,,,,,,,,,,,,,,,,,,,,,
,,,,,66589e8fcd6777edf59bd70b,6682b41eeb79ab8215dff63d,6682ddc1d66ba08ec7a2105a,,,,2024-07-01_17h59.56.229,ABmemTask3,2023.2.3,Win32,58.82352941,,,,,,,,,,,,,,,,,,,,,,,,,,,,,,,924.591,925.5898,925.5898,7,926.0888,927.14,0.0005,927.2559,0.1179,0.1164,0.1172,0.1179,0.1133,0.1187,0.1153,0.1179,0.1167,,,927.256,928.6557,left,1.3836,,,,,,,7,50,18,928.6557,929.655,,,,,,2_AB,L1_T1A_T2P,1,0,1,4,5,3,5,10,spice rack,Did you see the spice rack,0.12,0,resources/,pics/hammerheadshark.jpg,pics/pictureframe04.jpg,pics/boot02b.jpg,pics/starfish01.jpg,pics/stapler12.jpg,pics/leaf02a.jpg,pics/necklace.jpg,pics/hose.jpg,pics/salmon.jpg,pics/cymbal.jpg,blankImage,blankImage,blankImage,blankImage,blankImage,blankImage,blankImage,spicerack,27,,,,,,,,,,,,,,,,,,,,,,,,,,,,,,,,,,,,,,,,,,,,,,,,,,,,,,,0,8,8,26,1,,,,,,,,,,,,,,,,,,,,,,,,,,,,,,,,,,,,,,,,,
,,,,,66589e8fcd6777edf59bd70b,6682b41eeb79ab8215dff63d,6682ddc1d66ba08ec7a2105a,,,,2024-07-01_17h59.56.229,ABmemTask3,2023.2.3,Win32,58.82352941,,,,,,,,,,,,,,,,,,,,,,,,,,,,,,,929.6554,930.6553,930.6553,7,931.1561,932.5542,0.0017,932.671,0.1129,0.1195,0.1139,0.1171,0.1172,0.1166,0.1177,0.1143,0.1172,0.1165,0.1162,932.6711,933.2375,right,0.55,,,,,,,8,50,20,933.2378,934.2376,,,,,,2_AB,L1_T1P_T2P,1,1,1,7,8,6,5,13,Sausage,Did you see the Sausage,0.12,0,resources/,pics/safetypin.jpg,pics/mummy.jpg,pics/ashtray01.jpg,pics/toiletpaper01a.jpg,pics/piggybank.jpg,pics/dustpan.jpg,pics/sausage.jpg,pics/stapler01.jpg,pics/onion.jpg,pics/binder03b.jpg,pics/kangaroo.jpg,pics/football.jpg,pics/candle01.jpg,blankImage,blankImage,blankImage,blankImage,sausage,2,0.1175,,,,,,,,,,,,,,,,,,,,,,,,,,,,,,,,,,,,,,,,,,,,,,,,,,,,,,0,9,9,1,1,,,,,,,,,,,,,,,,,,,,,,,,,,,,,,,,,,,,,,,,,
,,,,,66589e8fcd6777edf59bd70b,6682b41eeb79ab8215dff63d,6682ddc1d66ba08ec7a2105a,,,,2024-07-01_17h59.56.229,ABmemTask3,2023.2.3,Win32,58.82352941,,,,,,,,,,,,,,,,,,,,,,,,,,,,,,,934.2383,935.2358,935.2359,7,935.7353,936.6699,0.0007,936.7851,0.1166,0.1164,0.1172,0.1165,0.1163,0.1167,0.1181,0.1163,,,,936.7852,938.7861,right,1.9838,,,,,,,9,50,22,938.7861,939.7867,,,,,,2_AB,L1_T1P_T2P,1,1,1,5,6,4,3,9,toaster,Did you see the toaster,0.12,0,resources/,pics/cannon.jpg,pics/candle01.jpg,pics/pencil01.jpg,pics/hose.jpg,pics/toaster01.jpg,pics/stapler08.jpg,pics/christmaslights.jpg,pics/sailboat.jpg,pics/lock03a.jpg,blankImage,blankImage,blankImage,blankImage,blankImage,blankImage,blankImage,blankImage,toaster01,6,,,,,,,,,,,,,,,,,,,,,,,,,,,,,,,,,,,,,,,,,,,,,,,,,,,,,,,0,10,10,5,1,,,,,,,,,,,,,,,,,,,,,,,,,,,,,,,,,,,,,,,,,
,,,,,66589e8fcd6777edf59bd70b,6682b41eeb79ab8215dff63d,6682ddc1d66ba08ec7a2105a,,,,2024-07-01_17h59.56.229,ABmemTask3,2023.2.3,Win32,58.82352941,,,,,,,,,,,,,,,,,,,,,,,,,,,,,,,939.7975,940.8011,940.8011,7,941.3022,942.8164,0.0025,942.9321,0.1081,0.1211,0.1175,0.1154,0.1169,0.1178,0.117,0.1115,0.1196,0.1132,0.1161,942.9323,943.4012,right,0.4504,,,,,,,10,50,24,943.4012,944.3932,,,,,,2_AB,L5_T1P_T2A,5,1,0,5,10,4,4,14,No smoking sign,Did you see the No smoking sign,0.12,0,resources/,pics/backpack01a.jpg,pics/floortile02.jpg,pics/pictureframe04.jpg,pics/pencilsharpener02a.jpg,pics/nosmokingsign.jpg,pics/cymbal.jpg,pics/piggybank.jpg,pics/football.jpg,pics/aquarium.jpg,pics/wheel01.jpg,pics/candleholder01.jpg,pics/snowshoe.jpg,pics/hammerheadshark.jpg,pics/lightswitch01.jpg,blankImage,blankImage,blankImage,nosmokingsign,61,0.1215,0.1168,,,,,,,,,,,,,,,,,,,,,,,,,,,,,,,,,,,,,,,,,,,,,,,,,,,,,0,11,11,60,1,,,,,,,,,,,,,,,,,,,,,,,,,,,,,,,,,,,,,,,,,
