consent1.started,consent1.stopped,key_resp_8.keys,key_resp_8.rt,key_resp_8.duration,PROLIFIC_PID,STUDY_ID,SESSION_ID,age,sex,native language,date,expName,psychopyVersion,OS,frameRate,consent2.started,consent2.stopped,key_resp_9.keys,key_resp_9.rt,key_resp_9.duration,consent3.started,consent3.stopped,key_resp_10.keys,key_resp_10.rt,key_resp_10.duration,consent4.started,consent4.stopped,key_resp_11.keys,key_resp_11.rt,key_resp_11.duration,consent5.started,consent5.stopped,key_resp_12.keys,key_resp_12.rt,key_resp_12.duration,bonusInstruct.started,bonusInstruct.stopped,key_resp_14.keys,key_resp_14.rt,key_resp_14.duration,practiceInstruct.started,practiceInstruct.stopped,key_resp.keys,key_resp.rt,key_resp.duration,cueWord_2.started,cueWord_2.stopped,fix.started,frameTarget,fix.stopped,trial.started,img1Add,trial.stopped,img2Add,img3Add,img4Add,img5Add,img6Add,img7Add,img8Add,img9Add,img10Add,img11Add,img12Add,prompt1.started,prompt1.stopped,key_resp_2.keys,key_resp_2.rt,key_resp_2.duration,prompt2.started,prompt2.stopped,key_resp_3.keys,key_resp_3.rt,key_resp_3.duration,runningAcc_AB,runningTotal,runningCount_AB,feedback.started,feedback.stopped,trials.thisRepN,trials.thisTrialN,trials.thisN,trials.thisIndex,trials.ran,TrialType,CondType,Lag,T1_PA,T2_PA,T1Loc,T2Loc,PreDistractor,PostDistractor,TotalImg,cueWord,T1cue,StimLength,isi,PicFolder,Img1,Img2,Img3,Img4,Img5,Img6,Img7,Img8,Img9,Img10,Img11,Img12,Img13,Img14,Img15,Img16,Img17,T1_Identity,trialID,img13Add,img14Add,img15Add,ABfeedback.started,ABfeedback.stopped,key_resp_13.keys,key_resp_13.rt,key_resp_13.duration,MemPracticeInstruction.started,MemPracticeInstruction.stopped,key_resp_5.keys,key_resp_5.rt,key_resp_5.duration,memTrial.started,memTrial.stopped,Mem_runningPoints,key_resp_4.keys,key_resp_4.rt,key_resp_4.duration,memTrialFeedback.started,memTrialFeedback.stopped,trials_2.thisRepN,trials_2.thisTrialN,trials_2.thisN,trials_2.thisIndex,trials_2.ran,ABtrialID,priorLag,image,memFeedback.started,memFeedback.frame,memFeedback.ended,memFeedback.stopped,bonus.started,bonus.stopped,memoryBlockABInstruct.started,memoryBlockABInstruct.stopped,key_resp_6.keys,key_resp_6.rt,key_resp_6.duration,AB_block_1.thisRepN,AB_block_1.thisTrialN,AB_block_1.thisN,AB_block_1.thisIndex,AB_block_1.ran,img16Add,img17Add,AB_break1.started,AB_break1.stopped,PerceiveBlockABInstruct.started,PerceiveBlockABInstruct.stopped,key_resp_7.keys,key_resp_7.rt,key_resp_7.duration,AB_block_2.thisRepN,AB_block_2.thisTrialN,AB_block_2.thisN,AB_block_2.thisIndex,AB_block_2.ran,AB_break2.started,AB_break2.stopped,AB_block_3.thisRepN,AB_block_3.thisTrialN,AB_block_3.thisN,AB_block_3.thisIndex,AB_block_3.ran,AB_break3.started,AB_break3.stopped,AB_block_4.thisRepN,AB_block_4.thisTrialN,AB_block_4.thisN,AB_block_4.thisIndex,AB_block_4.ran,AB_break4.started,AB_break4.stopped,AB_block_5.thisRepN,AB_block_5.thisTrialN,AB_block_5.thisN,AB_block_5.thisIndex,AB_block_5.ran,AB_break5.started,AB_break5.stopped,AB_block_6.thisRepN,AB_block_6.thisTrialN,AB_block_6.thisN,AB_block_6.thisIndex,AB_block_6.ran,AB_break6.started,AB_break6.stopped,MemInstructionSURPRISE.started,MemInstructionSURPRISE.stopped,MemInstruction.started,MemInstruction.stopped,memBreak.started,memBreak.stopped,Mem_block_1.thisRepN,Mem_block_1.thisTrialN,Mem_block_1.thisN,Mem_block_1.thisIndex,Mem_block_1.ran
0.0002,15.8316,space,15.8126,,61347b534314b736f635bc06,6682b41eeb79ab8215dff63d,6682bab15b6828720da50cc2,38,Male,English,2024-07-01_15h20.19.301,ABmemTask3,2023.2.3,Win32,98.03921569,,,,,,,,,,,,,,,,,,,,,,,,,,,,,,,,,,,,,,,,,,,,,,,,,,,,,,,,,,,,,,,,,,,,,,,,,,,,,,,,,,,,,,,,,,,,,,,,,,,,,,,,,,,,,,,,,,,,,,,,,,,,,,,,,,,,,,,,,,,,,,,,,,,,,,,,,,,,,,,,,,,,,,,,,,,,,,,,,,,,,,,,,,,,,,,,,,,,,,,,,,,
,,,,,61347b534314b736f635bc06,6682b41eeb79ab8215dff63d,6682bab15b6828720da50cc2,38,Male,English,2024-07-01_15h20.19.301,ABmemTask3,2023.2.3,Win32,98.03921569,15.832,93.5114,space,77.6432,,,,,,,,,,,,,,,,,,,,,,,,,,,,,,,,,,,,,,,,,,,,,,,,,,,,,,,,,,,,,,,,,,,,,,,,,,,,,,,,,,,,,,,,,,,,,,,,,,,,,,,,,,,,,,,,,,,,,,,,,,,,,,,,,,,,,,,,,,,,,,,,,,,,,,,,,,,,,,,,,,,,,,,,,,,,,,,,,,,,,,,,,,,,,,,,,,,,,,,
,,,,,61347b534314b736f635bc06,6682b41eeb79ab8215dff63d,6682bab15b6828720da50cc2,38,Male,English,2024-07-01_15h20.19.301,ABmemTask3,2023.2.3,Win32,98.03921569,,,,,,93.5117,96.9195,space,3.3741,,,,,,,,,,,,,,,,,,,,,,,,,,,,,,,,,,,,,,,,,,,,,,,,,,,,,,,,,,,,,,,,,,,,,,,,,,,,,,,,,,,,,,,,,,,,,,,,,,,,,,,,,,,,,,,,,,,,,,,,,,,,,,,,,,,,,,,,,,,,,,,,,,,,,,,,,,,,,,,,,,,,,,,,,,,,,,,,,,,,,,,,,,,,,,,,,,
,,,,,61347b534314b736f635bc06,6682b41eeb79ab8215dff63d,6682bab15b6828720da50cc2,38,Male,English,2024-07-01_15h20.19.301,ABmemTask3,2023.2.3,Win32,98.03921569,,,,,,,,,,,96.9199,99.3925,space,2.4416,,,,,,,,,,,,,,,,,,,,,,,,,,,,,,,,,,,,,,,,,,,,,,,,,,,,,,,,,,,,,,,,,,,,,,,,,,,,,,,,,,,,,,,,,,,,,,,,,,,,,,,,,,,,,,,,,,,,,,,,,,,,,,,,,,,,,,,,,,,,,,,,,,,,,,,,,,,,,,,,,,,,,,,,,,,,,,,,,,,,,,,,,,,,,
,,,,,61347b534314b736f635bc06,6682b41eeb79ab8215dff63d,6682bab15b6828720da50cc2,38,Male,English,2024-07-01_15h20.19.301,ABmemTask3,2023.2.3,Win32,98.03921569,,,,,,,,,,,,,,,,99.393,101.78,space,2.3406,,,,,,,,,,,,,,,,,,,,,,,,,,,,,,,,,,,,,,,,,,,,,,,,,,,,,,,,,,,,,,,,,,,,,,,,,,,,,,,,,,,,,,,,,,,,,,,,,,,,,,,,,,,,,,,,,,,,,,,,,,,,,,,,,,,,,,,,,,,,,,,,,,,,,,,,,,,,,,,,,,,,,,,,,,,,,,,,,,,,,,,,
,,,,,61347b534314b736f635bc06,6682b41eeb79ab8215dff63d,6682bab15b6828720da50cc2,38,Male,English,2024-07-01_15h20.19.301,ABmemTask3,2023.2.3,Win32,98.03921569,,,,,,,,,,,,,,,,,,,,,101.7804,117.17,space,15.3503,,,,,,,,,,,,,,,,,,,,,,,,,,,,,,,,,,,,,,,,,,,,,,,,,,,,,,,,,,,,,,,,,,,,,,,,,,,,,,,,,,,,,,,,,,,,,,,,,,,,,,,,,,,,,,,,,,,,,,,,,,,,,,,,,,,,,,,,,,,,,,,,,,,,,,,,,,,,,,,,,,,,,,,,,,,,,,,,,,,
,,,,,61347b534314b736f635bc06,6682b41eeb79ab8215dff63d,6682bab15b6828720da50cc2,38,Male,English,2024-07-01_15h20.19.301,ABmemTask3,2023.2.3,Win32,98.03921569,,,,,,,,,,,,,,,,,,,,,,,,,,117.1704,160.8554,space,43.6533,,,,,,,,,,,,,,,,,,,,,,,,,,,,,,,,,,,,,,,,,,,,,,,,,,,,,,,,,,,,,,,,,,,,,,,,,,,,,,,,,,,,,,,,,,,,,,,,,,,,,,,,,,,,,,,,,,,,,,,,,,,,,,,,,,,,,,,,,,,,,,,,,,,,,,,,,,,,,,,,,,,,,,,,,,,,,,
,,,,,61347b534314b736f635bc06,6682b41eeb79ab8215dff63d,6682bab15b6828720da50cc2,38,Male,English,2024-07-01_15h20.19.301,ABmemTask3,2023.2.3,Win32,98.03921569,,,,,,,,,,,,,,,,,,,,,,,,,,,,,,,160.8669,161.8603,161.8607,25,162.3606,167.2403,0.0035,167.6821,0.4291,0.4387,0.4391,0.4447,0.4567,0.4558,0.4415,0.4406,0.4427,0.4487,0.4389,167.6836,169.8263,right,2.1185,,169.8267,176.2479,left,6.3875,,2,0,2,176.2482,177.2446,0,0,0,0,1,prac_AB,L1_T1P_T2A,1,1,0,6,7,5,5,12,cat,Did you see the cat,0.25,0,resources/,pics/shipinabottle.jpg,pics/table01.jpg,pics/dustpan.jpg,pics/golfball.jpg,pics/giraffe.jpg,pics/cat.jpg,pics/peanut01.jpg,pics/pictureframe04.jpg,pics/fanblades.jpg,pics/laptop01a.jpg,pics/ball02.jpg,pics/blender.jpg,blankImage,blankImage,blankImage,blankImage,blankImage,cat,8,,,,,,,,,,,,,,,,,,,,,,,,,,,,,,,,,,,,,,,,,,,,,,,,,,,,,,,,,,,,,,,,,,,,,,,,,,,,,,,,,,,,,,,,,,,,,,,,,,,,
,,,,,61347b534314b736f635bc06,6682b41eeb79ab8215dff63d,6682bab15b6828720da50cc2,38,Male,English,2024-07-01_15h20.19.301,ABmemTask3,2023.2.3,Win32,98.03921569,,,,,,,,,,,,,,,,,,,,,,,,,,,,,,,177.258,178.2477,178.2478,24,178.7437,182.6055,0.003,183.0305,0.4202,0.4322,0.4394,0.4286,0.4288,0.4331,0.4268,0.4223,0.4279,,,183.0307,184.2172,right,1.1567,,184.2174,184.9047,right,0.6545,,4,0,4,184.9049,185.9067,0,1,1,1,1,prac_AB,L1_T1P_T2P,1,1,1,5,6,4,4,10,tree,Did you see the tree,0.24,0,resources/,pics/carrot01.jpg,pics/hammerheadshark.jpg,pics/kangaroo.jpg,pics/proboscismonkey.jpg,pics/tree.jpg,pics/stapler07.jpg,pics/siamesecat.jpg,pics/ball02.jpg,pics/pictureframe04.jpg,pics/mummy.jpg,blankImage,blankImage,blankImage,blankImage,blankImage,blankImage,blankImage,tree,1,,,,,,,,,,,,,,,,,,,,,,,,,,,,,,,,,,,,,,,,,,,,,,,,,,,,,,,,,,,,,,,,,,,,,,,,,,,,,,,,,,,,,,,,,,,,,,,,,,,,
,,,,,61347b534314b736f635bc06,6682b41eeb79ab8215dff63d,6682bab15b6828720da50cc2,38,Male,English,2024-07-01_15h20.19.301,ABmemTask3,2023.2.3,Win32,98.03921569,,,,,,,,,,,,,,,,,,,,,,,,,,,,,,,185.9193,186.9164,186.9165,23,187.4169,191.9403,0.0026,192.3536,0.4142,0.4061,0.4108,0.4075,0.4126,0.4098,0.4119,0.4144,0.4113,0.4124,0.4102,192.3537,193.7949,left,1.4138,,193.795,195.2304,right,1.4086,,6,0,6,195.2306,196.238,0,2,2,2,1,prac_AB,L1_T1A_T2P,1,0,1,7,8,6,4,12,grapes,Did you see the grapes,0.23,0,resources/,pics/sailboat.jpg,pics/butterfly.jpg,pics/giraffe.jpg,pics/spoon01.jpg,pics/hose.jpg,pics/nutcracker01.jpg,pics/table01.jpg,pics/stapler13.jpg,pics/pencil01.jpg,pics/football.jpg,pics/triangle.jpg,pics/hairdryer02a.jpg,blankImage,blankImage,blankImage,blankImage,blankImage,grape01,6,,,,,,,,,,,,,,,,,,,,,,,,,,,,,,,,,,,,,,,,,,,,,,,,,,,,,,,,,,,,,,,,,,,,,,,,,,,,,,,,,,,,,,,,,,,,,,,,,,,,
,,,,,61347b534314b736f635bc06,6682b41eeb79ab8215dff63d,6682bab15b6828720da50cc2,38,Male,English,2024-07-01_15h20.19.301,ABmemTask3,2023.2.3,Win32,98.03921569,,,,,,,,,,,,,,,,,,,,,,,,,,,,,,,196.2482,197.2341,197.2342,22,197.7312,203.4066,0.0007,203.8043,0.3944,0.4138,0.4319,0.3973,0.4116,0.3991,0.4044,0.4097,0.4126,0.4057,0.3943,203.8044,205.8549,right,2.0213,,205.855,206.5016,right,0.6176,,8,0,8,206.5018,207.5015,0,3,3,3,1,prac_AB,L5_T1P_T2P,5,1,1,7,12,6,3,15,Human skull,Did you see the Human skull,0.22,0,resources/,pics/peach01.jpg,pics/proboscismonkey.jpg,pics/hose.jpg,pics/laptop01a.jpg,pics/hammerheadshark.jpg,pics/nutcracker01.jpg,pics/humanskull.jpg,pics/table01.jpg,pics/icecube01.jpg,pics/boot02b.jpg,pics/calendar.jpg,pics/stapler03a.jpg,pics/ashtray01.jpg,pics/giraffe.jpg,pics/dromedary.jpg,blankImage,blankImage,humanskull,12,0.4186,0.3906,0.3908,,,,,,,,,,,,,,,,,,,,,,,,,,,,,,,,,,,,,,,,,,,,,,,,,,,,,,,,,,,,,,,,,,,,,,,,,,,,,,,,,,,,,,,,,,,,,,,,,
,,,,,61347b534314b736f635bc06,6682b41eeb79ab8215dff63d,6682bab15b6828720da50cc2,38,Male,English,2024-07-01_15h20.19.301,ABmemTask3,2023.2.3,Win32,98.03921569,,,,,,,,,,,,,,,,,,,,,,,,,,,,,,,207.5141,208.4996,208.4997,21,208.9912,212.7399,0.0033,213.1113,0.3885,0.3751,0.3706,0.3721,0.3674,0.3833,0.3772,0.3717,0.3702,0.3696,,213.1116,215.7737,left,2.6271,,215.7739,216.8208,left,1.0146,,8,0,10,216.821,217.8167,0,4,4,4,1,prac_AB,L1_T1A_T2P,1,0,1,7,8,6,3,11,dog,Did you see the dog,0.21,0,resources/,pics/ball02.jpg,pics/binder03b.jpg,pics/dromedary.jpg,pics/shipinabottle.jpg,pics/proboscismonkey.jpg,pics/laptop01a.jpg,pics/chainsaw.jpg,pics/stapler13.jpg,pics/nutcracker01.jpg,pics/carrot01.jpg,pics/calendar.jpg,blankImage,blankImage,blankImage,blankImage,blankImage,blankImage,saintbernard,7,,,,,,,,,,,,,,,,,,,,,,,,,,,,,,,,,,,,,,,,,,,,,,,,,,,,,,,,,,,,,,,,,,,,,,,,,,,,,,,,,,,,,,,,,,,,,,,,,,,,
,,,,,61347b534314b736f635bc06,6682b41eeb79ab8215dff63d,6682bab15b6828720da50cc2,38,Male,English,2024-07-01_15h20.19.301,ABmemTask3,2023.2.3,Win32,98.03921569,,,,,,,,,,,,,,,,,,,,,,,,,,,,,,,217.8334,218.8213,218.8215,20,219.3245,224.3246,0.003,224.6818,0.356,0.361,0.3609,0.364,0.3475,0.352,0.3484,0.3597,0.3593,0.3567,0.354,224.682,228.4301,left,3.7224,,228.4302,231.3871,right,2.9285,,8,0,12,231.3873,232.3845,0,5,5,5,1,prac_AB,L5_T1P_T2P,5,1,1,5,10,4,5,15,grater,Did you see the grater,0.2,0,resources/,pics/pencil01.jpg,pics/laptop01a.jpg,pics/hammerheadshark.jpg,pics/cork02.jpg,pics/grater01a.jpg,pics/shipinabottle.jpg,pics/binder03b.jpg,pics/dromedary.jpg,pics/pictureframe04.jpg,pics/stapler04b.jpg,pics/fanblades.jpg,pics/aquarium.jpg,pics/hairdryer02a.jpg,pics/lightswitch01.jpg,pics/piggybank.jpg,blankImage,blankImage,grater01a,11,0.3586,0.359,0.3607,,,,,,,,,,,,,,,,,,,,,,,,,,,,,,,,,,,,,,,,,,,,,,,,,,,,,,,,,,,,,,,,,,,,,,,,,,,,,,,,,,,,,,,,,,,,,,,,,
,,,,,61347b534314b736f635bc06,6682b41eeb79ab8215dff63d,6682bab15b6828720da50cc2,38,Male,English,2024-07-01_15h20.19.301,ABmemTask3,2023.2.3,Win32,98.03921569,,,,,,,,,,,,,,,,,,,,,,,,,,,,,,,232.3933,233.3797,233.3798,19,233.8806,236.6086,0.0018,236.9474,0.336,0.3406,0.3485,0.3428,0.3382,0.3407,0.3404,0.3394,,,,236.9477,239.4813,left,2.5016,,239.4815,240.5364,left,1.0263,,8,0,14,240.5366,241.5348,0,6,6,6,1,prac_AB,L1_T1P_T2A,1,1,0,4,5,3,4,9,chalk,Did you see the chalk,0.19,0,resources/,pics/necklace.jpg,pics/starfish01.jpg,pics/safetypin.jpg,pics/chalk.jpg,pics/candleholder01.jpg,pics/bowtie.jpg,pics/match.jpg,pics/candle01.jpg,pics/pencilsharpener02a.jpg,blankImage,blankImage,blankImage,blankImage,blankImage,blankImage,blankImage,blankImage,chalk,9,,,,,,,,,,,,,,,,,,,,,,,,,,,,,,,,,,,,,,,,,,,,,,,,,,,,,,,,,,,,,,,,,,,,,,,,,,,,,,,,,,,,,,,,,,,,,,,,,,,,
,,,,,61347b534314b736f635bc06,6682b41eeb79ab8215dff63d,6682bab15b6828720da50cc2,38,Male,English,2024-07-01_15h20.19.301,ABmemTask3,2023.2.3,Win32,98.03921569,,,,,,,,,,,,,,,,,,,,,,,,,,,,,,,241.5419,242.5356,242.5358,18,243.035,245.9314,0.0024,246.2517,0.315,0.3269,0.3334,0.3201,0.319,0.3203,0.3211,0.3186,0.32,,,246.2519,247.4005,right,1.119,,247.4006,247.8961,right,0.464,,10,0,16,247.8963,248.8894,0,7,7,7,1,prac_AB,L1_T1P_T2P,1,1,1,5,6,4,4,10,pants,Did you see the pants,0.18,0,resources/,pics/kangaroo.jpg,pics/safetypin.jpg,pics/salmon.jpg,pics/sandbarshark.jpg,pics/pants.jpg,pics/stapler03a.jpg,pics/sink.jpg,pics/calendar.jpg,pics/butterfly.jpg,pics/fanblades.jpg,blankImage,blankImage,blankImage,blankImage,blankImage,blankImage,blankImage,pants,2,,,,,,,,,,,,,,,,,,,,,,,,,,,,,,,,,,,,,,,,,,,,,,,,,,,,,,,,,,,,,,,,,,,,,,,,,,,,,,,,,,,,,,,,,,,,,,,,,,,,
,,,,,61347b534314b736f635bc06,6682b41eeb79ab8215dff63d,6682bab15b6828720da50cc2,38,Male,English,2024-07-01_15h20.19.301,ABmemTask3,2023.2.3,Win32,98.03921569,,,,,,,,,,,,,,,,,,,,,,,,,,,,,,,248.9013,249.8945,249.8946,17,250.3855,254.6244,0.0017,254.9278,0.3053,0.3026,0.301,0.301,0.3004,0.3001,0.2999,0.2982,0.3007,0.3029,0.3046,254.9281,256.4571,left,1.5041,,256.4572,257.0466,right,0.5637,,12,0,18,257.0467,258.0427,0,8,8,8,1,prac_AB,L5_T1A_T2P,5,0,1,7,12,6,3,15,shirt,Did you see the shirt,0.17,0,resources/,pics/banjo.jpg,pics/chainsaw.jpg,pics/sailboat.jpg,pics/shipinabottle.jpg,pics/lightswitch01.jpg,pics/starfish01.jpg,pics/hen.jpg,pics/ball02.jpg,pics/bowlingpin.jpg,pics/hammerheadshark.jpg,pics/footballhelmet.jpg,pics/stapler10.jpg,pics/laptop01a.jpg,pics/cannon.jpg,pics/golfball.jpg,blankImage,blankImage,shirt02,13,0.3051,0.3114,0.3043,,,,,,,,,,,,,,,,,,,,,,,,,,,,,,,,,,,,,,,,,,,,,,,,,,,,,,,,,,,,,,,,,,,,,,,,,,,,,,,,,,,,,,,,,,,,,,,,,
,,,,,61347b534314b736f635bc06,6682b41eeb79ab8215dff63d,6682bab15b6828720da50cc2,38,Male,English,2024-07-01_15h20.19.301,ABmemTask3,2023.2.3,Win32,98.03921569,,,,,,,,,,,,,,,,,,,,,,,,,,,,,,,258.0436,259.044,259.0442,16,259.5459,262.432,0.0018,262.7176,0.2856,0.2886,0.2912,0.291,0.2954,0.2823,0.2885,0.285,0.2856,0.2914,,262.7179,264.0508,right,1.3067,,264.051,264.5931,right,0.5079,,14,0,20,264.5932,265.5897,0,9,9,9,1,prac_AB,L1_T1P_T2P,1,1,1,7,8,6,3,11,tongs,Did you see the tongs,0.16,0,resources/,pics/sewingmachine01a.jpg,pics/shovel01.jpg,pics/football.jpg,pics/hen.jpg,pics/banjo.jpg,pics/zebra.jpg,pics/tongs01b.jpg,pics/stapler11.jpg,pics/shipinabottle.jpg,pics/match.jpg,pics/candle01.jpg,blankImage,blankImage,blankImage,blankImage,blankImage,blankImage,tongs01b,5,,,,,,,,,,,,,,,,,,,,,,,,,,,,,,,,,,,,,,,,,,,,,,,,,,,,,,,,,,,,,,,,,,,,,,,,,,,,,,,,,,,,,,,,,,,,,,,,,,,,
,,,,,61347b534314b736f635bc06,6682b41eeb79ab8215dff63d,6682bab15b6828720da50cc2,38,Male,English,2024-07-01_15h20.19.301,ABmemTask3,2023.2.3,Win32,98.03921569,,,,,,,,,,,,,,,,,,,,,,,,,,,,,,,265.6016,266.596,266.5961,15,267.0968,270.0651,0.0022,270.3361,0.2673,0.2683,0.2713,0.2703,0.2698,0.2699,0.2703,0.2695,0.2697,0.2705,0.2696,270.3362,271.6156,left,1.2499,,271.6157,272.587,left,0.9533,,16,0,22,272.5871,273.5829,0,10,10,10,1,prac_AB,L1_T1A_T2A,1,0,0,7,8,6,4,12,camera,Did you see the camera,0.15,0,resources/,pics/lightswitch01.jpg,pics/table01.jpg,pics/aquarium.jpg,pics/boot02b.jpg,pics/butterfly.jpg,pics/chainsaw.jpg,pics/binoculars01b.jpg,pics/giraffe.jpg,pics/triangle.jpg,pics/microscope.jpg,pics/mummy.jpg,pics/icecube01.jpg,blankImage,blankImage,blankImage,blankImage,blankImage,camera01a,10,,,,,,,,,,,,,,,,,,,,,,,,,,,,,,,,,,,,,,,,,,,,,,,,,,,,,,,,,,,,,,,,,,,,,,,,,,,,,,,,,,,,,,,,,,,,,,,,,,,,
,,,,,61347b534314b736f635bc06,6682b41eeb79ab8215dff63d,6682bab15b6828720da50cc2,38,Male,English,2024-07-01_15h20.19.301,ABmemTask3,2023.2.3,Win32,98.03921569,,,,,,,,,,,,,,,,,,,,,,,,,,,,,,,273.5958,274.5952,274.5952,14,275.0961,277.3636,0.0024,277.6331,0.252,0.2458,0.2519,0.2503,0.2516,0.2481,0.2505,0.249,0.2662,,,277.6332,283.9695,left,6.3012,,283.9695,284.9323,left,0.934,,14,0,24,284.9325,285.9211,0,11,11,11,1,prac_AB,L1_T1P_T2P,1,1,1,6,7,5,3,10,shorts,Did you see the shorts,0.14,0,resources/,pics/snowshoe.jpg,pics/chainsaw.jpg,pics/sailboat.jpg,pics/ball02.jpg,pics/candleholder01.jpg,pics/shorts01.jpg,pics/stapler07.jpg,pics/peach01.jpg,pics/proboscismonkey.jpg,pics/hen.jpg,blankImage,blankImage,blankImage,blankImage,blankImage,blankImage,blankImage,shorts01,4,,,,,,,,,,,,,,,,,,,,,,,,,,,,,,,,,,,,,,,,,,,,,,,,,,,,,,,,,,,,,,,,,,,,,,,,,,,,,,,,,,,,,,,,,,,,,,,,,,,,
,,,,,61347b534314b736f635bc06,6682b41eeb79ab8215dff63d,6682bab15b6828720da50cc2,38,Male,English,2024-07-01_15h20.19.301,ABmemTask3,2023.2.3,Win32,98.03921569,,,,,,,,,,,,,,,,,,,,,,,,,,,,,,,285.9324,286.9269,286.927,13,287.4143,290.2029,0.0023,290.4336,0.2259,0.2328,0.2288,0.232,0.2398,0.2364,0.2319,0.2311,0.2396,0.2278,0.2328,290.4338,292.0421,right,1.5833,,292.0422,293.0832,right,1.0137,,12,0,26,293.0834,294.0727,0,12,12,12,1,prac_AB,L5_T1P_T2A,5,1,0,5,10,4,3,13,fish,Did you see the fish,0.13,0,resources/,pics/football.jpg,pics/safetypin.jpg,pics/shovel01.jpg,pics/sink.jpg,pics/holdfast.jpg,pics/nutcracker01.jpg,pics/starfish01.jpg,pics/onion.jpg,pics/footballhelmet.jpg,pics/boot02b.jpg,pics/sewingmachine01a.jpg,pics/kangaroo.jpg,pics/banjo.jpg,blankImage,blankImage,blankImage,blankImage,holdfast,14,0.2278,,,,,,,,,,,,,,,,,,,,,,,,,,,,,,,,,,,,,,,,,,,,,,,,,,,,,,,,,,,,,,,,,,,,,,,,,,,,,,,,,,,,,,,,,,,,,,,,,,,
,,,,,61347b534314b736f635bc06,6682b41eeb79ab8215dff63d,6682bab15b6828720da50cc2,38,Male,English,2024-07-01_15h20.19.301,ABmemTask3,2023.2.3,Win32,98.03921569,,,,,,,,,,,,,,,,,,,,,,,,,,,,,,,294.0818,295.073,295.0731,12,295.5727,297.5477,0.0018,297.7663,0.2127,0.2275,0.2133,0.2194,0.2206,0.2195,0.2205,0.2201,0.22,,,297.7664,326.0831,right,28.2823,,326.0834,327.2199,left,1.1036,,12,0,28,327.2201,328.2086,0,13,13,13,1,prac_AB,L1_T1P_T2P,1,1,1,5,6,4,4,10,fish,Did you see the fish,0.12,0,resources/,pics/butterfly.jpg,pics/banjo.jpg,pics/leaf02a.jpg,pics/dustpan.jpg,pics/sturgeon.jpg,pics/stapler02.jpg,pics/necklace.jpg,pics/shovel01.jpg,pics/starfish01.jpg,pics/chainsaw.jpg,blankImage,blankImage,blankImage,blankImage,blankImage,blankImage,blankImage,sturgeon,3,,,,,,,,,,,,,,,,,,,,,,,,,,,,,,,,,,,,,,,,,,,,,,,,,,,,,,,,,,,,,,,,,,,,,,,,,,,,,,,,,,,,,,,,,,,,,,,,,,,,
,,,,,61347b534314b736f635bc06,6682b41eeb79ab8215dff63d,6682bab15b6828720da50cc2,38,Male,English,2024-07-01_15h20.19.301,ABmemTask3,2023.2.3,Win32,98.03921569,,,,,,,,,,,,,,,,,,,,,,,,,,,,,,,,,,,,,,,,,,,,,,,,,,,,,,,,,,,,,,,,,,,,,,,,,,,,,,,,,,,,,,,,,,,,,,,,,,,,,,,,,,,328.2102,333.1095,space,4.8686,,,,,,,,,,,,,,,,,,,,,,,,,,,,,,,,,,,,,,,,,,,,,,,,,,,,,,,,,,,,,,,,,,,,,,,,,,,,,,,,,,,,,,,,,,,,,
,,,,,61347b534314b736f635bc06,6682b41eeb79ab8215dff63d,6682bab15b6828720da50cc2,38,Male,English,2024-07-01_15h20.19.301,ABmemTask3,2023.2.3,Win32,98.03921569,,,,,,,,,,,,,,,,,,,,,,,,,,,,,,,333.1185,334.1156,334.1158,25,334.6034,339.5225,0.0024,339.9609,0.444,0.4446,0.4373,0.4412,0.4378,0.4454,0.4456,0.4556,0.4756,0.4478,0.442,339.9609,340.8993,right,0.9105,,340.8994,341.6692,left,0.7403,,2,0,2,341.6693,342.6702,0,0,0,0,1,prac_AB,L1_T1P_T2A,1,1,0,6,7,5,5,12,cat,Did you see the cat,0.25,0,resources/,pics/shipinabottle.jpg,pics/table01.jpg,pics/dustpan.jpg,pics/golfball.jpg,pics/giraffe.jpg,pics/cat.jpg,pics/peanut01.jpg,pics/pictureframe04.jpg,pics/fanblades.jpg,pics/laptop01a.jpg,pics/ball02.jpg,pics/blender.jpg,blankImage,blankImage,blankImage,blankImage,blankImage,cat,8,,,,,,,,,,,,,,,,,,,,,,,,,,,,,,,,,,,,,,,,,,,,,,,,,,,,,,,,,,,,,,,,,,,,,,,,,,,,,,,,,,,,,,,,,,,,,,,,,,,,
,,,,,61347b534314b736f635bc06,6682b41eeb79ab8215dff63d,6682bab15b6828720da50cc2,38,Male,English,2024-07-01_15h20.19.301,ABmemTask3,2023.2.3,Win32,98.03921569,,,,,,,,,,,,,,,,,,,,,,,,,,,,,,,342.6776,343.6777,343.6778,24,344.1654,348.0172,0.0015,348.4451,0.4287,0.4335,0.4275,0.4304,0.4306,0.4293,0.4292,0.4203,0.4213,,,348.4453,349.3826,right,0.9122,,349.3828,349.7245,right,0.3141,,4,0,4,349.7246,350.7143,0,1,1,1,1,prac_AB,L1_T1P_T2P,1,1,1,5,6,4,4,10,tree,Did you see the tree,0.24,0,resources/,pics/carrot01.jpg,pics/hammerheadshark.jpg,pics/kangaroo.jpg,pics/proboscismonkey.jpg,pics/tree.jpg,pics/stapler07.jpg,pics/siamesecat.jpg,pics/ball02.jpg,pics/pictureframe04.jpg,pics/mummy.jpg,blankImage,blankImage,blankImage,blankImage,blankImage,blankImage,blankImage,tree,1,,,,,,,,,,,,,,,,,,,,,,,,,,,,,,,,,,,,,,,,,,,,,,,,,,,,,,,,,,,,,,,,,,,,,,,,,,,,,,,,,,,,,,,,,,,,,,,,,,,,
,,,,,61347b534314b736f635bc06,6682b41eeb79ab8215dff63d,6682bab15b6828720da50cc2,38,Male,English,2024-07-01_15h20.19.301,ABmemTask3,2023.2.3,Win32,98.03921569,,,,,,,,,,,,,,,,,,,,,,,,,,,,,,,350.7296,351.7383,351.7384,23,352.2362,356.7407,0.0021,357.1479,0.4048,0.4081,0.4092,0.4094,0.411,0.4081,0.4106,0.4106,0.4112,0.4125,0.4073,357.148,358.1265,left,0.944,,358.1267,358.6666,right,0.514,,6,0,6,358.6668,359.6563,0,2,2,2,1,prac_AB,L1_T1A_T2P,1,0,1,7,8,6,4,12,grapes,Did you see the grapes,0.23,0,resources/,pics/sailboat.jpg,pics/butterfly.jpg,pics/giraffe.jpg,pics/spoon01.jpg,pics/hose.jpg,pics/nutcracker01.jpg,pics/table01.jpg,pics/stapler13.jpg,pics/pencil01.jpg,pics/football.jpg,pics/triangle.jpg,pics/hairdryer02a.jpg,blankImage,blankImage,blankImage,blankImage,blankImage,grape01,6,,,,,,,,,,,,,,,,,,,,,,,,,,,,,,,,,,,,,,,,,,,,,,,,,,,,,,,,,,,,,,,,,,,,,,,,,,,,,,,,,,,,,,,,,,,,,,,,,,,,
,,,,,61347b534314b736f635bc06,6682b41eeb79ab8215dff63d,6682bab15b6828720da50cc2,38,Male,English,2024-07-01_15h20.19.301,ABmemTask3,2023.2.3,Win32,98.03921569,,,,,,,,,,,,,,,,,,,,,,,,,,,,,,,359.6574,360.6447,360.6447,22,361.1345,366.625,0.0018,367.0145,0.3957,0.3942,0.3883,0.389,0.3897,0.3921,0.4022,0.4004,0.386,0.3911,0.3893,367.0146,367.6988,right,0.6549,,367.6989,368.0477,right,0.3245,,8,0,8,368.0478,369.036,0,3,3,3,1,prac_AB,L5_T1P_T2P,5,1,1,7,12,6,3,15,Human skull,Did you see the Human skull,0.22,0,resources/,pics/peach01.jpg,pics/proboscismonkey.jpg,pics/hose.jpg,pics/laptop01a.jpg,pics/hammerheadshark.jpg,pics/nutcracker01.jpg,pics/humanskull.jpg,pics/table01.jpg,pics/icecube01.jpg,pics/boot02b.jpg,pics/calendar.jpg,pics/stapler03a.jpg,pics/ashtray01.jpg,pics/giraffe.jpg,pics/dromedary.jpg,blankImage,blankImage,humanskull,12,0.3902,0.39,0.3908,,,,,,,,,,,,,,,,,,,,,,,,,,,,,,,,,,,,,,,,,,,,,,,,,,,,,,,,,,,,,,,,,,,,,,,,,,,,,,,,,,,,,,,,,,,,,,,,,
,,,,,61347b534314b736f635bc06,6682b41eeb79ab8215dff63d,6682bab15b6828720da50cc2,38,Male,English,2024-07-01_15h20.19.301,ABmemTask3,2023.2.3,Win32,98.03921569,,,,,,,,,,,,,,,,,,,,,,,,,,,,,,,369.0369,370.041,370.0411,21,370.5375,374.2771,0.0019,374.7032,0.367,0.3729,0.3683,0.3745,0.3792,0.3767,0.3709,0.3704,0.3687,0.3892,,374.7033,375.5094,left,0.7717,,375.5095,376.413,right,0.8776,,10,0,10,376.4131,377.4079,0,4,4,4,1,prac_AB,L1_T1A_T2P,1,0,1,7,8,6,3,11,dog,Did you see the dog,0.21,0,resources/,pics/ball02.jpg,pics/binder03b.jpg,pics/dromedary.jpg,pics/shipinabottle.jpg,pics/proboscismonkey.jpg,pics/laptop01a.jpg,pics/chainsaw.jpg,pics/stapler13.jpg,pics/nutcracker01.jpg,pics/carrot01.jpg,pics/calendar.jpg,blankImage,blankImage,blankImage,blankImage,blankImage,blankImage,saintbernard,7,,,,,,,,,,,,,,,,,,,,,,,,,,,,,,,,,,,,,,,,,,,,,,,,,,,,,,,,,,,,,,,,,,,,,,,,,,,,,,,,,,,,,,,,,,,,,,,,,,,,
,,,,,61347b534314b736f635bc06,6682b41eeb79ab8215dff63d,6682bab15b6828720da50cc2,38,Male,English,2024-07-01_15h20.19.301,ABmemTask3,2023.2.3,Win32,98.03921569,,,,,,,,,,,,,,,,,,,,,,,,,,,,,,,377.4237,378.4182,378.4183,20,378.9071,383.9418,0.0018,384.3128,0.3568,0.3663,0.3594,0.3539,0.3576,0.3614,0.3601,0.357,0.3624,0.3609,0.3608,384.3129,384.9399,right,0.5923,,384.94,385.3245,right,0.3566,,12,0,12,385.3246,386.3193,0,5,5,5,1,prac_AB,L5_T1P_T2P,5,1,1,5,10,4,5,15,grater,Did you see the grater,0.2,0,resources/,pics/pencil01.jpg,pics/laptop01a.jpg,pics/hammerheadshark.jpg,pics/cork02.jpg,pics/grater01a.jpg,pics/shipinabottle.jpg,pics/binder03b.jpg,pics/dromedary.jpg,pics/pictureframe04.jpg,pics/stapler04b.jpg,pics/fanblades.jpg,pics/aquarium.jpg,pics/hairdryer02a.jpg,pics/lightswitch01.jpg,pics/piggybank.jpg,blankImage,blankImage,grater01a,11,0.3687,0.3589,0.3493,,,,,,,,,,,,,,,,,,,,,,,,,,,,,,,,,,,,,,,,,,,,,,,,,,,,,,,,,,,,,,,,,,,,,,,,,,,,,,,,,,,,,,,,,,,,,,,,,
,,,,,61347b534314b736f635bc06,6682b41eeb79ab8215dff63d,6682bab15b6828720da50cc2,38,Male,English,2024-07-01_15h20.19.301,ABmemTask3,2023.2.3,Win32,98.03921569,,,,,,,,,,,,,,,,,,,,,,,,,,,,,,,386.3204,387.3093,387.3093,19,387.81,390.5279,0.0018,390.8673,0.3354,0.3405,0.3409,0.3414,0.3377,0.3385,0.3419,0.3402,,,,390.8674,392.2942,left,1.3961,,392.2944,393.5197,left,1.1909,,12,0,14,393.5199,394.5186,0,6,6,6,1,prac_AB,L1_T1P_T2A,1,1,0,4,5,3,4,9,chalk,Did you see the chalk,0.19,0,resources/,pics/necklace.jpg,pics/starfish01.jpg,pics/safetypin.jpg,pics/chalk.jpg,pics/candleholder01.jpg,pics/bowtie.jpg,pics/match.jpg,pics/candle01.jpg,pics/pencilsharpener02a.jpg,blankImage,blankImage,blankImage,blankImage,blankImage,blankImage,blankImage,blankImage,chalk,9,,,,,,,,,,,,,,,,,,,,,,,,,,,,,,,,,,,,,,,,,,,,,,,,,,,,,,,,,,,,,,,,,,,,,,,,,,,,,,,,,,,,,,,,,,,,,,,,,,,,
,,,,,61347b534314b736f635bc06,6682b41eeb79ab8215dff63d,6682bab15b6828720da50cc2,38,Male,English,2024-07-01_15h20.19.301,ABmemTask3,2023.2.3,Win32,98.03921569,,,,,,,,,,,,,,,,,,,,,,,,,,,,,,,394.5194,395.5114,395.5115,18,396.011,398.9236,0.0014,399.2685,0.3286,0.3187,0.3213,0.321,0.318,0.3262,0.3227,0.3225,0.3323,,,399.2686,400.2455,right,0.9443,,400.2457,400.8063,right,0.5362,,14,0,16,400.8065,401.8023,0,7,7,7,1,prac_AB,L1_T1P_T2P,1,1,1,5,6,4,4,10,pants,Did you see the pants,0.18,0,resources/,pics/kangaroo.jpg,pics/safetypin.jpg,pics/salmon.jpg,pics/sandbarshark.jpg,pics/pants.jpg,pics/stapler03a.jpg,pics/sink.jpg,pics/calendar.jpg,pics/butterfly.jpg,pics/fanblades.jpg,blankImage,blankImage,blankImage,blankImage,blankImage,blankImage,blankImage,pants,2,,,,,,,,,,,,,,,,,,,,,,,,,,,,,,,,,,,,,,,,,,,,,,,,,,,,,,,,,,,,,,,,,,,,,,,,,,,,,,,,,,,,,,,,,,,,,,,,,,,,
,,,,,61347b534314b736f635bc06,6682b41eeb79ab8215dff63d,6682bab15b6828720da50cc2,38,Male,English,2024-07-01_15h20.19.301,ABmemTask3,2023.2.3,Win32,98.03921569,,,,,,,,,,,,,,,,,,,,,,,,,,,,,,,401.8031,402.8081,402.8082,17,403.3074,407.5365,0.0028,407.8329,0.3036,0.3045,0.295,0.3008,0.2993,0.3036,0.31,0.2985,0.2985,0.3065,0.3037,407.833,408.9957,left,1.1338,,408.9958,409.6033,right,0.5822,,16,0,18,409.6033,410.5942,0,8,8,8,1,prac_AB,L5_T1A_T2P,5,0,1,7,12,6,3,15,shirt,Did you see the shirt,0.17,0,resources/,pics/banjo.jpg,pics/chainsaw.jpg,pics/sailboat.jpg,pics/shipinabottle.jpg,pics/lightswitch01.jpg,pics/starfish01.jpg,pics/hen.jpg,pics/ball02.jpg,pics/bowlingpin.jpg,pics/hammerheadshark.jpg,pics/footballhelmet.jpg,pics/stapler10.jpg,pics/laptop01a.jpg,pics/cannon.jpg,pics/golfball.jpg,blankImage,blankImage,shirt02,13,0.2997,0.2999,0.3031,,,,,,,,,,,,,,,,,,,,,,,,,,,,,,,,,,,,,,,,,,,,,,,,,,,,,,,,,,,,,,,,,,,,,,,,,,,,,,,,,,,,,,,,,,,,,,,,,
,,,,,61347b534314b736f635bc06,6682b41eeb79ab8215dff63d,6682bab15b6828720da50cc2,38,Male,English,2024-07-01_15h20.19.301,ABmemTask3,2023.2.3,Win32,98.03921569,,,,,,,,,,,,,,,,,,,,,,,,,,,,,,,410.595,411.5828,411.5829,16,412.0911,414.9692,0.0019,415.2594,0.2861,0.2894,0.2811,0.2921,0.2882,0.2887,0.2798,0.2931,0.2886,0.2894,,415.2596,416.0115,right,0.7185,,416.0117,416.4188,right,0.3764,,18,0,20,416.4189,417.4081,0,9,9,9,1,prac_AB,L1_T1P_T2P,1,1,1,7,8,6,3,11,tongs,Did you see the tongs,0.16,0,resources/,pics/sewingmachine01a.jpg,pics/shovel01.jpg,pics/football.jpg,pics/hen.jpg,pics/banjo.jpg,pics/zebra.jpg,pics/tongs01b.jpg,pics/stapler11.jpg,pics/shipinabottle.jpg,pics/match.jpg,pics/candle01.jpg,blankImage,blankImage,blankImage,blankImage,blankImage,blankImage,tongs01b,5,,,,,,,,,,,,,,,,,,,,,,,,,,,,,,,,,,,,,,,,,,,,,,,,,,,,,,,,,,,,,,,,,,,,,,,,,,,,,,,,,,,,,,,,,,,,,,,,,,,,
,,,,,61347b534314b736f635bc06,6682b41eeb79ab8215dff63d,6682bab15b6828720da50cc2,38,Male,English,2024-07-01_15h20.19.301,ABmemTask3,2023.2.3,Win32,98.03921569,,,,,,,,,,,,,,,,,,,,,,,,,,,,,,,417.4093,418.4041,418.4042,15,418.9049,421.8726,0.002,422.1422,0.2682,0.2691,0.2683,0.2705,0.2704,0.2697,0.2692,0.2712,0.2734,0.2665,0.2696,422.1424,423.8424,left,1.6683,,423.8426,425.5856,right,1.713,,16,0,22,425.5857,426.5792,0,10,10,10,1,prac_AB,L1_T1A_T2A,1,0,0,7,8,6,4,12,camera,Did you see the camera,0.15,0,resources/,pics/lightswitch01.jpg,pics/table01.jpg,pics/aquarium.jpg,pics/boot02b.jpg,pics/butterfly.jpg,pics/chainsaw.jpg,pics/binoculars01b.jpg,pics/giraffe.jpg,pics/triangle.jpg,pics/microscope.jpg,pics/mummy.jpg,pics/icecube01.jpg,blankImage,blankImage,blankImage,blankImage,blankImage,camera01a,10,,,,,,,,,,,,,,,,,,,,,,,,,,,,,,,,,,,,,,,,,,,,,,,,,,,,,,,,,,,,,,,,,,,,,,,,,,,,,,,,,,,,,,,,,,,,,,,,,,,,
,,,,,61347b534314b736f635bc06,6682b41eeb79ab8215dff63d,6682bab15b6828720da50cc2,38,Male,English,2024-07-01_15h20.19.301,ABmemTask3,2023.2.3,Win32,98.03921569,,,,,,,,,,,,,,,,,,,,,,,,,,,,,,,426.5939,427.5942,427.5943,14,428.0954,430.3712,0.0017,430.6268,0.249,0.2587,0.2527,0.255,0.2563,0.2483,0.2514,0.2498,0.2534,,,430.6269,432.3278,right,1.6726,,432.328,433.1892,right,0.8341,,18,0,24,433.1893,434.1854,0,11,11,11,1,prac_AB,L1_T1P_T2P,1,1,1,6,7,5,3,10,shorts,Did you see the shorts,0.14,0,resources/,pics/snowshoe.jpg,pics/chainsaw.jpg,pics/sailboat.jpg,pics/ball02.jpg,pics/candleholder01.jpg,pics/shorts01.jpg,pics/stapler07.jpg,pics/peach01.jpg,pics/proboscismonkey.jpg,pics/hen.jpg,blankImage,blankImage,blankImage,blankImage,blankImage,blankImage,blankImage,shorts01,4,,,,,,,,,,,,,,,,,,,,,,,,,,,,,,,,,,,,,,,,,,,,,,,,,,,,,,,,,,,,,,,,,,,,,,,,,,,,,,,,,,,,,,,,,,,,,,,,,,,,
,,,,,61347b534314b736f635bc06,6682b41eeb79ab8215dff63d,6682bab15b6828720da50cc2,38,Male,English,2024-07-01_15h20.19.301,ABmemTask3,2023.2.3,Win32,98.03921569,,,,,,,,,,,,,,,,,,,,,,,,,,,,,,,434.1945,435.1956,435.1957,13,435.696,438.4798,0.0019,438.7111,0.2351,0.2396,0.229,0.2296,0.2314,0.2299,0.24,0.2269,0.2337,0.2265,0.2333,438.7112,439.8071,right,1.0701,,439.8073,440.2384,left,0.4011,,20,0,26,440.2385,441.2403,0,12,12,12,1,prac_AB,L5_T1P_T2A,5,1,0,5,10,4,3,13,fish,Did you see the fish,0.13,0,resources/,pics/football.jpg,pics/safetypin.jpg,pics/shovel01.jpg,pics/sink.jpg,pics/holdfast.jpg,pics/nutcracker01.jpg,pics/starfish01.jpg,pics/onion.jpg,pics/footballhelmet.jpg,pics/boot02b.jpg,pics/sewingmachine01a.jpg,pics/kangaroo.jpg,pics/banjo.jpg,blankImage,blankImage,blankImage,blankImage,holdfast,14,0.2271,,,,,,,,,,,,,,,,,,,,,,,,,,,,,,,,,,,,,,,,,,,,,,,,,,,,,,,,,,,,,,,,,,,,,,,,,,,,,,,,,,,,,,,,,,,,,,,,,,,
,,,,,61347b534314b736f635bc06,6682b41eeb79ab8215dff63d,6682bab15b6828720da50cc2,38,Male,English,2024-07-01_15h20.19.301,ABmemTask3,2023.2.3,Win32,98.03921569,,,,,,,,,,,,,,,,,,,,,,,,,,,,,,,441.2486,442.2339,442.2339,12,442.73,444.6938,0.0017,444.9047,0.2094,0.2158,0.2171,0.2239,0.2177,0.2199,0.2197,0.2195,0.2195,,,444.9048,446.0474,right,1.126,,446.0476,446.4074,left,0.3287,,20,0,28,446.4075,447.4008,0,13,13,13,1,prac_AB,L1_T1P_T2P,1,1,1,5,6,4,4,10,fish,Did you see the fish,0.12,0,resources/,pics/butterfly.jpg,pics/banjo.jpg,pics/leaf02a.jpg,pics/dustpan.jpg,pics/sturgeon.jpg,pics/stapler02.jpg,pics/necklace.jpg,pics/shovel01.jpg,pics/starfish01.jpg,pics/chainsaw.jpg,blankImage,blankImage,blankImage,blankImage,blankImage,blankImage,blankImage,sturgeon,3,,,,,,,,,,,,,,,,,,,,,,,,,,,,,,,,,,,,,,,,,,,,,,,,,,,,,,,,,,,,,,,,,,,,,,,,,,,,,,,,,,,,,,,,,,,,,,,,,,,,
,,,,,61347b534314b736f635bc06,6682b41eeb79ab8215dff63d,6682bab15b6828720da50cc2,38,Male,English,2024-07-01_15h20.19.301,ABmemTask3,2023.2.3,Win32,98.03921569,,,,,,,,,,,,,,,,,,,,,,,,,,,,,,,,,,,,,,,,,,,,,,,,,,,,,,,,,,,,,,,,,,,,,,,,,,,,,,,,,,,,,,,,,,,,,,,,,,,,,,,,,,,447.401,467.6686,space,20.2394,,,,,,,,,,,,,,,,,,,,,,,,,,,,,,,,,,,,,,,,,,,,,,,,,,,,,,,,,,,,,,,,,,,,,,,,,,,,,,,,,,,,,,,,,,,,,
,,,,,61347b534314b736f635bc06,6682b41eeb79ab8215dff63d,6682bab15b6828720da50cc2,38,Male,English,2024-07-01_15h20.19.301,ABmemTask3,2023.2.3,Win32,98.03921569,,,,,,,,,,,,,,,,,,,,,,,,,,,,,,,,,,,,,,,,,,,,,,,,,,,,,,,,,,,,,,,,,,,,,,,,,,,,,,,,,,,,,,,,,,,,,,,,,,,,,,,,,,,467.6809,467.682,,,,,,,,,,,,,,,,,,,,,,,,,,,,,,,,,,,,,,,,,,,,,,,,,,,,,,,,,,,,,,,,,,,,,,,,,,,,,,,,,,,,,,,,,,,,,,,
,,,,,61347b534314b736f635bc06,6682b41eeb79ab8215dff63d,6682bab15b6828720da50cc2,38,Male,English,2024-07-01_15h20.19.301,ABmemTask3,2023.2.3,Win32,98.03921569,,,,,,,,,,,,,,,,,,,,,,,,,,,,,,,,,,,,,,,,,,,,,,,,,,,,,,,,,,,,,,,,,,,,,,,,,,,,,,,,,,,,,,,,,,,,,,,,,,,,,,,,,,,467.6846,467.6849,,,,,,,,,,,,,,,,,,,,,,,,,,,,,,,,,,,,,,,,,,,,,,,,,,,,,,,,,,,,,,,,,,,,,,,,,,,,,,,,,,,,,,,,,,,,,,,
,,,,,61347b534314b736f635bc06,6682b41eeb79ab8215dff63d,6682bab15b6828720da50cc2,38,Male,English,2024-07-01_15h20.19.301,ABmemTask3,2023.2.3,Win32,98.03921569,,,,,,,,,,,,,,,,,,,,,,,,,,,,,,,,,,,,,,,,,,,,,,,,,,,,,,,,,,,,,,,,,,,,,,,,,,,,,,,,,,,,,,,,,,,,,,,,,,,,,,,,,,,467.691,467.6913,,,,,,,,,,,,,,,,,,,,,,,,,,,,,,,,,,,,,,,,,,,,,,,,,,,,,,,,,,,,,,,,,,,,,,,,,,,,,,,,,,,,,,,,,,,,,,,
,,,,,61347b534314b736f635bc06,6682b41eeb79ab8215dff63d,6682bab15b6828720da50cc2,38,Male,English,2024-07-01_15h20.19.301,ABmemTask3,2023.2.3,Win32,98.03921569,,,,,,,,,,,,,,,,,,,,,,,,,,,,,,,,,,,,,,,,,,,,,,,,,,,,,,,,,,,,,,,,,,,,,,,,,,,,,,,,,,,,,,,,,,,,,,,,,,,,,,,,,,,467.693,467.6931,,,,,,,,,,,,,,,,,,,,,,,,,,,,,,,,,,,,,,,,,,,,,,,,,,,,,,,,,,,,,,,,,,,,,,,,,,,,,,,,,,,,,,,,,,,,,,,
,,,,,61347b534314b736f635bc06,6682b41eeb79ab8215dff63d,6682bab15b6828720da50cc2,38,Male,English,2024-07-01_15h20.19.301,ABmemTask3,2023.2.3,Win32,98.03921569,,,,,,,,,,,,,,,,,,,,,,,,,,,,,,,,,,,,,,,,,,,,,,,,,,,,,,,,,,,,,,,,,,,,,,,,,,,,,,,,,,,,,,,,,,,,,,,,,,,,,,,,,,,467.694,467.694,,,,,,,,,,,,,,,,,,,,,,,,,,,,,,,,,,,,,,,,,,,,,,,,,,,,,,,,,,,,,,,,,,,,,,,,,,,,,,,,,,,,,,,,,,,,,,,
,,,,,61347b534314b736f635bc06,6682b41eeb79ab8215dff63d,6682bab15b6828720da50cc2,38,Male,English,2024-07-01_15h20.19.301,ABmemTask3,2023.2.3,Win32,98.03921569,,,,,,,,,,,,,,,,,,,,,,,,,,,,,,,,,,,,,,,,,,,,,,,,,,,,,,,,,,,,,,,,,,,,,,,,,,,,,,,,,,,,,,,,,,,,,,,,,,,,,,,,,,,467.6956,467.6957,,,,,,,,,,,,,,,,,,,,,,,,,,,,,,,,,,,,,,,,,,,,,,,,,,,,,,,,,,,,,,,,,,,,,,,,,,,,,,,,,,,,,,,,,,,,,,,
,,,,,61347b534314b736f635bc06,6682b41eeb79ab8215dff63d,6682bab15b6828720da50cc2,38,Male,English,2024-07-01_15h20.19.301,ABmemTask3,2023.2.3,Win32,98.03921569,,,,,,,,,,,,,,,,,,,,,,,,,,,,,,,,,,,,,,,,,,,,,,,,,,,,,,,,,,,,,,,,,,,,,,,,,,,,,,,,,,,,,,,,,,,,,,,,,,,,,,,,,,,467.6966,467.6967,,,,,,,,,,,,,,,,,,,,,,,,,,,,,,,,,,,,,,,,,,,,,,,,,,,,,,,,,,,,,,,,,,,,,,,,,,,,,,,,,,,,,,,,,,,,,,,
,,,,,61347b534314b736f635bc06,6682b41eeb79ab8215dff63d,6682bab15b6828720da50cc2,38,Male,English,2024-07-01_15h20.19.301,ABmemTask3,2023.2.3,Win32,98.03921569,,,,,,,,,,,,,,,,,,,,,,,,,,,,,,,,,,,,,,,,,,,,,,,,,,,,,,,,,,,,,,,,,,,,,,,,,,,,,,,,,,,,,,,,,,,,,,,,,,,,,,,,,,,467.6975,467.6975,,,,,,,,,,,,,,,,,,,,,,,,,,,,,,,,,,,,,,,,,,,,,,,,,,,,,,,,,,,,,,,,,,,,,,,,,,,,,,,,,,,,,,,,,,,,,,,
,,,,,61347b534314b736f635bc06,6682b41eeb79ab8215dff63d,6682bab15b6828720da50cc2,38,Male,English,2024-07-01_15h20.19.301,ABmemTask3,2023.2.3,Win32,98.03921569,,,,,,,,,,,,,,,,,,,,,,,,,,,,,,,,,,,,,,,,,,,,,,,,,,,,,,,,,,,,,,,,,,,,,,,,,,,,,,,,,,,,,,,,,,,,,,,,,,,,,,,,,,,467.6988,467.6988,,,,,,,,,,,,,,,,,,,,,,,,,,,,,,,,,,,,,,,,,,,,,,,,,,,,,,,,,,,,,,,,,,,,,,,,,,,,,,,,,,,,,,,,,,,,,,,
,,,,,61347b534314b736f635bc06,6682b41eeb79ab8215dff63d,6682bab15b6828720da50cc2,38,Male,English,2024-07-01_15h20.19.301,ABmemTask3,2023.2.3,Win32,98.03921569,,,,,,,,,,,,,,,,,,,,,,,,,,,,,,,,,,,,,,,,,,,,,,,,,,,,,,,,,,,,,,,,,,,,,,,,,,,,,,,,,,,,,,,,,,,,,,,,,,,,,,,,,,,467.6997,467.6998,,,,,,,,,,,,,,,,,,,,,,,,,,,,,,,,,,,,,,,,,,,,,,,,,,,,,,,,,,,,,,,,,,,,,,,,,,,,,,,,,,,,,,,,,,,,,,,
,,,,,61347b534314b736f635bc06,6682b41eeb79ab8215dff63d,6682bab15b6828720da50cc2,38,Male,English,2024-07-01_15h20.19.301,ABmemTask3,2023.2.3,Win32,98.03921569,,,,,,,,,,,,,,,,,,,,,,,,,,,,,,,,,,,,,,,,,,,,,,,,,,,,,,,,,,,,,,,,,,,,,,,,,,,,,,,,,,,,,,,,,,,,,,,,,,,,,,,,,,,467.7005,467.7006,,,,,,,,,,,,,,,,,,,,,,,,,,,,,,,,,,,,,,,,,,,,,,,,,,,,,,,,,,,,,,,,,,,,,,,,,,,,,,,,,,,,,,,,,,,,,,,
,,,,,61347b534314b736f635bc06,6682b41eeb79ab8215dff63d,6682bab15b6828720da50cc2,38,Male,English,2024-07-01_15h20.19.301,ABmemTask3,2023.2.3,Win32,98.03921569,,,,,,,,,,,,,,,,,,,,,,,,,,,,,,,,,,,,,,,,,,,,,,,,,,,,,,,,,,,,,,,,,,,,,,,,,,,,,,,,,,,,,,,,,,,,,,,,,,,,,,,,,,,467.7015,467.7015,,,,,,,,,,,,,,,,,,,,,,,,,,,,,,,,,,,,,,,,,,,,,,,,,,,,,,,,,,,,,,,,,,,,,,,,,,,,,,,,,,,,,,,,,,,,,,,
,,,,,61347b534314b736f635bc06,6682b41eeb79ab8215dff63d,6682bab15b6828720da50cc2,38,Male,English,2024-07-01_15h20.19.301,ABmemTask3,2023.2.3,Win32,98.03921569,,,,,,,,,,,,,,,,,,,,,,,,,,,,,,,,,,,,,,,,,,,,,,,,,,,,,,,,,,,,,,,,,,,,,,,,,,,,,,,,,,,,,,,,,,,,,,,,,,,,,,,,,,,467.703,467.703,,,,,,,,,,,,,,,,,,,,,,,,,,,,,,,,,,,,,,,,,,,,,,,,,,,,,,,,,,,,,,,,,,,,,,,,,,,,,,,,,,,,,,,,,,,,,,,
,,,,,61347b534314b736f635bc06,6682b41eeb79ab8215dff63d,6682bab15b6828720da50cc2,38,Male,English,2024-07-01_15h20.19.301,ABmemTask3,2023.2.3,Win32,98.03921569,,,,,,,,,,,,,,,,,,,,,,,,,,,,,,,,,,,,,,,,,,,,,,,,,,,,,,,,,,,,,,,,,,,,,,,,,,,,,,,,,,,,,,,,,,,,,,,,,,,,,,,,,,,467.704,467.7041,,,,,,,,,,,,,,,,,,,,,,,,,,,,,,,,,,,,,,,,,,,,,,,,,,,,,,,,,,,,,,,,,,,,,,,,,,,,,,,,,,,,,,,,,,,,,,,
,,,,,61347b534314b736f635bc06,6682b41eeb79ab8215dff63d,6682bab15b6828720da50cc2,38,Male,English,2024-07-01_15h20.19.301,ABmemTask3,2023.2.3,Win32,98.03921569,,,,,,,,,,,,,,,,,,,,,,,,,,,,,,,,,,,,,,,,,,,,,,,,,,,,,,,,,,,,,,,,,,,,,,,,,,,,,,,,,,,,,,,,,,,,,,,,,,,,,,,,,,,467.705,467.705,,,,,,,,,,,,,,,,,,,,,,,,,,,,,,,,,,,,,,,,,,,,,,,,,,,,,,,,,,,,,,,,,,,,,,,,,,,,,,,,,,,,,,,,,,,,,,,
,,,,,61347b534314b736f635bc06,6682b41eeb79ab8215dff63d,6682bab15b6828720da50cc2,38,Male,English,2024-07-01_15h20.19.301,ABmemTask3,2023.2.3,Win32,98.03921569,,,,,,,,,,,,,,,,,,,,,,,,,,,,,,,,,,,,,,,,,,,,,,,,,,,,,,,,,,,,,,,,,,,,,,,,,,,,,,,,,,,,,,,,,,,,,,,,,,,,,,,,,,,467.7062,467.7063,,,,,,,,,,,,,,,,,,,,,,,,,,,,,,,,,,,,,,,,,,,,,,,,,,,,,,,,,,,,,,,,,,,,,,,,,,,,,,,,,,,,,,,,,,,,,,,
,,,,,61347b534314b736f635bc06,6682b41eeb79ab8215dff63d,6682bab15b6828720da50cc2,38,Male,English,2024-07-01_15h20.19.301,ABmemTask3,2023.2.3,Win32,98.03921569,,,,,,,,,,,,,,,,,,,,,,,,,,,,,,,,,,,,,,,,,,,,,,,,,,,,,,,,,,,,,,,,,,,,,,,,,,,,,,,,,,,,,,,,,,,,,,,,,,,,,,,,,,,467.7071,467.7071,,,,,,,,,,,,,,,,,,,,,,,,,,,,,,,,,,,,,,,,,,,,,,,,,,,,,,,,,,,,,,,,,,,,,,,,,,,,,,,,,,,,,,,,,,,,,,,
,,,,,61347b534314b736f635bc06,6682b41eeb79ab8215dff63d,6682bab15b6828720da50cc2,38,Male,English,2024-07-01_15h20.19.301,ABmemTask3,2023.2.3,Win32,98.03921569,,,,,,,,,,,,,,,,,,,,,,,,,,,,,,,,,,,,,,,,,,,,,,,,,,,,,,,,,,,,,,,,,,,,,,,,,,,,,,,,,,,,,,,,,,,,,,,,,,,,,,,,,,,467.7078,467.7079,,,,,,,,,,,,,,,,,,,,,,,,,,,,,,,,,,,,,,,,,,,,,,,,,,,,,,,,,,,,,,,,,,,,,,,,,,,,,,,,,,,,,,,,,,,,,,,
,,,,,61347b534314b736f635bc06,6682b41eeb79ab8215dff63d,6682bab15b6828720da50cc2,38,Male,English,2024-07-01_15h20.19.301,ABmemTask3,2023.2.3,Win32,98.03921569,,,,,,,,,,,,,,,,,,,,,,,,,,,,,,,,,,,,,,,,,,,,,,,,,,,,,,,,,,,,,,,,,,,,,,,,,,,,,,,,,,,,,,,,,,,,,,,,,,,,,,,,,,,467.7086,467.7086,,,,,,,,,,,,,,,,,,,,,,,,,,,,,,,,,,,,,,,,,,,,,,,,,,,,,,,,,,,,,,,,,,,,,,,,,,,,,,,,,,,,,,,,,,,,,,,
,,,,,61347b534314b736f635bc06,6682b41eeb79ab8215dff63d,6682bab15b6828720da50cc2,38,Male,English,2024-07-01_15h20.19.301,ABmemTask3,2023.2.3,Win32,98.03921569,,,,,,,,,,,,,,,,,,,,,,,,,,,,,,,,,,,,,,,,,,,,,,,,,,,,,,,,,,,,,,,,,,,,,,,,,,,,,,,,,,,,,,,,,,,,,,,,,,,,,,,,,,,467.7097,467.7099,,,,,,,,,,,,,,,,,,,,,,,,,,,,,,,,,,,,,,,,,,,,,,,,,,,,,,,,,,,,,,,,,,,,,,,,,,,,,,,,,,,,,,,,,,,,,,,
,,,,,61347b534314b736f635bc06,6682b41eeb79ab8215dff63d,6682bab15b6828720da50cc2,38,Male,English,2024-07-01_15h20.19.301,ABmemTask3,2023.2.3,Win32,98.03921569,,,,,,,,,,,,,,,,,,,,,,,,,,,,,,,,,,,,,,,,,,,,,,,,,,,,,,,,,,,,,,,,,,,,,,,,,,,,,,,,,,,,,,,,,,,,,,,,,,,,,,,,,,,,,,,,467.7102,511.5706,space,43.8374,,,,,,,,,,,,,,,,,,,,,,,,,,,,,,,,,,,,,,,,,,,,,,,,,,,,,,,,,,,,,,,,,,,,,,,,,,,,,,,,,,,,,,,,
,,,,,61347b534314b736f635bc06,6682b41eeb79ab8215dff63d,6682bab15b6828720da50cc2,38,Male,English,2024-07-01_15h20.19.301,ABmemTask3,2023.2.3,Win32,98.03921569,,,,,,,,,,,,,,,,,,,,,,,,,,,,,,,,,511.5804,980,512.0864,,,,,,,,,,,,,,,,,,,,,,,,,,0,,,,,,,,,prac_MEM,old,,,,,,,,,,,10,,,,,,,,,,,,,,,,,,,,,,,,,,,,,,,,,,,512.0869,524.6445,3,6,12.52,,524.6463,525.6367,0,0,0,6,1,12,5,pics/humanskull.jpg,,,,,,,,,,,,,,,,,,,,,,,,,,,,,,,,,,,,,,,,,,,,,,,,,,,,,,,,,,,,,,,,,,,,,,,
,,,,,61347b534314b736f635bc06,6682b41eeb79ab8215dff63d,6682bab15b6828720da50cc2,38,Male,English,2024-07-01_15h20.19.301,ABmemTask3,2023.2.3,Win32,98.03921569,,,,,,,,,,,,,,,,,,,,,,,,,,,,,,,,,525.6445,980,526.1395,,,,,,,,,,,,,,,,,,,,,,,,,,0,,,,,,,,,prac_MEM,old,,,,,,,,,,,10,,,,,,,,,,,,,,,,,,,,,,,,,,,,,,,,,,,526.1396,529.3066,6,6,3.1334,,529.3081,530.2962,0,1,1,5,1,11,5,pics/grater01a.jpg,,,,,,,,,,,,,,,,,,,,,,,,,,,,,,,,,,,,,,,,,,,,,,,,,,,,,,,,,,,,,,,,,,,,,,,
,,,,,61347b534314b736f635bc06,6682b41eeb79ab8215dff63d,6682bab15b6828720da50cc2,38,Male,English,2024-07-01_15h20.19.301,ABmemTask3,2023.2.3,Win32,98.03921569,,,,,,,,,,,,,,,,,,,,,,,,,,,,,,,,,530.3126,980,530.8199,,,,,,,,,,,,,,,,,,,,,,,,,,0,,,,,,,,,prac_MEM,old,,,,,,,,,,,10,,,,,,,,,,,,,,,,,,,,,,,,,,,,,,,,,,,530.82,532.4097,9,6,1.5554,,532.4101,533.4021,0,2,2,1,1,2,1,pics/pants.jpg,,,,,,,,,,,,,,,,,,,,,,,,,,,,,,,,,,,,,,,,,,,,,,,,,,,,,,,,,,,,,,,,,,,,,,,
,,,,,61347b534314b736f635bc06,6682b41eeb79ab8215dff63d,6682bab15b6828720da50cc2,38,Male,English,2024-07-01_15h20.19.301,ABmemTask3,2023.2.3,Win32,98.03921569,,,,,,,,,,,,,,,,,,,,,,,,,,,,,,,,,533.403,980,533.8955,,,,,,,,,,,,,,,,,,,,,,,,,,0,,,,,,,,,prac_MEM,new,,,,,,,,,,,10,,,,,,,,,,,,,,,,,,,,,,,,,,,,,,,,,,,533.8956,535.9347,12,1,2.0101,,535.9356,536.937,0,3,3,10,1,999,999,pics/tomato01.jpg,,,,,,,,,,,,,,,,,,,,,,,,,,,,,,,,,,,,,,,,,,,,,,,,,,,,,,,,,,,,,,,,,,,,,,,
,,,,,61347b534314b736f635bc06,6682b41eeb79ab8215dff63d,6682bab15b6828720da50cc2,38,Male,English,2024-07-01_15h20.19.301,ABmemTask3,2023.2.3,Win32,98.03921569,,,,,,,,,,,,,,,,,,,,,,,,,,,,,,,,,536.9459,980,537.4418,,,,,,,,,,,,,,,,,,,,,,,,,,0,,,,,,,,,prac_MEM,new,,,,,,,,,,,10,,,,,,,,,,,,,,,,,,,,,,,,,,,,,,,,,,,537.4419,538.4385,15,1,0.963,,538.4389,539.4401,0,4,4,8,1,999,999,pics/thread02.jpg,,,,,,,,,,,,,,,,,,,,,,,,,,,,,,,,,,,,,,,,,,,,,,,,,,,,,,,,,,,,,,,,,,,,,,,
,,,,,61347b534314b736f635bc06,6682b41eeb79ab8215dff63d,6682bab15b6828720da50cc2,38,Male,English,2024-07-01_15h20.19.301,ABmemTask3,2023.2.3,Win32,98.03921569,,,,,,,,,,,,,,,,,,,,,,,,,,,,,,,,,539.441,980,539.9428,,,,,,,,,,,,,,,,,,,,,,,,,,0,,,,,,,,,prac_MEM,old,,,,,,,,,,,10,,,,,,,,,,,,,,,,,,,,,,,,,,,,,,,,,,,539.9429,541.1634,18,6,1.1871,,541.1648,542.1627,0,5,5,2,1,3,1,pics/sturgeon.jpg,,,,,,,,,,,,,,,,,,,,,,,,,,,,,,,,,,,,,,,,,,,,,,,,,,,,,,,,,,,,,,,,,,,,,,,
,,,,,61347b534314b736f635bc06,6682b41eeb79ab8215dff63d,6682bab15b6828720da50cc2,38,Male,English,2024-07-01_15h20.19.301,ABmemTask3,2023.2.3,Win32,98.03921569,,,,,,,,,,,,,,,,,,,,,,,,,,,,,,,,,542.1635,980,542.657,,,,,,,,,,,,,,,,,,,,,,,,,,0,,,,,,,,,prac_MEM,old,,,,,,,,,,,10,,,,,,,,,,,,,,,,,,,,,,,,,,,,,,,,,,,542.657,543.4182,21,6,0.7322,,543.4187,544.4117,0,6,6,0,1,1,1,pics/tree.jpg,,,,,,,,,,,,,,,,,,,,,,,,,,,,,,,,,,,,,,,,,,,,,,,,,,,,,,,,,,,,,,,,,,,,,,,
,,,,,61347b534314b736f635bc06,6682b41eeb79ab8215dff63d,6682bab15b6828720da50cc2,38,Male,English,2024-07-01_15h20.19.301,ABmemTask3,2023.2.3,Win32,98.03921569,,,,,,,,,,,,,,,,,,,,,,,,,,,,,,,,,544.4125,980,544.9076,,,,,,,,,,,,,,,,,,,,,,,,,,0,,,,,,,,,prac_MEM,old,,,,,,,,,,,10,,,,,,,,,,,,,,,,,,,,,,,,,,,,,,,,,,,544.9077,545.9313,24,6,0.9941,,545.9317,546.9195,0,7,7,4,1,5,1,pics/tongs01b.jpg,,,,,,,,,,,,,,,,,,,,,,,,,,,,,,,,,,,,,,,,,,,,,,,,,,,,,,,,,,,,,,,,,,,,,,,
,,,,,61347b534314b736f635bc06,6682b41eeb79ab8215dff63d,6682bab15b6828720da50cc2,38,Male,English,2024-07-01_15h20.19.301,ABmemTask3,2023.2.3,Win32,98.03921569,,,,,,,,,,,,,,,,,,,,,,,,,,,,,,,,,546.9202,980,547.4254,,,,,,,,,,,,,,,,,,,,,,,,,,0,,,,,,,,,prac_MEM,old,,,,,,,,,,,10,,,,,,,,,,,,,,,,,,,,,,,,,,,,,,,,,,,547.4254,548.7736,21,1,1.3165,,548.7745,549.7727,0,8,8,3,1,4,1,pics/shorts01.jpg,,,,,,,,,,,,,,,,,,,,,,,,,,,,,,,,,,,,,,,,,,,,,,,,,,,,,,,,,,,,,,,,,,,,,,,
,,,,,61347b534314b736f635bc06,6682b41eeb79ab8215dff63d,6682bab15b6828720da50cc2,38,Male,English,2024-07-01_15h20.19.301,ABmemTask3,2023.2.3,Win32,98.03921569,,,,,,,,,,,,,,,,,,,,,,,,,,,,,,,,,549.7735,980,550.2589,,,,,,,,,,,,,,,,,,,,,,,,,,0,,,,,,,,,prac_MEM,new,,,,,,,,,,,10,,,,,,,,,,,,,,,,,,,,,,,,,,,,,,,,,,,550.259,556.3211,20,4,6.034,,556.3217,557.3107,0,9,9,9,1,999,999,pics/moth.jpg,,,,,,,,,,,,,,,,,,,,,,,,,,,,,,,,,,,,,,,,,,,,,,,,,,,,,,,,,,,,,,,,,,,,,,,
,,,,,61347b534314b736f635bc06,6682b41eeb79ab8215dff63d,6682bab15b6828720da50cc2,38,Male,English,2024-07-01_15h20.19.301,ABmemTask3,2023.2.3,Win32,98.03921569,,,,,,,,,,,,,,,,,,,,,,,,,,,,,,,,,557.3202,980,557.8184,,,,,,,,,,,,,,,,,,,,,,,,,,0,,,,,,,,,prac_MEM,new,,,,,,,,,,,10,,,,,,,,,,,,,,,,,,,,,,,,,,,,,,,,,,,557.8184,559.0082,23,1,1.1584,,559.0089,559.9961,0,10,10,7,1,999,999,pics/cherry01.jpg,,,,,,,,,,,,,,,,,,,,,,,,,,,,,,,,,,,,,,,,,,,,,,,,,,,,,,,,,,,,,,,,,,,,,,,
,,,,,61347b534314b736f635bc06,6682b41eeb79ab8215dff63d,6682bab15b6828720da50cc2,38,Male,English,2024-07-01_15h20.19.301,ABmemTask3,2023.2.3,Win32,98.03921569,,,,,,,,,,,,,,,,,,,,,,,,,,,,,,,,,,,,,,,,,,,,,,,,,,,,,,,,,,,,,,,,,,,,,,,,,,,,,,,,,,,,,,,,,,,,,,,,,,,,,,,,,,,,,,,,,,,,,,,,,,,,,,,,,,,,,559.997,563.6413,563.6416,563.643,,,,,,,,,,,,,,,,,,,,,,,,,,,,,,,,,,,,,,,,,,,,,,,,,,,,,,,,,,,,,,,,,,,
,,,,,61347b534314b736f635bc06,6682b41eeb79ab8215dff63d,6682bab15b6828720da50cc2,38,Male,English,2024-07-01_15h20.19.301,ABmemTask3,2023.2.3,Win32,98.03921569,,,,,,,,,,,,,,,,,,space,27.0253,,,,,,,,,,,,,,,,,,,,,,,,,,,,,,,,,,,,,,,,,,,,,,,,,,,,,,,,,,,,,,,,,,,,,,,,,,,,,,,,,,,,,,,,,,,,,,,,,,,,,,,,,,,,,,,,,,,,,,563.6434,590.7038,,,,,,,,,,,,,,,,,,,,,,,,,,,,,,,,,,,,,,,,,,,,,,,,,,,,,,,,,,,,,,,,,
,,,,,61347b534314b736f635bc06,6682b41eeb79ab8215dff63d,6682bab15b6828720da50cc2,38,Male,English,2024-07-01_15h20.19.301,ABmemTask3,2023.2.3,Win32,98.03921569,,,,,,,,,,,,,,,,,,,,,,,,,,,,,,,,,,,,,,,,,,,,,,,,,,,,,,,,,,,,,,,,,,,,,,,,,,,,,,,,,,,,,,,,,,,,,,,,,,,,,,,,,,,,,,,,,,,,,,,,,,,,,,,,,,,,,,,,,,,590.7042,612.6403,space,21.8995,,,,,,,,,,,,,,,,,,,,,,,,,,,,,,,,,,,,,,,,,,,,,,,,,,,,,,,,,,,,,
,,,,,61347b534314b736f635bc06,6682b41eeb79ab8215dff63d,6682bab15b6828720da50cc2,38,Male,English,2024-07-01_15h20.19.301,ABmemTask3,2023.2.3,Win32,98.03921569,,,,,,,,,,,,,,,,,,,,,,,,,,,,,,,612.65,613.6465,613.6467,12,614.1413,617.2082,0.0027,617.4281,0.2163,0.2162,0.222,0.218,0.2209,0.2208,0.2189,0.2174,0.2139,0.2186,0.2195,617.4294,618.7716,left,1.3121,,618.7718,619.3116,right,0.5119,,2,0,2,619.3117,620.3052,,,,,,1_AB,L5_T1A_T2P,5,0,1,5,10,4,5,15,scorpion,Did you see the scorpion,0.12,0,resources/,pics/pictureframe04.jpg,pics/binder03b.jpg,pics/pencil01.jpg,pics/leaf02a.jpg,pics/icecube01.jpg,pics/dromedary.jpg,pics/toiletpaper01a.jpg,pics/peanut01.jpg,pics/golfball.jpg,pics/stapler03.jpg,pics/carrot01.jpg,pics/peach01.jpg,pics/sealion.jpg,pics/football.jpg,pics/zebra.jpg,blankImage,blankImage,scorpion,54,0.2211,0.2202,0.2204,,,,,,,,,,,,,,,,,,,,,,,,,,,,,,,,,,,,,,0,0,0,53,1,,,,,,,,,,,,,,,,,,,,,,,,,,,,,,,,,,,,,,,,,,,,,,,,,,,,,,,
,,,,,61347b534314b736f635bc06,6682b41eeb79ab8215dff63d,6682bab15b6828720da50cc2,38,Male,English,2024-07-01_15h20.19.301,ABmemTask3,2023.2.3,Win32,98.03921569,,,,,,,,,,,,,,,,,,,,,,,,,,,,,,,620.3067,621.3,621.3001,12,621.8031,624.8379,0.0018,625.0565,0.2158,0.2174,0.2181,0.2123,0.2181,0.2115,0.2247,0.2157,0.2203,0.2175,0.2121,625.0567,626.4744,left,1.3936,,626.4746,627.0926,right,0.5916,,4,0,4,627.0927,628.0865,,,,,,1_AB,L5_T1A_T2P,5,0,1,7,12,6,3,15,scissors,Did you see the scissors,0.12,0,resources/,pics/cannon.jpg,pics/mummy.jpg,pics/shovel01.jpg,pics/christmaslights.jpg,pics/snowshoe.jpg,pics/candle01.jpg,pics/bowtie.jpg,pics/giraffe.jpg,pics/carrot01.jpg,pics/spoon01.jpg,pics/seaturtle.jpg,pics/stapler10.jpg,pics/footballhelmet.jpg,pics/onion.jpg,pics/wheel01.jpg,blankImage,blankImage,scissors01,57,0.2201,0.2184,0.2113,,,,,,,,,,,,,,,,,,,,,,,,,,,,,,,,,,,,,,0,1,1,56,1,,,,,,,,,,,,,,,,,,,,,,,,,,,,,,,,,,,,,,,,,,,,,,,,,,,,,,,
,,,,,61347b534314b736f635bc06,6682b41eeb79ab8215dff63d,6682bab15b6828720da50cc2,38,Male,English,2024-07-01_15h20.19.301,ABmemTask3,2023.2.3,Win32,98.03921569,,,,,,,,,,,,,,,,,,,,,,,,,,,,,,,628.0973,629.094,629.0942,12,629.5841,631.3297,0.0018,631.551,0.2143,0.2172,0.2132,0.2201,0.2215,0.2167,0.2233,0.2179,,,,631.5512,634.2916,right,2.7089,,634.2918,635.4112,left,1.09,,6,0,6,635.4113,636.4102,,,,,,1_AB,L1_T1P_T2A,1,1,0,4,5,3,4,9,blueberry,Did you see the blueberry,0.12,0,resources/,pics/sealion.jpg,pics/piggybank.jpg,pics/sink.jpg,pics/blueberry01.jpg,pics/onion.jpg,pics/sailboat.jpg,pics/seaturtle.jpg,pics/hen.jpg,pics/fanblades.jpg,blankImage,blankImage,blankImage,blankImage,blankImage,blankImage,blankImage,blankImage,blueberry01,35,,,,,,,,,,,,,,,,,,,,,,,,,,,,,,,,,,,,,,,,,0,2,2,34,1,,,,,,,,,,,,,,,,,,,,,,,,,,,,,,,,,,,,,,,,,,,,,,,,,,,,,,,
,,,,,61347b534314b736f635bc06,6682b41eeb79ab8215dff63d,6682bab15b6828720da50cc2,38,Male,English,2024-07-01_15h20.19.301,ABmemTask3,2023.2.3,Win32,98.03921569,,,,,,,,,,,,,,,,,,,,,,,,,,,,,,,636.4192,637.4217,637.4218,12,637.9234,640.3501,0.0017,640.571,0.2184,0.2286,0.2199,0.2186,0.2224,0.218,0.2208,0.2212,0.2182,0.2225,0.2166,640.5712,641.8338,right,1.2296,,641.8339,642.4053,right,0.5401,,8,0,8,642.4054,643.4014,,,,,,1_AB,L1_T1P_T2P,1,1,1,6,7,5,5,12,jeep,Did you see the jeep,0.12,0,resources/,pics/sandbarshark.jpg,pics/laptop01a.jpg,pics/peach01.jpg,pics/binoculars01b.jpg,pics/giraffe.jpg,pics/jeep.jpg,pics/stapler03b.jpg,pics/fanblades.jpg,pics/cannon.jpg,pics/starfish01.jpg,pics/piggybank.jpg,pics/noparkingsign.jpg,blankImage,blankImage,blankImage,blankImage,blankImage,jeep,2,,,,,,,,,,,,,,,,,,,,,,,,,,,,,,,,,,,,,,,,,0,3,3,1,1,,,,,,,,,,,,,,,,,,,,,,,,,,,,,,,,,,,,,,,,,,,,,,,,,,,,,,,
,,,,,61347b534314b736f635bc06,6682b41eeb79ab8215dff63d,6682bab15b6828720da50cc2,38,Male,English,2024-07-01_15h20.19.301,ABmemTask3,2023.2.3,Win32,98.03921569,,,,,,,,,,,,,,,,,,,,,,,,,,,,,,,643.414,644.4065,644.4066,12,644.9071,648.4018,0.0019,648.6232,0.2133,0.2189,0.2118,0.221,0.2171,0.2284,0.209,0.2142,0.2229,0.2174,0.2209,648.6234,650.8122,left,2.1561,,650.8123,651.7348,left,0.8885,,10,0,10,651.735,652.7332,,,,,,1_AB,L5_T1A_T2A,5,0,0,7,12,6,5,17,Bib,Did you see the Bib,0.12,0,resources/,pics/hammerheadshark.jpg,pics/wheel01.jpg,pics/binder03b.jpg,pics/hairdryer02a.jpg,pics/christmaslights.jpg,pics/sandbarshark.jpg,pics/binoculars01b.jpg,pics/piggybank.jpg,pics/aquarium.jpg,pics/candleholder01.jpg,pics/sink.jpg,pics/calendar.jpg,pics/birdhouse.jpg,pics/bowtie.jpg,pics/onion.jpg,pics/golfball.jpg,pics/sailboat.jpg,bib,62,0.225,0.2134,0.2214,,,,,,,,,,,,,,,,,,,,,,,,,,,,,,,,,,,,,,0,4,4,61,1,0.2213,0.2172,,,,,,,,,,,,,,,,,,,,,,,,,,,,,,,,,,,,,,,,,,,,,,,,,,,,,
,,,,,61347b534314b736f635bc06,6682b41eeb79ab8215dff63d,6682bab15b6828720da50cc2,38,Male,English,2024-07-01_15h20.19.301,ABmemTask3,2023.2.3,Win32,98.03921569,,,,,,,,,,,,,,,,,,,,,,,,,,,,,,,652.7406,653.7293,653.7295,12,654.2152,656.624,0.0014,656.8442,0.2169,0.2216,0.2204,0.2185,0.2222,0.2176,0.2202,0.2236,0.2181,0.2149,0.2136,656.8444,657.7367,right,0.8596,,657.7369,658.1989,right,0.4316,,12,0,12,658.1991,659.197,,,,,,1_AB,L1_T1P_T2P,1,1,1,6,7,5,5,12,rope,Did you see the rope,0.12,0,resources/,pics/toiletpaper01a.jpg,pics/sewingmachine01a.jpg,pics/birdhouse.jpg,pics/sealion.jpg,pics/safetypin.jpg,pics/rope03.jpg,pics/stapler04.jpg,pics/binder03b.jpg,pics/ashtray01.jpg,pics/sandbarshark.jpg,pics/chainsaw.jpg,pics/nutcracker01.jpg,blankImage,blankImage,blankImage,blankImage,blankImage,rope03,4,,,,,,,,,,,,,,,,,,,,,,,,,,,,,,,,,,,,,,,,,0,5,5,3,1,,,,,,,,,,,,,,,,,,,,,,,,,,,,,,,,,,,,,,,,,,,,,,,,,,,,,,,
,,,,,61347b534314b736f635bc06,6682b41eeb79ab8215dff63d,6682bab15b6828720da50cc2,38,Male,English,2024-07-01_15h20.19.301,ABmemTask3,2023.2.3,Win32,98.03921569,,,,,,,,,,,,,,,,,,,,,,,,,,,,,,,659.2089,660.2067,660.2067,12,660.6996,663.997,0.002,664.2192,0.2149,0.2191,0.2268,0.2148,0.22,0.2201,0.2197,0.2187,0.22,0.2205,0.219,664.2193,665.3501,right,1.1017,,665.3503,665.8409,left,0.4621,,14,0,14,665.8411,666.8476,,,,,,1_AB,L5_T1P_T2A,5,1,0,6,11,5,5,16,belt,Did you see the belt,0.12,0,resources/,pics/banjo.jpg,pics/birdhouse.jpg,pics/spoon01.jpg,pics/table01.jpg,pics/candle01.jpg,pics/belt02a.jpg,pics/peach01.jpg,pics/chainsaw.jpg,pics/toiletpaper01a.jpg,pics/proboscismonkey.jpg,pics/cymbal.jpg,pics/binoculars01b.jpg,pics/cannon.jpg,pics/noparkingsign.jpg,pics/sailboat.jpg,pics/carrot01.jpg,blankImage,belt02a,61,0.2215,0.2202,0.2194,,,,,,,,,,,,,,,,,,,,,,,,,,,,,,,,,,,,,,0,6,6,60,1,0.2213,,,,,,,,,,,,,,,,,,,,,,,,,,,,,,,,,,,,,,,,,,,,,,,,,,,,,,
,,,,,61347b534314b736f635bc06,6682b41eeb79ab8215dff63d,6682bab15b6828720da50cc2,38,Male,English,2024-07-01_15h20.19.301,ABmemTask3,2023.2.3,Win32,98.03921569,,,,,,,,,,,,,,,,,,,,,,,,,,,,,,,666.8487,667.8421,667.8422,12,668.3454,670.9933,0.0021,671.2064,0.2194,0.2204,0.2212,0.219,0.2205,0.219,0.2221,0.2182,0.2217,0.2266,0.224,671.2066,672.0688,right,0.8292,,672.0692,672.4421,right,0.3426,,16,0,16,672.4422,673.4339,,,,,,1_AB,L1_T1P_T2P,1,1,1,7,8,6,5,13,strawberry,Did you see the strawberry,0.12,0,resources/,pics/sealion.jpg,pics/backpack01a.jpg,pics/binoculars01b.jpg,pics/ball02.jpg,pics/proboscismonkey.jpg,pics/pictureframe04.jpg,pics/strawberry.jpg,pics/stapler12.jpg,pics/seaturtle.jpg,pics/dustpan.jpg,pics/bowlingpin.jpg,pics/hammerheadshark.jpg,pics/hen.jpg,blankImage,blankImage,blankImage,blankImage,strawberry,10,0.214,,,,,,,,,,,,,,,,,,,,,,,,,,,,,,,,,,,,,,,,0,7,7,9,1,,,,,,,,,,,,,,,,,,,,,,,,,,,,,,,,,,,,,,,,,,,,,,,,,,,,,,,
,,,,,61347b534314b736f635bc06,6682b41eeb79ab8215dff63d,6682bab15b6828720da50cc2,38,Male,English,2024-07-01_15h20.19.301,ABmemTask3,2023.2.3,Win32,98.03921569,,,,,,,,,,,,,,,,,,,,,,,,,,,,,,,673.4418,674.4412,674.4414,12,674.939,676.6878,0.002,676.9069,0.2172,0.2205,0.2227,0.2162,0.2217,0.2165,0.2144,0.2179,,,,676.9071,678.2404,left,1.2995,,678.2405,678.8436,left,0.5726,,18,0,18,678.8438,679.8367,,,,,,1_AB,L1_T1A_T2A,1,0,0,4,5,3,4,9,License Plate,Did you see the License Plate,0.12,0,resources/,pics/snowshoe.jpg,pics/kangaroo.jpg,pics/noparkingsign.jpg,pics/match.jpg,pics/hose.jpg,pics/blender.jpg,pics/ashtray01.jpg,pics/ball02.jpg,pics/sink.jpg,blankImage,blankImage,blankImage,blankImage,blankImage,blankImage,blankImage,blankImage,licenseplate,40,,,,,,,,,,,,,,,,,,,,,,,,,,,,,,,,,,,,,,,,,0,8,8,39,1,,,,,,,,,,,,,,,,,,,,,,,,,,,,,,,,,,,,,,,,,,,,,,,,,,,,,,,
,,,,,61347b534314b736f635bc06,6682b41eeb79ab8215dff63d,6682bab15b6828720da50cc2,38,Male,English,2024-07-01_15h20.19.301,ABmemTask3,2023.2.3,Win32,98.03921569,,,,,,,,,,,,,,,,,,,,,,,,,,,,,,,679.8505,680.8581,680.8582,12,681.3534,682.8887,0.0014,683.1084,0.2183,0.2153,0.2217,0.2197,0.2191,0.2204,0.2196,,,,,683.1088,684.5412,left,1.3993,,684.5413,684.9812,right,0.409,,20,0,20,684.9815,685.9712,,,,,,1_AB,L1_T1A_T2P,1,0,1,4,5,3,3,8,Parking meter,Did you see the Parking meter,0.12,0,resources/,pics/leaf02a.jpg,pics/carrot01.jpg,pics/sink.jpg,pics/butterfly.jpg,pics/stapler10.jpg,pics/pictureframe04.jpg,pics/spiderweb.jpg,pics/icecube01.jpg,blankImage,blankImage,blankImage,blankImage,blankImage,blankImage,blankImage,blankImage,blankImage,parkingmeter,30,,,,,,,,,,,,,,,,,,,,,,,,,,,,,,,,,,,,,,,,,0,9,9,29,1,,,,,,,,,,,,,,,,,,,,,,,,,,,,,,,,,,,,,,,,,,,,,,,,,,,,,,,
,,,,,61347b534314b736f635bc06,6682b41eeb79ab8215dff63d,6682bab15b6828720da50cc2,38,Male,English,2024-07-01_15h20.19.301,ABmemTask3,2023.2.3,Win32,98.03921569,,,,,,,,,,,,,,,,,,,,,,,,,,,,,,,685.9786,686.9813,686.9813,12,687.4738,689.2309,0.0019,689.4521,0.2157,0.22,0.2192,0.2202,0.22,0.2189,0.2219,0.2196,,,,689.4523,690.8225,right,1.3395,,690.8226,691.264,left,0.4109,,20,0,22,691.2642,692.2593,,,,,,1_AB,L1_T1P_T2P,1,1,1,5,6,4,3,9,paint brush,Did you see the paint brush,0.12,0,resources/,pics/nutcracker01.jpg,pics/piggybank.jpg,pics/spiderweb.jpg,pics/table01.jpg,pics/paintbrush01.jpg,pics/stapler09.jpg,pics/hose.jpg,pics/cannon.jpg,pics/mummy.jpg,blankImage,blankImage,blankImage,blankImage,blankImage,blankImage,blankImage,blankImage,paintbrush01,20,,,,,,,,,,,,,,,,,,,,,,,,,,,,,,,,,,,,,,,,,0,10,10,19,1,,,,,,,,,,,,,,,,,,,,,,,,,,,,,,,,,,,,,,,,,,,,,,,,,,,,,,,
,,,,,61347b534314b736f635bc06,6682b41eeb79ab8215dff63d,6682bab15b6828720da50cc2,38,Male,English,2024-07-01_15h20.19.301,ABmemTask3,2023.2.3,Win32,98.03921569,,,,,,,,,,,,,,,,,,,,,,,,,,,,,,,692.2604,693.256,693.2561,12,693.7516,695.5124,0.0029,695.7394,0.2176,0.2196,0.2203,0.2191,0.2206,0.2212,0.2198,0.2201,,,,695.7395,696.4622,right,0.6959,,696.4624,696.8003,right,0.306,,22,0,24,696.8004,697.8003,,,,,,1_AB,L1_T1P_T2P,1,1,1,4,5,3,4,9,antenna,Did you see the antenna,0.12,0,resources/,pics/microscope.jpg,pics/spoon01.jpg,pics/dromedary.jpg,pics/antenna.jpg,pics/stapler03.jpg,pics/hen.jpg,pics/leaf02a.jpg,pics/candle01.jpg,pics/sealion.jpg,blankImage,blankImage,blankImage,blankImage,blankImage,blankImage,blankImage,blankImage,antenna,9,,,,,,,,,,,,,,,,,,,,,,,,,,,,,,,,,,,,,,,,,0,11,11,8,1,,,,,,,,,,,,,,,,,,,,,,,,,,,,,,,,,,,,,,,,,,,,,,,,,,,,,,,
,,,,,61347b534314b736f635bc06,6682b41eeb79ab8215dff63d,6682bab15b6828720da50cc2,38,Male,English,2024-07-01_15h20.19.301,ABmemTask3,2023.2.3,Win32,98.03921569,,,,,,,,,,,,,,,,,,,,,,,,,,,,,,,697.8014,698.7984,698.7984,12,699.2939,701.0515,0.0014,701.2765,0.2164,0.2217,0.2215,0.2168,0.2225,0.2196,0.2204,0.2178,,,,701.2766,701.8798,right,0.5745,,701.8799,702.3385,right,0.4338,,24,0,26,702.3387,703.3458,,,,,,1_AB,L1_T1P_T2P,1,1,1,5,6,4,3,9,Ant,Did you see the Ant,0.12,0,resources/,pics/kangaroo.jpg,pics/giraffe.jpg,pics/footballhelmet.jpg,pics/onion.jpg,pics/ant.jpg,pics/stapler04b.jpg,pics/banjo.jpg,pics/zebra.jpg,pics/dromedary.jpg,blankImage,blankImage,blankImage,blankImage,blankImage,blankImage,blankImage,blankImage,ant,15,,,,,,,,,,,,,,,,,,,,,,,,,,,,,,,,,,,,,,,,,0,12,12,14,1,,,,,,,,,,,,,,,,,,,,,,,,,,,,,,,,,,,,,,,,,,,,,,,,,,,,,,,
,,,,,61347b534314b736f635bc06,6682b41eeb79ab8215dff63d,6682bab15b6828720da50cc2,38,Male,English,2024-07-01_15h20.19.301,ABmemTask3,2023.2.3,Win32,98.03921569,,,,,,,,,,,,,,,,,,,,,,,,,,,,,,,703.3467,704.3372,704.3372,12,704.8355,707.8936,0.0013,708.1139,0.2072,0.2218,0.2185,0.2184,0.2228,0.2161,0.2113,0.2222,0.2185,0.2205,0.2201,708.114,708.9047,right,0.7582,,708.9048,709.4384,right,0.502,,26,0,28,709.4386,710.4256,,,,,,1_AB,L5_T1P_T2P,5,1,1,5,10,4,5,15,ribbon,Did you see the ribbon,0.12,0,resources/,pics/giraffe.jpg,pics/boot02b.jpg,pics/cymbal.jpg,pics/leaf02a.jpg,pics/ribbon04.jpg,pics/lightswitch01.jpg,pics/necklace.jpg,pics/calendar.jpg,pics/kangaroo.jpg,pics/stapler12.jpg,pics/hose.jpg,pics/carrot01.jpg,pics/match.jpg,pics/sink.jpg,pics/candleholder01.jpg,blankImage,blankImage,ribbon04,53,0.2196,0.2198,0.2198,,,,,,,,,,,,,,,,,,,,,,,,,,,,,,,,,,,,,,0,13,13,52,1,,,,,,,,,,,,,,,,,,,,,,,,,,,,,,,,,,,,,,,,,,,,,,,,,,,,,,,
,,,,,61347b534314b736f635bc06,6682b41eeb79ab8215dff63d,6682bab15b6828720da50cc2,38,Male,English,2024-07-01_15h20.19.301,ABmemTask3,2023.2.3,Win32,98.03921569,,,,,,,,,,,,,,,,,,,,,,,,,,,,,,,710.4267,711.421,711.421,12,711.9253,714.7844,0.0021,715.004,0.2184,0.2189,0.2239,0.2183,0.2188,0.2208,0.2194,0.2192,0.2206,0.2208,0.2188,715.0041,715.8312,right,0.7934,,715.8313,716.2211,right,0.3629,,28,0,30,716.2213,717.2093,,,,,,1_AB,L5_T1P_T2P,5,1,1,6,11,5,3,14,mail box,Did you see the mail box,0.12,0,resources/,pics/pictureframe04.jpg,pics/seaturtle.jpg,pics/blender.jpg,pics/carrot01.jpg,pics/nutcracker01.jpg,pics/mailbox02.jpg,pics/seagull.jpg,pics/sink.jpg,pics/siamesecat.jpg,pics/spiderweb.jpg,pics/stapler08.jpg,pics/safetypin.jpg,pics/candle01.jpg,pics/mummy.jpg,blankImage,blankImage,blankImage,mailbox02,43,0.2197,0.2196,,,,,,,,,,,,,,,,,,,,,,,,,,,,,,,,,,,,,,,0,14,14,42,1,,,,,,,,,,,,,,,,,,,,,,,,,,,,,,,,,,,,,,,,,,,,,,,,,,,,,,,
,,,,,61347b534314b736f635bc06,6682b41eeb79ab8215dff63d,6682bab15b6828720da50cc2,38,Male,English,2024-07-01_15h20.19.301,ABmemTask3,2023.2.3,Win32,98.03921569,,,,,,,,,,,,,,,,,,,,,,,,,,,,,,,717.2103,718.2012,718.2013,12,718.6988,721.1077,0.0011,721.3311,0.2072,0.2182,0.2225,0.2203,0.2187,0.2196,0.221,0.2187,0.2199,0.2234,0.2187,721.3311,722.0273,right,0.6683,,722.0274,722.3986,right,0.3397,,26,0,32,722.3988,723.408,,,,,,1_AB,L5_T1A_T2P,5,0,1,4,9,3,3,12,rooster,Did you see the rooster,0.12,0,resources/,pics/table01.jpg,pics/icecube01.jpg,pics/dustpan.jpg,pics/lock03a.jpg,pics/sailboat.jpg,pics/salmon.jpg,pics/banjo.jpg,pics/zebra.jpg,pics/stapler09.jpg,pics/peach01.jpg,pics/chainsaw.jpg,pics/football.jpg,blankImage,blankImage,blankImage,blankImage,blankImage,rooster,55,,,,,,,,,,,,,,,,,,,,,,,,,,,,,,,,,,,,,,,,,0,15,15,54,1,,,,,,,,,,,,,,,,,,,,,,,,,,,,,,,,,,,,,,,,,,,,,,,,,,,,,,,
,,,,,61347b534314b736f635bc06,6682b41eeb79ab8215dff63d,6682bab15b6828720da50cc2,38,Male,English,2024-07-01_15h20.19.301,ABmemTask3,2023.2.3,Win32,98.03921569,,,,,,,,,,,,,,,,,,,,,,,,,,,,,,,723.4091,724.4092,724.4094,12,724.9153,727.1157,0.0022,727.3264,0.2197,0.22,0.2202,0.2199,0.2206,0.2224,0.2192,0.2172,0.2208,0.2187,,727.3265,728.3085,right,0.9486,,728.3086,728.6814,right,0.3414,,28,0,34,728.6815,729.6678,,,,,,1_AB,L1_T1P_T2P,1,1,1,7,8,6,3,11,pliers,Did you see the pliers,0.12,0,resources/,pics/mummy.jpg,pics/binder03b.jpg,pics/bowtie.jpg,pics/toiletpaper01a.jpg,pics/football.jpg,pics/blender.jpg,pics/needlenosepliers01.jpg,pics/stapler13.jpg,pics/zebra.jpg,pics/hammerheadshark.jpg,pics/sealion.jpg,blankImage,blankImage,blankImage,blankImage,blankImage,blankImage,needlenosepliers01,6,,,,,,,,,,,,,,,,,,,,,,,,,,,,,,,,,,,,,,,,,0,16,16,5,1,,,,,,,,,,,,,,,,,,,,,,,,,,,,,,,,,,,,,,,,,,,,,,,,,,,,,,,
,,,,,61347b534314b736f635bc06,6682b41eeb79ab8215dff63d,6682bab15b6828720da50cc2,38,Male,English,2024-07-01_15h20.19.301,ABmemTask3,2023.2.3,Win32,98.03921569,,,,,,,,,,,,,,,,,,,,,,,,,,,,,,,729.6812,730.6822,730.6822,12,731.1734,733.1292,0.0014,733.3481,0.2219,0.2055,0.2169,0.2243,0.2133,0.2115,0.2198,0.2208,0.2207,,,733.3483,734.0524,right,0.6712,,734.0526,734.6126,right,0.5321,,30,0,36,734.6128,735.604,,,,,,1_AB,L1_T1P_T2P,1,1,1,4,5,3,5,10,chair,Did you see the chair,0.12,0,resources/,pics/zebra.jpg,pics/floortile02.jpg,pics/cork02.jpg,pics/chair.jpg,pics/stapler07.jpg,pics/sealion.jpg,pics/shovel01.jpg,pics/piggybank.jpg,pics/candleholder01.jpg,pics/laptop01a.jpg,blankImage,blankImage,blankImage,blankImage,blankImage,blankImage,blankImage,chair,3,,,,,,,,,,,,,,,,,,,,,,,,,,,,,,,,,,,,,,,,,0,17,17,2,1,,,,,,,,,,,,,,,,,,,,,,,,,,,,,,,,,,,,,,,,,,,,,,,,,,,,,,,
,,,,,61347b534314b736f635bc06,6682b41eeb79ab8215dff63d,6682bab15b6828720da50cc2,38,Male,English,2024-07-01_15h20.19.301,ABmemTask3,2023.2.3,Win32,98.03921569,,,,,,,,,,,,,,,,,,,,,,,,,,,,,,,735.6205,736.6133,736.6134,12,737.1127,739.9809,0.0017,740.2049,0.2151,0.2198,0.221,0.2216,0.227,0.2257,0.2166,0.2218,0.2181,0.2203,0.2192,740.2052,740.8936,right,0.6612,,740.8938,741.3267,right,0.4041,,28,0,38,741.3268,742.3313,,,,,,1_AB,L5_T1P_T2A,5,1,0,6,11,5,3,14,Kiwi,Did you see the Kiwi,0.12,0,resources/,pics/candleholder01.jpg,pics/kangaroo.jpg,pics/banjo.jpg,pics/binoculars01b.jpg,pics/microscope.jpg,pics/kiwi03.jpg,pics/bowtie.jpg,pics/peanut01.jpg,pics/backpack01a.jpg,pics/zebra.jpg,pics/toiletpaper01a.jpg,pics/hen.jpg,pics/spoon01.jpg,pics/calendar.jpg,blankImage,blankImage,blankImage,kiwi03,59,0.2234,0.2171,,,,,,,,,,,,,,,,,,,,,,,,,,,,,,,,,,,,,,,0,18,18,58,1,,,,,,,,,,,,,,,,,,,,,,,,,,,,,,,,,,,,,,,,,,,,,,,,,,,,,,,
,,,,,61347b534314b736f635bc06,6682b41eeb79ab8215dff63d,6682bab15b6828720da50cc2,38,Male,English,2024-07-01_15h20.19.301,ABmemTask3,2023.2.3,Win32,98.03921569,,,,,,,,,,,,,,,,,,,,,,,,,,,,,,,742.3323,743.332,743.3321,12,743.8405,745.8105,0.0022,746.0295,0.2208,0.2197,0.2179,0.2219,0.2179,0.2211,0.2187,0.2183,0.2118,,,746.0296,746.9143,right,0.8507,,746.9145,747.3541,right,0.4107,,30,0,40,747.3543,748.3477,,,,,,1_AB,L1_T1P_T2P,1,1,1,4,5,3,5,10,flute,Did you see the flute,0.12,0,resources/,pics/peach01.jpg,pics/seaturtle.jpg,pics/dromedary.jpg,pics/recorder01.jpg,pics/stapler08.jpg,pics/giraffe.jpg,pics/blender.jpg,pics/necklace.jpg,pics/sink.jpg,pics/dustpan.jpg,blankImage,blankImage,blankImage,blankImage,blankImage,blankImage,blankImage,recorder01,7,,,,,,,,,,,,,,,,,,,,,,,,,,,,,,,,,,,,,,,,,0,19,19,6,1,,,,,,,,,,,,,,,,,,,,,,,,,,,,,,,,,,,,,,,,,,,,,,,,,,,,,,,
,,,,,61347b534314b736f635bc06,6682b41eeb79ab8215dff63d,6682bab15b6828720da50cc2,38,Male,English,2024-07-01_15h20.19.301,ABmemTask3,2023.2.3,Win32,98.03921569,,,,,,,,,,,,,,,,,,,,,,,,,,,,,,,748.3486,749.3348,749.335,12,749.8358,752.4824,0.0011,752.7018,0.2178,0.2354,0.2161,0.2181,0.2218,0.2148,0.2232,0.2172,0.2224,0.2208,0.22,752.7019,753.7337,left,0.9987,,753.7338,754.1241,right,0.3589,,32,0,42,754.1242,755.1119,,,,,,1_AB,L1_T1A_T2P,1,0,1,7,8,6,5,13,statue,Did you see the statue,0.12,0,resources/,pics/giraffe.jpg,pics/seaturtle.jpg,pics/peach01.jpg,pics/boot02b.jpg,pics/backpack01a.jpg,pics/sandbarshark.jpg,pics/microscope.jpg,pics/stapler07.jpg,pics/snowshoe.jpg,pics/laptop01a.jpg,pics/necklace.jpg,pics/zebra.jpg,pics/carrot01.jpg,blankImage,blankImage,blankImage,blankImage,statue,27,0.2183,,,,,,,,,,,,,,,,,,,,,,,,,,,,,,,,,,,,,,,,0,20,20,26,1,,,,,,,,,,,,,,,,,,,,,,,,,,,,,,,,,,,,,,,,,,,,,,,,,,,,,,,
,,,,,61347b534314b736f635bc06,6682b41eeb79ab8215dff63d,6682bab15b6828720da50cc2,38,Male,English,2024-07-01_15h20.19.301,ABmemTask3,2023.2.3,Win32,98.03921569,,,,,,,,,,,,,,,,,,,,,,,,,,,,,,,755.1129,756.1057,756.1058,12,756.5911,759.0244,0.0017,759.2419,0.2205,0.219,0.2216,0.22,0.2368,0.2144,0.2201,0.2197,0.2184,0.2193,0.2218,759.2421,759.964,right,0.6872,,759.9641,760.3201,right,0.3241,,34,0,44,760.3202,761.3223,,,,,,1_AB,L5_T1P_T2P,5,1,1,4,9,3,3,12,Sheep,Did you see the Sheep,0.12,0,resources/,pics/icecube01.jpg,pics/cymbal.jpg,pics/wheel01.jpg,pics/sheep.jpg,pics/starfish01.jpg,pics/safetypin.jpg,pics/siamesecat.jpg,pics/lock03a.jpg,pics/stapler01.jpg,pics/sink.jpg,pics/fanblades.jpg,pics/bowlingpin.jpg,blankImage,blankImage,blankImage,blankImage,blankImage,sheep,52,,,,,,,,,,,,,,,,,,,,,,,,,,,,,,,,,,,,,,,,,0,21,21,51,1,,,,,,,,,,,,,,,,,,,,,,,,,,,,,,,,,,,,,,,,,,,,,,,,,,,,,,,
,,,,,61347b534314b736f635bc06,6682b41eeb79ab8215dff63d,6682bab15b6828720da50cc2,38,Male,English,2024-07-01_15h20.19.301,ABmemTask3,2023.2.3,Win32,98.03921569,,,,,,,,,,,,,,,,,,,,,,,,,,,,,,,761.3234,762.3333,762.3334,12,762.8346,765.0742,0.0019,765.291,0.2179,0.2201,0.2205,0.225,0.2339,0.233,0.2342,0.2154,0.2248,0.2134,,765.2914,766.5241,right,1.2062,,766.5243,766.9346,left,0.3778,,36,0,46,766.9348,767.9283,,,,,,1_AB,L1_T1P_T2A,1,1,0,7,8,6,3,11,eggplant,Did you see the eggplant,0.12,0,resources/,pics/salmon.jpg,pics/fanblades.jpg,pics/hammerheadshark.jpg,pics/wheel01.jpg,pics/snowshoe.jpg,pics/birdhouse.jpg,pics/eggplant.jpg,pics/spiderweb.jpg,pics/zebra.jpg,pics/pencilsharpener02a.jpg,pics/backpack01a.jpg,blankImage,blankImage,blankImage,blankImage,blankImage,blankImage,eggplant,32,,,,,,,,,,,,,,,,,,,,,,,,,,,,,,,,,,,,,,,,,0,22,22,31,1,,,,,,,,,,,,,,,,,,,,,,,,,,,,,,,,,,,,,,,,,,,,,,,,,,,,,,,
,,,,,61347b534314b736f635bc06,6682b41eeb79ab8215dff63d,6682bab15b6828720da50cc2,38,Male,English,2024-07-01_15h20.19.301,ABmemTask3,2023.2.3,Win32,98.03921569,,,,,,,,,,,,,,,,,,,,,,,,,,,,,,,767.9361,768.9266,768.9266,12,769.4124,772.3781,0.0017,772.5956,0.2126,0.2001,0.2126,0.2127,0.206,0.2097,0.2113,0.2097,0.2126,0.2108,0.2252,772.5958,773.1528,right,0.524,,773.1529,773.4845,right,0.3045,,38,0,48,773.4846,774.4743,,,,,,1_AB,L5_T1P_T2P,5,1,1,5,10,4,5,15,dolphin,Did you see the dolphin,0.12,0,resources/,pics/banjo.jpg,pics/shipinabottle.jpg,pics/laptop01a.jpg,pics/onion.jpg,pics/dolphin01.jpg,pics/sink.jpg,pics/seaturtle.jpg,pics/butterfly.jpg,pics/hen.jpg,pics/stapler10.jpg,pics/proboscismonkey.jpg,pics/starfish01.jpg,pics/salmon.jpg,pics/spiderweb.jpg,pics/cymbal.jpg,blankImage,blankImage,dolphin01,49,0.2142,0.2081,0.2187,,,,,,,,,,,,,,,,,,,,,,,,,,,,,,,,,,,,,,0,23,23,48,1,,,,,,,,,,,,,,,,,,,,,,,,,,,,,,,,,,,,,,,,,,,,,,,,,,,,,,,
,,,,,61347b534314b736f635bc06,6682b41eeb79ab8215dff63d,6682bab15b6828720da50cc2,38,Male,English,2024-07-01_15h20.19.301,ABmemTask3,2023.2.3,Win32,98.03921569,,,,,,,,,,,,,,,,,,,,,,,,,,,,,,,774.4754,775.4628,775.4629,12,775.9653,779.0477,0.0016,779.2666,0.2194,0.2195,0.224,0.2163,0.2219,0.2209,0.2206,0.2173,0.2209,0.2217,0.2197,779.2668,780.1851,right,0.8852,,780.1852,780.6799,right,0.4626,,40,0,50,780.68,781.6791,,,,,,1_AB,L5_T1P_T2P,5,1,1,6,11,5,4,15,toast,Did you see the toast,0.12,0,resources/,pics/piggybank.jpg,pics/leaf02a.jpg,pics/carrot01.jpg,pics/birdhouse.jpg,pics/bowlingpin.jpg,pics/toast.jpg,pics/spiderweb.jpg,pics/cork02.jpg,pics/sink.jpg,pics/nutcracker01.jpg,pics/stapler02.jpg,pics/ashtray01.jpg,pics/fanblades.jpg,pics/pencil01.jpg,pics/lightswitch01.jpg,blankImage,blankImage,toast,46,0.218,0.2224,0.2188,,,,,,,,,,,,,,,,,,,,,,,,,,,,,,,,,,,,,,0,24,24,45,1,,,,,,,,,,,,,,,,,,,,,,,,,,,,,,,,,,,,,,,,,,,,,,,,,,,,,,,
,,,,,61347b534314b736f635bc06,6682b41eeb79ab8215dff63d,6682bab15b6828720da50cc2,38,Male,English,2024-07-01_15h20.19.301,ABmemTask3,2023.2.3,Win32,98.03921569,,,,,,,,,,,,,,,,,,,,,,,,,,,,,,,781.6804,782.6879,782.688,12,783.1962,785.3774,0.0021,785.5963,0.2266,0.214,0.2197,0.2189,0.2188,0.2103,0.2103,0.2208,0.2201,0.2201,,785.5964,786.3384,right,0.7078,,786.3386,786.6434,right,0.2726,,42,0,52,786.6435,787.6331,,,,,,1_AB,L1_T1P_T2P,1,1,1,7,8,6,3,11,toothpick,Did you see the toothpick,0.12,0,resources/,pics/candleholder01.jpg,pics/blender.jpg,pics/siamesecat.jpg,pics/peanut01.jpg,pics/spiderweb.jpg,pics/football.jpg,pics/toothpick02.jpg,pics/stapler04b.jpg,pics/seagull.jpg,pics/pictureframe04.jpg,pics/shipinabottle.jpg,blankImage,blankImage,blankImage,blankImage,blankImage,blankImage,toothpick02,17,,,,,,,,,,,,,,,,,,,,,,,,,,,,,,,,,,,,,,,,,0,25,25,16,1,,,,,,,,,,,,,,,,,,,,,,,,,,,,,,,,,,,,,,,,,,,,,,,,,,,,,,,
,,,,,61347b534314b736f635bc06,6682b41eeb79ab8215dff63d,6682bab15b6828720da50cc2,38,Male,English,2024-07-01_15h20.19.301,ABmemTask3,2023.2.3,Win32,98.03921569,,,,,,,,,,,,,,,,,,,,,,,,,,,,,,,787.634,788.6221,788.6223,12,789.1235,791.3191,0.0022,791.5387,0.2166,0.2178,0.2195,0.2203,0.2201,0.2228,0.2185,0.2182,0.2195,0.2204,,791.5389,793.4523,left,1.8808,,793.4524,793.9246,right,0.454,,44,0,54,793.9248,794.9199,,,,,,1_AB,L1_T1A_T2P,1,0,1,7,8,6,3,11,turkey,Did you see the turkey,0.12,0,resources/,pics/proboscismonkey.jpg,pics/blender.jpg,pics/sealion.jpg,pics/snowshoe.jpg,pics/carrot01.jpg,pics/microscope.jpg,pics/piggybank.jpg,pics/stapler12.jpg,pics/peanut01.jpg,pics/dustpan.jpg,pics/footballhelmet.jpg,blankImage,blankImage,blankImage,blankImage,blankImage,blankImage,turkey,26,,,,,,,,,,,,,,,,,,,,,,,,,,,,,,,,,,,,,,,,,0,26,26,25,1,,,,,,,,,,,,,,,,,,,,,,,,,,,,,,,,,,,,,,,,,,,,,,,,,,,,,,,
,,,,,61347b534314b736f635bc06,6682b41eeb79ab8215dff63d,6682bab15b6828720da50cc2,38,Male,English,2024-07-01_15h20.19.301,ABmemTask3,2023.2.3,Win32,98.03921569,,,,,,,,,,,,,,,,,,,,,,,,,,,,,,,794.9327,795.9268,795.9269,12,796.4305,798.1829,0.0021,798.4018,0.218,0.219,0.2203,0.2212,0.2174,0.212,0.2203,0.2227,,,,798.4019,799.7663,right,1.3331,,799.7665,800.1693,left,0.3756,,44,0,56,800.1694,801.1687,,,,,,1_AB,L1_T1P_T2P,1,1,1,5,6,4,3,9,cabbage,Did you see the cabbage,0.12,0,resources/,pics/match.jpg,pics/icecube01.jpg,pics/noparkingsign.jpg,pics/christmaslights.jpg,pics/cabbage.jpg,pics/stapler03a.jpg,pics/carrot01.jpg,pics/dustpan.jpg,pics/cannon.jpg,blankImage,blankImage,blankImage,blankImage,blankImage,blankImage,blankImage,blankImage,cabbage,14,,,,,,,,,,,,,,,,,,,,,,,,,,,,,,,,,,,,,,,,,0,27,27,13,1,,,,,,,,,,,,,,,,,,,,,,,,,,,,,,,,,,,,,,,,,,,,,,,,,,,,,,,
,,,,,61347b534314b736f635bc06,6682b41eeb79ab8215dff63d,6682bab15b6828720da50cc2,38,Male,English,2024-07-01_15h20.19.301,ABmemTask3,2023.2.3,Win32,98.03921569,,,,,,,,,,,,,,,,,,,,,,,,,,,,,,,801.1698,802.178,802.1781,12,802.6806,804.872,0.0022,805.0918,0.2189,0.2212,0.2169,0.2127,0.2198,0.2219,0.2177,0.2238,0.2156,0.2212,,805.0919,805.9511,right,0.8267,,805.9512,806.2564,right,0.2722,,42,0,58,806.2565,807.2617,,,,,,1_AB,L1_T1A_T2P,1,0,1,5,6,4,5,11,Recorder,Did you see the Recorder,0.12,0,resources/,pics/bowtie.jpg,pics/nutcracker01.jpg,pics/hairdryer02a.jpg,pics/shovel01.jpg,pics/onion.jpg,pics/stapler13.jpg,pics/safetypin.jpg,pics/spiderweb.jpg,pics/seagull.jpg,pics/dustpan.jpg,pics/icecube01.jpg,blankImage,blankImage,blankImage,blankImage,blankImage,blankImage,recorder04,28,,,,,,,,,,,,,,,,,,,,,,,,,,,,,,,,,,,,,,,,,0,28,28,27,1,,,,,,,,,,,,,,,,,,,,,,,,,,,,,,,,,,,,,,,,,,,,,,,,,,,,,,,
,,,,,61347b534314b736f635bc06,6682b41eeb79ab8215dff63d,6682bab15b6828720da50cc2,38,Male,English,2024-07-01_15h20.19.301,ABmemTask3,2023.2.3,Win32,98.03921569,,,,,,,,,,,,,,,,,,,,,,,,,,,,,,,807.2629,808.2574,808.2575,12,808.7447,810.9336,0.0016,811.1523,0.2178,0.2203,0.2172,0.2118,0.2214,0.2186,0.2212,0.2196,0.2188,0.2211,,811.1525,812.6782,right,1.4926,,812.6784,813.6359,right,0.9303,,36,0,60,813.6361,814.6332,,,,,,1_AB,L1_T1A_T2A,1,0,0,7,8,6,3,11,Poker chips,Did you see the Poker chips,0.12,0,resources/,pics/candle01.jpg,pics/proboscismonkey.jpg,pics/fanblades.jpg,pics/dromedary.jpg,pics/aquarium.jpg,pics/salmon.jpg,pics/hose.jpg,pics/kangaroo.jpg,pics/noparkingsign.jpg,pics/carrot01.jpg,pics/leaf02a.jpg,blankImage,blankImage,blankImage,blankImage,blankImage,blankImage,pokerchips,41,,,,,,,,,,,,,,,,,,,,,,,,,,,,,,,,,,,,,,,,,0,29,29,40,1,,,,,,,,,,,,,,,,,,,,,,,,,,,,,,,,,,,,,,,,,,,,,,,,,,,,,,,
,,,,,61347b534314b736f635bc06,6682b41eeb79ab8215dff63d,6682bab15b6828720da50cc2,38,Male,English,2024-07-01_15h20.19.301,ABmemTask3,2023.2.3,Win32,98.03921569,,,,,,,,,,,,,,,,,,,,,,,,,,,,,,,814.6468,815.6456,815.6457,12,816.1422,819.4246,0.0021,819.6435,0.2238,0.2131,0.2149,0.2168,0.2134,0.2177,0.221,0.2209,0.2182,0.2227,0.2173,819.6437,820.3601,right,0.6825,,820.3602,820.8669,right,0.4797,,38,0,62,820.867,821.8619,,,,,,1_AB,L5_T1P_T2P,5,1,1,6,11,5,5,16,cruise ship,Did you see the cruise ship,0.12,0,resources/,pics/seaturtle.jpg,pics/ashtray01.jpg,pics/pencil01.jpg,pics/fanblades.jpg,pics/triangle.jpg,pics/cruiseship.jpg,pics/wheel01.jpg,pics/dustpan.jpg,pics/starfish01.jpg,pics/banjo.jpg,pics/stapler12.jpg,pics/match.jpg,pics/cannon.jpg,pics/sandbarshark.jpg,pics/sink.jpg,pics/zebra.jpg,blankImage,cruiseship,51,0.2207,0.2202,0.2213,,,,,,,,,,,,,,,,,,,,,,,,,,,,,,,,,,,,,,0,30,30,50,1,0.2183,,,,,,,,,,,,,,,,,,,,,,,,,,,,,,,,,,,,,,,,,,,,,,,,,,,,,,
,,,,,61347b534314b736f635bc06,6682b41eeb79ab8215dff63d,6682bab15b6828720da50cc2,38,Male,English,2024-07-01_15h20.19.301,ABmemTask3,2023.2.3,Win32,98.03921569,,,,,,,,,,,,,,,,,,,,,,,,,,,,,,,821.8628,822.8598,822.8599,12,823.3594,825.3642,0.0019,825.5839,0.212,0.212,0.2212,0.2206,0.2196,0.2405,0.2359,0.2267,0.2148,,,825.5841,826.4438,right,0.8254,,826.444,826.9316,left,0.4637,,40,0,64,826.9317,827.9302,,,,,,1_AB,L1_T1P_T2A,1,1,0,6,7,5,3,10,Duct tape,Did you see the Duct tape,0.12,0,resources/,pics/butterfly.jpg,pics/noparkingsign.jpg,pics/pictureframe04.jpg,pics/cork02.jpg,pics/fanblades.jpg,pics/ducttape.jpg,pics/icecube01.jpg,pics/siamesecat.jpg,pics/sink.jpg,pics/sandbarshark.jpg,blankImage,blankImage,blankImage,blankImage,blankImage,blankImage,blankImage,ducttape,36,,,,,,,,,,,,,,,,,,,,,,,,,,,,,,,,,,,,,,,,,0,31,31,35,1,,,,,,,,,,,,,,,,,,,,,,,,,,,,,,,,,,,,,,,,,,,,,,,,,,,,,,,
,,,,,61347b534314b736f635bc06,6682b41eeb79ab8215dff63d,6682bab15b6828720da50cc2,38,Male,English,2024-07-01_15h20.19.301,ABmemTask3,2023.2.3,Win32,98.03921569,,,,,,,,,,,,,,,,,,,,,,,,,,,,,,,827.9311,828.9256,828.9257,12,829.4268,832.2878,0.0022,832.5065,0.2189,0.2261,0.2127,0.2206,0.2194,0.2194,0.2203,0.2196,0.2194,0.2205,0.2217,832.5067,833.1752,right,0.635,,833.1753,833.6077,right,0.4073,,42,0,66,833.6078,834.5965,,,,,,1_AB,L5_T1P_T2P,5,1,1,5,10,4,4,14,Fox,Did you see the Fox,0.12,0,resources/,pics/hammerheadshark.jpg,pics/bowlingpin.jpg,pics/pictureframe04.jpg,pics/peanut01.jpg,pics/redfox.jpg,pics/cymbal.jpg,pics/spoon01.jpg,pics/banjo.jpg,pics/butterfly.jpg,pics/stapler11.jpg,pics/football.jpg,pics/safetypin.jpg,pics/triangle.jpg,pics/onion.jpg,blankImage,blankImage,blankImage,redfox,45,0.2206,0.2201,,,,,,,,,,,,,,,,,,,,,,,,,,,,,,,,,,,,,,,0,32,32,44,1,,,,,,,,,,,,,,,,,,,,,,,,,,,,,,,,,,,,,,,,,,,,,,,,,,,,,,,
,,,,,61347b534314b736f635bc06,6682b41eeb79ab8215dff63d,6682bab15b6828720da50cc2,38,Male,English,2024-07-01_15h20.19.301,ABmemTask3,2023.2.3,Win32,98.03921569,,,,,,,,,,,,,,,,,,,,,,,,,,,,,,,834.5976,835.6061,835.6063,12,836.1059,838.3035,0.0022,838.5229,0.2195,0.2218,0.2182,0.222,0.2187,0.2208,0.2176,0.2105,0.2204,0.2263,,838.523,839.5307,right,0.9791,,839.5307,839.8855,left,0.3238,,44,0,68,839.8855,840.8789,,,,,,1_AB,L1_T1P_T2A,1,1,0,6,7,5,4,11,lamp,Did you see the lamp,0.12,0,resources/,pics/chainsaw.jpg,pics/fanblades.jpg,pics/salmon.jpg,pics/proboscismonkey.jpg,pics/boot02b.jpg,pics/lamp04a.jpg,pics/blender.jpg,pics/sink.jpg,pics/pencil01.jpg,pics/floortile02.jpg,pics/shovel01.jpg,blankImage,blankImage,blankImage,blankImage,blankImage,blankImage,lamp04a,37,,,,,,,,,,,,,,,,,,,,,,,,,,,,,,,,,,,,,,,,,0,33,33,36,1,,,,,,,,,,,,,,,,,,,,,,,,,,,,,,,,,,,,,,,,,,,,,,,,,,,,,,,
,,,,,61347b534314b736f635bc06,6682b41eeb79ab8215dff63d,6682bab15b6828720da50cc2,38,Male,English,2024-07-01_15h20.19.301,ABmemTask3,2023.2.3,Win32,98.03921569,,,,,,,,,,,,,,,,,,,,,,,,,,,,,,,840.8798,841.8877,841.8878,12,842.3878,845.2492,0.0017,845.4671,0.2155,0.2168,0.2169,0.2233,0.2163,0.2207,0.2203,0.2212,0.219,0.2343,0.2186,845.4672,846.4024,left,0.9102,,846.4025,846.8766,right,0.4446,,44,0,70,846.8767,847.87,,,,,,1_AB,L5_T1P_T2P,5,1,1,4,9,3,5,14,pliers,Did you see the pliers,0.12,0,resources/,pics/calendar.jpg,pics/footballhelmet.jpg,pics/seaturtle.jpg,pics/pliers02b.jpg,pics/wheel01.jpg,pics/cannon.jpg,pics/proboscismonkey.jpg,pics/shovel01.jpg,pics/stapler06.jpg,pics/football.jpg,pics/hose.jpg,pics/dustpan.jpg,pics/spiderweb.jpg,pics/golfball.jpg,blankImage,blankImage,blankImage,pliers02b,48,0.2164,0.2206,,,,,,,,,,,,,,,,,,,,,,,,,,,,,,,,,,,,,,,0,34,34,47,1,,,,,,,,,,,,,,,,,,,,,,,,,,,,,,,,,,,,,,,,,,,,,,,,,,,,,,,
,,,,,61347b534314b736f635bc06,6682b41eeb79ab8215dff63d,6682bab15b6828720da50cc2,38,Male,English,2024-07-01_15h20.19.301,ABmemTask3,2023.2.3,Win32,98.03921569,,,,,,,,,,,,,,,,,,,,,,,,,,,,,,,847.8711,848.8799,848.88,12,849.3746,851.351,0.002,851.569,0.214,0.2221,0.2173,0.2215,0.2198,0.2208,0.2183,0.2206,0.2204,,,851.5691,853.4366,right,1.8339,,853.4368,863.0806,right,9.6173,,46,0,72,863.0808,864.0712,,,,,,1_AB,L1_T1P_T2P,1,1,1,5,6,4,4,10,thermometer,Did you see the thermometer,0.12,0,resources/,pics/triangle.jpg,pics/shovel01.jpg,pics/mummy.jpg,pics/noparkingsign.jpg,pics/thermometer02b.jpg,pics/stapler04.jpg,pics/piggybank.jpg,pics/golfball.jpg,pics/laptop01a.jpg,pics/aquarium.jpg,blankImage,blankImage,blankImage,blankImage,blankImage,blankImage,blankImage,thermometer02b,8,,,,,,,,,,,,,,,,,,,,,,,,,,,,,,,,,,,,,,,,,0,35,35,7,1,,,,,,,,,,,,,,,,,,,,,,,,,,,,,,,,,,,,,,,,,,,,,,,,,,,,,,,
,,,,,61347b534314b736f635bc06,6682b41eeb79ab8215dff63d,6682bab15b6828720da50cc2,38,Male,English,2024-07-01_15h20.19.301,ABmemTask3,2023.2.3,Win32,98.03921569,,,,,,,,,,,,,,,,,,,,,,,,,,,,,,,864.079,865.0709,865.071,12,865.5574,867.5343,0.0018,867.7518,0.2131,0.2197,0.2215,0.2199,0.2217,0.218,0.2193,0.2226,0.2196,,,867.752,871.3235,right,3.5373,,871.3237,871.7154,right,0.3587,,44,0,74,871.7156,872.7102,,,,,,1_AB,L1_T1A_T2P,1,0,1,5,6,4,4,10,button,Did you see the button,0.12,0,resources/,pics/pencil01.jpg,pics/necklace.jpg,pics/sink.jpg,pics/noparkingsign.jpg,pics/banjo.jpg,pics/stapler03b.jpg,pics/candle01.jpg,pics/icecube01.jpg,pics/shovel01.jpg,pics/pencilsharpener02a.jpg,blankImage,blankImage,blankImage,blankImage,blankImage,blankImage,blankImage,button01,25,,,,,,,,,,,,,,,,,,,,,,,,,,,,,,,,,,,,,,,,,0,36,36,24,1,,,,,,,,,,,,,,,,,,,,,,,,,,,,,,,,,,,,,,,,,,,,,,,,,,,,,,,
,,,,,61347b534314b736f635bc06,6682b41eeb79ab8215dff63d,6682bab15b6828720da50cc2,38,Male,English,2024-07-01_15h20.19.301,ABmemTask3,2023.2.3,Win32,98.03921569,,,,,,,,,,,,,,,,,,,,,,,,,,,,,,,872.7254,873.7114,873.7115,12,874.213,876.4044,0.0022,876.6252,0.2205,0.2211,0.2188,0.2195,0.2255,0.2159,0.2173,0.2119,0.2192,0.2199,,876.6252,877.3869,right,0.7299,,877.3869,877.7646,right,0.3594,,46,0,76,877.7647,878.7654,,,,,,1_AB,L1_T1P_T2P,1,1,1,7,8,6,3,11,sock,Did you see the sock,0.12,0,resources/,pics/hen.jpg,pics/christmaslights.jpg,pics/salmon.jpg,pics/sealion.jpg,pics/seaturtle.jpg,pics/giraffe.jpg,pics/athleticsock.jpg,pics/stapler01.jpg,pics/shovel01.jpg,pics/leaf02a.jpg,pics/backpack01a.jpg,blankImage,blankImage,blankImage,blankImage,blankImage,blankImage,athleticsock,11,,,,,,,,,,,,,,,,,,,,,,,,,,,,,,,,,,,,,,,,,0,37,37,10,1,,,,,,,,,,,,,,,,,,,,,,,,,,,,,,,,,,,,,,,,,,,,,,,,,,,,,,,
,,,,,61347b534314b736f635bc06,6682b41eeb79ab8215dff63d,6682bab15b6828720da50cc2,38,Male,English,2024-07-01_15h20.19.301,ABmemTask3,2023.2.3,Win32,98.03921569,,,,,,,,,,,,,,,,,,,,,,,,,,,,,,,878.7664,879.7536,879.7538,12,880.2578,883.0948,0.0013,883.3155,0.207,0.2213,0.2186,0.2212,0.2209,0.2176,0.2191,0.2119,0.2223,0.2176,0.2209,883.3157,884.2974,right,0.9484,,884.2976,884.9468,right,0.6196,,48,0,78,884.947,885.9481,,,,,,1_AB,L5_T1P_T2P,5,1,1,6,11,5,3,14,truck,Did you see the truck,0.12,0,resources/,pics/calendar.jpg,pics/mummy.jpg,pics/ashtray01.jpg,pics/pencilsharpener02a.jpg,pics/dustpan.jpg,pics/boxtruck.jpg,pics/lightswitch01.jpg,pics/pictureframe04.jpg,pics/starfish01.jpg,pics/zebra.jpg,pics/stapler12.jpg,pics/bowtie.jpg,pics/candleholder01.jpg,pics/candle01.jpg,blankImage,blankImage,blankImage,boxtruck,50,0.2185,0.2189,,,,,,,,,,,,,,,,,,,,,,,,,,,,,,,,,,,,,,,0,38,38,49,1,,,,,,,,,,,,,,,,,,,,,,,,,,,,,,,,,,,,,,,,,,,,,,,,,,,,,,,
,,,,,61347b534314b736f635bc06,6682b41eeb79ab8215dff63d,6682bab15b6828720da50cc2,38,Male,English,2024-07-01_15h20.19.301,ABmemTask3,2023.2.3,Win32,98.03921569,,,,,,,,,,,,,,,,,,,,,,,,,,,,,,,885.9491,886.9567,886.9568,12,887.4585,889.8662,0.0021,890.0869,0.2181,0.2183,0.2188,0.212,0.219,0.2205,0.2199,0.2199,0.2209,0.2323,0.2063,890.087,891.4274,right,1.3068,,891.4275,891.9722,right,0.5123,,50,0,80,891.9724,892.9798,,,,,,1_AB,L1_T1P_T2P,1,1,1,7,8,6,4,12,hammer,Did you see the hammer,0.12,0,resources/,pics/microscope.jpg,pics/blender.jpg,pics/dustpan.jpg,pics/snowshoe.jpg,pics/mummy.jpg,pics/bowtie.jpg,pics/hammer01.jpg,pics/stapler04b.jpg,pics/seaturtle.jpg,pics/candle01.jpg,pics/necklace.jpg,pics/cannon.jpg,blankImage,blankImage,blankImage,blankImage,blankImage,hammer01,21,,,,,,,,,,,,,,,,,,,,,,,,,,,,,,,,,,,,,,,,,0,39,39,20,1,,,,,,,,,,,,,,,,,,,,,,,,,,,,,,,,,,,,,,,,,,,,,,,,,,,,,,,
,,,,,61347b534314b736f635bc06,6682b41eeb79ab8215dff63d,6682bab15b6828720da50cc2,38,Male,English,2024-07-01_15h20.19.301,ABmemTask3,2023.2.3,Win32,98.03921569,,,,,,,,,,,,,,,,,,,,,,,,,,,,,,,892.987,893.9894,893.9895,12,894.4979,896.0282,0.0015,896.2462,0.2188,0.2322,0.2063,0.2112,0.2213,0.2195,0.2199,,,,,896.2464,896.9067,right,0.6353,,896.907,897.2477,right,0.3164,,52,0,82,897.2477,898.2611,,,,,,1_AB,L1_T1P_T2P,1,1,1,4,5,3,3,8,Recycling bin,Did you see the Recycling bin,0.12,0,resources/,pics/microscope.jpg,pics/dustpan.jpg,pics/seagull.jpg,pics/recyclingbin.jpg,pics/stapler06.jpg,pics/bowtie.jpg,pics/dromedary.jpg,pics/salmon.jpg,blankImage,blankImage,blankImage,blankImage,blankImage,blankImage,blankImage,blankImage,blankImage,recyclingbin,16,,,,,,,,,,,,,,,,,,,,,,,,,,,,,,,,,,,,,,,,,0,40,40,15,1,,,,,,,,,,,,,,,,,,,,,,,,,,,,,,,,,,,,,,,,,,,,,,,,,,,,,,,
,,,,,61347b534314b736f635bc06,6682b41eeb79ab8215dff63d,6682bab15b6828720da50cc2,38,Male,English,2024-07-01_15h20.19.301,ABmemTask3,2023.2.3,Win32,98.03921569,,,,,,,,,,,,,,,,,,,,,,,,,,,,,,,898.2708,899.2579,899.2581,12,899.7594,901.512,0.0022,901.7288,0.2197,0.219,0.2182,0.2112,0.2199,0.2204,0.2273,0.2153,,,,901.7289,902.8716,left,1.1093,,902.8718,903.388,right,0.4855,,54,0,84,903.3881,904.381,,,,,,1_AB,L1_T1A_T2P,1,0,1,5,6,4,3,9,Trailer,Did you see the Trailer,0.12,0,resources/,pics/pencil01.jpg,pics/football.jpg,pics/hairdryer02a.jpg,pics/wheel01.jpg,pics/chainsaw.jpg,pics/stapler10.jpg,pics/peanut01.jpg,pics/triangle.jpg,pics/sink.jpg,blankImage,blankImage,blankImage,blankImage,blankImage,blankImage,blankImage,blankImage,boxtrailer,29,,,,,,,,,,,,,,,,,,,,,,,,,,,,,,,,,,,,,,,,,0,41,41,28,1,,,,,,,,,,,,,,,,,,,,,,,,,,,,,,,,,,,,,,,,,,,,,,,,,,,,,,,
,,,,,61347b534314b736f635bc06,6682b41eeb79ab8215dff63d,6682bab15b6828720da50cc2,38,Male,English,2024-07-01_15h20.19.301,ABmemTask3,2023.2.3,Win32,98.03921569,,,,,,,,,,,,,,,,,,,,,,,,,,,,,,,904.3892,905.3747,905.3748,12,905.8748,907.8497,0.0017,908.0697,0.2149,0.2185,0.2218,0.2205,0.2203,0.2193,0.2187,0.2212,0.2185,,,908.0698,909.0895,right,0.9858,,909.0896,909.472,left,0.3483,,56,0,86,909.4722,910.4692,,,,,,1_AB,L1_T1P_T2A,1,1,0,6,7,5,3,10,Electric toothbrush,Did you see the Electric toothbrush,0.12,0,resources/,pics/football.jpg,pics/sailboat.jpg,pics/cymbal.jpg,pics/hen.jpg,pics/pencil01.jpg,pics/electrictoothbrush01c.jpg,pics/bowlingpin.jpg,pics/wheel01.jpg,pics/birdhouse.jpg,pics/leaf02a.jpg,blankImage,blankImage,blankImage,blankImage,blankImage,blankImage,blankImage,electrictoothbrush01c,34,,,,,,,,,,,,,,,,,,,,,,,,,,,,,,,,,,,,,,,,,0,42,42,33,1,,,,,,,,,,,,,,,,,,,,,,,,,,,,,,,,,,,,,,,,,,,,,,,,,,,,,,,
,,,,,61347b534314b736f635bc06,6682b41eeb79ab8215dff63d,6682bab15b6828720da50cc2,38,Male,English,2024-07-01_15h20.19.301,ABmemTask3,2023.2.3,Win32,98.03921569,,,,,,,,,,,,,,,,,,,,,,,,,,,,,,,910.4769,911.4682,911.4682,12,911.9695,914.6117,0.0021,914.8329,0.2216,0.22,0.2175,0.2222,0.2212,0.2199,0.2178,0.2194,0.2204,0.2329,0.2075,914.8331,915.7588,left,0.8939,,915.7588,916.388,right,0.604,,58,0,88,916.3881,917.3833,,,,,,1_AB,L1_T1A_T2P,1,0,1,7,8,6,5,13,Basketball,Did you see the Basketball,0.12,0,resources/,pics/cork02.jpg,pics/table01.jpg,pics/christmaslights.jpg,pics/nutcracker01.jpg,pics/golfball.jpg,pics/hammerheadshark.jpg,pics/seaturtle.jpg,pics/stapler04b.jpg,pics/lock03a.jpg,pics/snowshoe.jpg,pics/sewingmachine01a.jpg,pics/peach01.jpg,pics/hose.jpg,blankImage,blankImage,blankImage,blankImage,basketball01,24,0.2199,,,,,,,,,,,,,,,,,,,,,,,,,,,,,,,,,,,,,,,,0,43,43,23,1,,,,,,,,,,,,,,,,,,,,,,,,,,,,,,,,,,,,,,,,,,,,,,,,,,,,,,,
,,,,,61347b534314b736f635bc06,6682b41eeb79ab8215dff63d,6682bab15b6828720da50cc2,38,Male,English,2024-07-01_15h20.19.301,ABmemTask3,2023.2.3,Win32,98.03921569,,,,,,,,,,,,,,,,,,,,,,,,,,,,,,,917.3843,918.3799,918.38,12,918.8843,921.3033,0.0017,921.5242,0.216,0.2277,0.2151,0.2172,0.2234,0.2186,0.2205,0.219,0.22,0.2219,0.2182,921.5243,922.3479,right,0.7921,,922.348,923.2695,right,0.8937,,60,0,90,923.2696,924.262,,,,,,1_AB,L1_T1P_T2P,1,1,1,6,7,5,5,12,Bear,Did you see the Bear,0.12,0,resources/,pics/necklace.jpg,pics/hen.jpg,pics/dromedary.jpg,pics/piggybank.jpg,pics/sandbarshark.jpg,pics/grizzly.jpg,pics/stapler12.jpg,pics/bowlingpin.jpg,pics/christmaslights.jpg,pics/icecube01.jpg,pics/match.jpg,pics/lock03a.jpg,blankImage,blankImage,blankImage,blankImage,blankImage,grizzly,18,,,,,,,,,,,,,,,,,,,,,,,,,,,,,,,,,,,,,,,,,0,44,44,17,1,,,,,,,,,,,,,,,,,,,,,,,,,,,,,,,,,,,,,,,,,,,,,,,,,,,,,,,
,,,,,61347b534314b736f635bc06,6682b41eeb79ab8215dff63d,6682bab15b6828720da50cc2,38,Male,English,2024-07-01_15h20.19.301,ABmemTask3,2023.2.3,Win32,98.03921569,,,,,,,,,,,,,,,,,,,,,,,,,,,,,,,924.263,925.2618,925.2619,12,925.7623,928.6217,0.0022,928.8466,0.2206,0.2207,0.2196,0.2213,0.2176,0.22,0.2216,0.2194,0.2188,0.2225,0.2186,928.8466,930.0076,left,1.1429,,930.0078,930.3805,right,0.3434,,62,0,92,930.3806,931.3834,,,,,,1_AB,L5_T1A_T2P,5,0,1,4,9,3,5,14,lemon,Did you see the lemon,0.12,0,resources/,pics/seaturtle.jpg,pics/lightswitch01.jpg,pics/candle01.jpg,pics/cannon.jpg,pics/seagull.jpg,pics/spoon01.jpg,pics/spiderweb.jpg,pics/sewingmachine01a.jpg,pics/stapler05.jpg,pics/binoculars01b.jpg,pics/zebra.jpg,pics/sealion.jpg,pics/shovel01.jpg,pics/wheel01.jpg,blankImage,blankImage,blankImage,lemon02,56,0.2225,0.2143,,,,,,,,,,,,,,,,,,,,,,,,,,,,,,,,,,,,,,,0,45,45,55,1,,,,,,,,,,,,,,,,,,,,,,,,,,,,,,,,,,,,,,,,,,,,,,,,,,,,,,,
,,,,,61347b534314b736f635bc06,6682b41eeb79ab8215dff63d,6682bab15b6828720da50cc2,38,Male,English,2024-07-01_15h20.19.301,ABmemTask3,2023.2.3,Win32,98.03921569,,,,,,,,,,,,,,,,,,,,,,,,,,,,,,,931.3845,932.3719,932.372,12,932.8598,935.4966,0.0014,935.7139,0.2129,0.2122,0.2201,0.2186,0.225,0.2152,0.235,0.2156,0.2207,0.2202,0.2193,935.7141,937.2096,right,1.4607,,937.2097,937.6604,left,0.4222,,62,0,94,937.6605,938.6598,,,,,,1_AB,L1_T1P_T2P,1,1,1,7,8,6,5,13,Totem Pole,Did you see the Totem Pole,0.12,0,resources/,pics/laptop01a.jpg,pics/carrot01.jpg,pics/wheel01.jpg,pics/icecube01.jpg,pics/ashtray01.jpg,pics/lock03a.jpg,pics/totempole.jpg,pics/stapler08.jpg,pics/golfball.jpg,pics/pencil01.jpg,pics/banjo.jpg,pics/sandbarshark.jpg,pics/shipinabottle.jpg,blankImage,blankImage,blankImage,blankImage,totempole,22,0.2206,,,,,,,,,,,,,,,,,,,,,,,,,,,,,,,,,,,,,,,,0,46,46,21,1,,,,,,,,,,,,,,,,,,,,,,,,,,,,,,,,,,,,,,,,,,,,,,,,,,,,,,,
,,,,,61347b534314b736f635bc06,6682b41eeb79ab8215dff63d,6682bab15b6828720da50cc2,38,Male,English,2024-07-01_15h20.19.301,ABmemTask3,2023.2.3,Win32,98.03921569,,,,,,,,,,,,,,,,,,,,,,,,,,,,,,,938.6692,939.6694,939.6695,12,940.1655,942.3582,0.002,942.5758,0.2209,0.2201,0.2157,0.2118,0.2221,0.2184,0.2189,0.2225,0.2193,0.2213,,942.576,943.2449,right,0.6349,,943.245,943.5763,right,0.3067,,64,0,96,943.5763,944.5588,,,,,,1_AB,L1_T1P_T2P,1,1,1,7,8,6,3,11,Eiffel tower,Did you see the Eiffel tower,0.12,0,resources/,pics/seagull.jpg,pics/cymbal.jpg,pics/match.jpg,pics/binoculars01b.jpg,pics/ball02.jpg,pics/onion.jpg,pics/eiffeltower.jpg,pics/stapler11.jpg,pics/peach01.jpg,pics/sandbarshark.jpg,pics/boot02b.jpg,blankImage,blankImage,blankImage,blankImage,blankImage,blankImage,eiffeltower,1,,,,,,,,,,,,,,,,,,,,,,,,,,,,,,,,,,,,,,,,,0,47,47,0,1,,,,,,,,,,,,,,,,,,,,,,,,,,,,,,,,,,,,,,,,,,,,,,,,,,,,,,,
,,,,,61347b534314b736f635bc06,6682b41eeb79ab8215dff63d,6682bab15b6828720da50cc2,38,Male,English,2024-07-01_15h20.19.301,ABmemTask3,2023.2.3,Win32,98.03921569,,,,,,,,,,,,,,,,,,,,,,,,,,,,,,,944.5683,945.5646,945.5647,12,946.0615,948.2767,0.0019,948.4988,0.228,0.2278,0.2288,0.2159,0.2132,0.2203,0.221,0.2192,0.2218,0.2176,,948.499,949.395,right,0.8649,,949.3951,949.796,left,0.375,,66,0,98,949.7962,950.7908,,,,,,1_AB,L1_T1P_T2A,1,1,0,7,8,6,3,11,Spear,Did you see the Spear,0.12,0,resources/,pics/butterfly.jpg,pics/banjo.jpg,pics/chainsaw.jpg,pics/christmaslights.jpg,pics/dustpan.jpg,pics/shovel01.jpg,pics/spear02.jpg,pics/table01.jpg,pics/starfish01.jpg,pics/bowlingpin.jpg,pics/carrot01.jpg,blankImage,blankImage,blankImage,blankImage,blankImage,blankImage,spear02,39,,,,,,,,,,,,,,,,,,,,,,,,,,,,,,,,,,,,,,,,,0,48,48,38,1,,,,,,,,,,,,,,,,,,,,,,,,,,,,,,,,,,,,,,,,,,,,,,,,,,,,,,,
,,,,,61347b534314b736f635bc06,6682b41eeb79ab8215dff63d,6682bab15b6828720da50cc2,38,Male,English,2024-07-01_15h20.19.301,ABmemTask3,2023.2.3,Win32,98.03921569,,,,,,,,,,,,,,,,,,,,,,,,,,,,,,,950.8001,951.788,951.7883,12,952.2904,955.1507,0.0023,955.3676,0.2159,0.2226,0.2188,0.2199,0.2205,0.2196,0.2212,0.219,0.2207,0.2187,0.2211,955.3677,957.8466,right,2.4445,,957.8467,958.4742,right,0.6024,,68,0,100,958.4743,959.4637,,,,,,1_AB,L5_T1P_T2P,5,1,1,4,9,3,5,14,asparagus,Did you see the asparagus,0.12,0,resources/,pics/siamesecat.jpg,pics/starfish01.jpg,pics/aquarium.jpg,pics/asparagus.jpg,pics/salmon.jpg,pics/binoculars01b.jpg,pics/ball02.jpg,pics/calendar.jpg,pics/stapler10.jpg,pics/giraffe.jpg,pics/dromedary.jpg,pics/seaturtle.jpg,pics/sandbarshark.jpg,pics/shipinabottle.jpg,blankImage,blankImage,blankImage,asparagus,44,0.2194,0.221,,,,,,,,,,,,,,,,,,,,,,,,,,,,,,,,,,,,,,,0,49,49,43,1,,,,,,,,,,,,,,,,,,,,,,,,,,,,,,,,,,,,,,,,,,,,,,,,,,,,,,,
,,,,,61347b534314b736f635bc06,6682b41eeb79ab8215dff63d,6682bab15b6828720da50cc2,38,Male,English,2024-07-01_15h20.19.301,ABmemTask3,2023.2.3,Win32,98.03921569,,,,,,,,,,,,,,,,,,,,,,,,,,,,,,,959.4806,960.4909,960.4911,12,960.9844,963.4003,0.0017,963.62,0.219,0.2154,0.2297,0.222,0.2169,0.2127,0.2201,0.224,0.2142,0.2215,0.219,963.6201,964.656,right,1.0022,,964.6561,965.0512,left,0.3669,,70,0,102,965.0512,966.0484,,,,,,1_AB,L1_T1P_T2A,1,1,0,7,8,6,4,12,Tennis racket,Did you see the Tennis racket,0.12,0,resources/,pics/banjo.jpg,pics/leaf02a.jpg,pics/shovel01.jpg,pics/microscope.jpg,pics/cork02.jpg,pics/seagull.jpg,pics/tennisracket.jpg,pics/binder03b.jpg,pics/floortile02.jpg,pics/carrot01.jpg,pics/candle01.jpg,pics/siamesecat.jpg,blankImage,blankImage,blankImage,blankImage,blankImage,tennisracket,38,,,,,,,,,,,,,,,,,,,,,,,,,,,,,,,,,,,,,,,,,0,50,50,37,1,,,,,,,,,,,,,,,,,,,,,,,,,,,,,,,,,,,,,,,,,,,,,,,,,,,,,,,
,,,,,61347b534314b736f635bc06,6682b41eeb79ab8215dff63d,6682bab15b6828720da50cc2,38,Male,English,2024-07-01_15h20.19.301,ABmemTask3,2023.2.3,Win32,98.03921569,,,,,,,,,,,,,,,,,,,,,,,,,,,,,,,966.0491,967.0366,967.0367,12,967.5385,969.2717,0.0021,969.4928,0.2111,0.219,0.213,0.2169,0.2108,0.2212,0.2237,0.2159,,,,969.493,970.6499,left,1.1246,,970.65,971.7785,left,1.1036,,68,0,104,971.7786,972.7765,,,,,,1_AB,L1_T1P_T2P,1,1,1,4,5,3,4,9,Chefs hat,Did you see the Chefs hat,0.12,0,resources/,pics/sewingmachine01a.jpg,pics/icecube01.jpg,pics/fanblades.jpg,pics/chefshat.jpg,pics/stapler06.jpg,pics/ashtray01.jpg,pics/blender.jpg,pics/sandbarshark.jpg,pics/lock03a.jpg,blankImage,blankImage,blankImage,blankImage,blankImage,blankImage,blankImage,blankImage,chefshat,12,,,,,,,,,,,,,,,,,,,,,,,,,,,,,,,,,,,,,,,,,0,51,51,11,1,,,,,,,,,,,,,,,,,,,,,,,,,,,,,,,,,,,,,,,,,,,,,,,,,,,,,,,
,,,,,61347b534314b736f635bc06,6682b41eeb79ab8215dff63d,6682bab15b6828720da50cc2,38,Male,English,2024-07-01_15h20.19.301,ABmemTask3,2023.2.3,Win32,98.03921569,,,,,,,,,,,,,,,,,,,,,,,,,,,,,,,972.7851,973.7943,973.7943,12,974.294,976.9431,0.0015,977.1621,0.2168,0.2216,0.2195,0.2191,0.2206,0.2204,0.2209,0.2203,0.2293,0.2209,0.2181,977.1622,978.0568,right,0.8602,,978.057,978.506,left,0.4197,,68,0,106,978.5062,979.4938,,,,,,1_AB,L5_T1P_T2P,5,1,1,4,9,3,4,13,Forklift,Did you see the Forklift,0.12,0,resources/,pics/dustpan.jpg,pics/table01.jpg,pics/sink.jpg,pics/forklift.jpg,pics/dromedary.jpg,pics/proboscismonkey.jpg,pics/cymbal.jpg,pics/shovel01.jpg,pics/stapler10.jpg,pics/backpack01a.jpg,pics/binder03b.jpg,pics/banjo.jpg,pics/candleholder01.jpg,blankImage,blankImage,blankImage,blankImage,forklift,47,0.2205,,,,,,,,,,,,,,,,,,,,,,,,,,,,,,,,,,,,,,,,0,52,52,46,1,,,,,,,,,,,,,,,,,,,,,,,,,,,,,,,,,,,,,,,,,,,,,,,,,,,,,,,
,,,,,61347b534314b736f635bc06,6682b41eeb79ab8215dff63d,6682bab15b6828720da50cc2,38,Male,English,2024-07-01_15h20.19.301,ABmemTask3,2023.2.3,Win32,98.03921569,,,,,,,,,,,,,,,,,,,,,,,,,,,,,,,979.4946,980.4887,980.4887,12,980.989,983.4064,0.0016,983.6261,0.2214,0.2132,0.2204,0.2205,0.2178,0.2211,0.2202,0.2198,0.2212,0.2189,0.2219,983.6262,984.1707,right,0.5135,,984.1709,984.486,right,0.2882,,70,0,108,984.4862,985.4858,,,,,,1_AB,L1_T1P_T2P,1,1,1,7,8,6,4,12,Turnstile,Did you see the Turnstile,0.12,0,resources/,pics/golfball.jpg,pics/hose.jpg,pics/siamesecat.jpg,pics/binoculars01b.jpg,pics/hen.jpg,pics/candleholder01.jpg,pics/turnstile.jpg,pics/stapler03a.jpg,pics/giraffe.jpg,pics/pictureframe04.jpg,pics/sandbarshark.jpg,pics/spoon01.jpg,blankImage,blankImage,blankImage,blankImage,blankImage,turnstile,13,,,,,,,,,,,,,,,,,,,,,,,,,,,,,,,,,,,,,,,,,0,53,53,12,1,,,,,,,,,,,,,,,,,,,,,,,,,,,,,,,,,,,,,,,,,,,,,,,,,,,,,,,
,,,,,61347b534314b736f635bc06,6682b41eeb79ab8215dff63d,6682bab15b6828720da50cc2,38,Male,English,2024-07-01_15h20.19.301,ABmemTask3,2023.2.3,Win32,98.03921569,,,,,,,,,,,,,,,,,,,,,,,,,,,,,,,985.4869,986.4835,986.4836,12,986.9755,988.9685,0.0016,989.1862,0.2183,0.2203,0.2203,0.2198,0.2312,0.219,0.2212,0.2196,0.2223,,,989.1864,990.9182,left,1.6998,,990.9184,991.2376,right,0.2879,,70,0,110,991.2377,992.231,,,,,,1_AB,L1_T1P_T2P,1,1,1,4,5,3,5,10,vacuum,Did you see the vacuum,0.12,0,resources/,pics/birdhouse.jpg,pics/floortile02.jpg,pics/toiletpaper01a.jpg,pics/vacuumcleaner01.jpg,pics/stapler02.jpg,pics/spoon01.jpg,pics/banjo.jpg,pics/binder03b.jpg,pics/leaf02a.jpg,pics/aquarium.jpg,blankImage,blankImage,blankImage,blankImage,blankImage,blankImage,blankImage,vacuumcleaner01,5,,,,,,,,,,,,,,,,,,,,,,,,,,,,,,,,,,,,,,,,,0,54,54,4,1,,,,,,,,,,,,,,,,,,,,,,,,,,,,,,,,,,,,,,,,,,,,,,,,,,,,,,,
,,,,,61347b534314b736f635bc06,6682b41eeb79ab8215dff63d,6682bab15b6828720da50cc2,38,Male,English,2024-07-01_15h20.19.301,ABmemTask3,2023.2.3,Win32,98.03921569,,,,,,,,,,,,,,,,,,,,,,,,,,,,,,,992.2319,993.2233,993.2234,12,993.7173,997.0179,0.0019,997.2351,0.2168,0.2219,0.2198,0.2196,0.2193,0.2219,0.2231,0.2155,0.2196,0.2205,0.2206,997.2351,998.0646,right,0.8039,,998.0647,998.4655,left,0.3754,,72,0,112,998.4656,999.4629,,,,,,1_AB,L5_T1P_T2A,5,1,0,7,12,6,4,16,boat,Did you see the boat,0.12,0,resources/,pics/butterfly.jpg,pics/onion.jpg,pics/hose.jpg,pics/ball02.jpg,pics/ashtray01.jpg,pics/bowtie.jpg,pics/boat.jpg,pics/seaturtle.jpg,pics/blender.jpg,pics/zebra.jpg,pics/pictureframe04.jpg,pics/shovel01.jpg,pics/spoon01.jpg,pics/peanut01.jpg,pics/nutcracker01.jpg,pics/aquarium.jpg,blankImage,boat,60,0.2196,0.2194,0.22,,,,,,,,,,,,,,,,,,,,,,,,,,,,,,,,,,,,,,0,55,55,59,1,0.2212,,,,,,,,,,,,,,,,,,,,,,,,,,,,,,,,,,,,,,,,,,,,,,,,,,,,,,
,,,,,61347b534314b736f635bc06,6682b41eeb79ab8215dff63d,6682bab15b6828720da50cc2,38,Male,English,2024-07-01_15h20.19.301,ABmemTask3,2023.2.3,Win32,98.03921569,,,,,,,,,,,,,,,,,,,,,,,,,,,,,,,999.4638,1000.4575,1000.4576,12,1000.9518,1003.148,0.0018,1003.3671,0.2145,0.219,0.2206,0.2201,0.2221,0.2191,0.219,0.2201,0.22,0.2204,,1003.3672,1004.1364,right,0.735,,1004.1367,1004.5553,left,0.3948,,74,0,114,1004.5555,1005.543,,,,,,1_AB,L1_T1P_T2A,1,1,0,7,8,6,3,11,garlic,Did you see the garlic,0.12,0,resources/,pics/zebra.jpg,pics/banjo.jpg,pics/pencilsharpener02a.jpg,pics/football.jpg,pics/candle01.jpg,pics/footballhelmet.jpg,pics/garlic01a.jpg,pics/birdhouse.jpg,pics/peach01.jpg,pics/pictureframe04.jpg,pics/binder03b.jpg,blankImage,blankImage,blankImage,blankImage,blankImage,blankImage,garlic01a,33,,,,,,,,,,,,,,,,,,,,,,,,,,,,,,,,,,,,,,,,,0,56,56,32,1,,,,,,,,,,,,,,,,,,,,,,,,,,,,,,,,,,,,,,,,,,,,,,,,,,,,,,,
,,,,,61347b534314b736f635bc06,6682b41eeb79ab8215dff63d,6682bab15b6828720da50cc2,38,Male,English,2024-07-01_15h20.19.301,ABmemTask3,2023.2.3,Win32,98.03921569,,,,,,,,,,,,,,,,,,,,,,,,,,,,,,,1005.5437,1006.5337,1006.5338,12,1007.0215,1009.8991,0.0019,1010.119,0.2302,0.2278,0.2198,0.2169,0.2207,0.2217,0.2207,0.2182,0.2203,0.2195,0.2236,1010.1191,1011.6215,left,1.4689,,1011.6217,1012.6425,left,0.9904,,74,0,116,1012.6427,1013.6285,,,,,,1_AB,L5_T1P_T2A,5,1,0,4,9,3,5,14,Frisbee,Did you see the Frisbee,0.12,0,resources/,pics/giraffe.jpg,pics/christmaslights.jpg,pics/bowtie.jpg,pics/frisbee.jpg,pics/banjo.jpg,pics/calendar.jpg,pics/butterfly.jpg,pics/onion.jpg,pics/starfish01.jpg,pics/footballhelmet.jpg,pics/blender.jpg,pics/candleholder01.jpg,pics/hairdryer02a.jpg,pics/dromedary.jpg,blankImage,blankImage,blankImage,frisbee,58,0.2166,0.2201,,,,,,,,,,,,,,,,,,,,,,,,,,,,,,,,,,,,,,,0,57,57,57,1,,,,,,,,,,,,,,,,,,,,,,,,,,,,,,,,,,,,,,,,,,,,,,,,,,,,,,,
,,,,,61347b534314b736f635bc06,6682b41eeb79ab8215dff63d,6682bab15b6828720da50cc2,38,Male,English,2024-07-01_15h20.19.301,ABmemTask3,2023.2.3,Win32,98.03921569,,,,,,,,,,,,,,,,,,,,,,,,,,,,,,,1013.6422,1014.6414,1014.6414,12,1015.13,1017.1106,0.0016,1017.3307,0.2204,0.219,0.2197,0.2196,0.2218,0.2189,0.2205,0.2205,0.2188,,,1017.3308,1019.0104,left,1.6466,,1019.0106,1019.3525,right,0.3064,,76,0,118,1019.3526,1020.3489,,,,,,1_AB,L1_T1A_T2P,1,0,1,5,6,4,4,10,Rabbit,Did you see the Rabbit,0.12,0,resources/,pics/cannon.jpg,pics/proboscismonkey.jpg,pics/salmon.jpg,pics/nutcracker01.jpg,pics/seagull.jpg,pics/stapler02.jpg,pics/table01.jpg,pics/laptop01a.jpg,pics/necklace.jpg,pics/pencilsharpener02a.jpg,blankImage,blankImage,blankImage,blankImage,blankImage,blankImage,blankImage,jackrabbit,31,,,,,,,,,,,,,,,,,,,,,,,,,,,,,,,,,,,,,,,,,0,58,58,30,1,,,,,,,,,,,,,,,,,,,,,,,,,,,,,,,,,,,,,,,,,,,,,,,,,,,,,,,
