consent1.started,consent1.stopped,key_resp_8.keys,key_resp_8.rt,key_resp_8.duration,PROLIFIC_PID,STUDY_ID,SESSION_ID,age,sex,native language,date,expName,psychopyVersion,OS,frameRate,consent2.started,consent2.stopped,key_resp_9.keys,key_resp_9.rt,key_resp_9.duration,consent3.started,consent3.stopped,key_resp_10.keys,key_resp_10.rt,key_resp_10.duration,consent4.started,consent4.stopped,key_resp_11.keys,key_resp_11.rt,key_resp_11.duration,consent5.started,consent5.stopped,key_resp_12.keys,key_resp_12.rt,key_resp_12.duration,bonusInstruct.started,bonusInstruct.stopped,key_resp_14.keys,key_resp_14.rt,key_resp_14.duration,practiceInstruct.started,practiceInstruct.stopped,key_resp.keys,key_resp.rt,key_resp.duration,cueWord_2.started,cueWord_2.stopped,fix.started,frameTarget,fix.stopped,trial.started,img1Add,trial.stopped,img2Add,img3Add,img4Add,img5Add,img6Add,img7Add,img8Add,img9Add,img10Add,img11Add,img12Add,prompt1.started,prompt1.stopped,key_resp_2.keys,key_resp_2.rt,key_resp_2.duration,prompt2.started,prompt2.stopped,key_resp_3.keys,key_resp_3.rt,key_resp_3.duration,runningAcc_AB,runningTotal,runningCount_AB,feedback.started,feedback.stopped,trials.thisRepN,trials.thisTrialN,trials.thisN,trials.thisIndex,trials.ran,TrialType,CondType,Lag,T1_PA,T2_PA,T1Loc,T2Loc,PreDistractor,PostDistractor,TotalImg,cueWord,T1cue,StimLength,isi,PicFolder,Img1,Img2,Img3,Img4,Img5,Img6,Img7,Img8,Img9,Img10,Img11,Img12,Img13,Img14,Img15,Img16,Img17,T1_Identity,trialID,img13Add,img14Add,img15Add,ABfeedback.started,ABfeedback.stopped,key_resp_13.keys,key_resp_13.rt,key_resp_13.duration,MemPracticeInstruction.started,MemPracticeInstruction.stopped,key_resp_5.keys,key_resp_5.rt,key_resp_5.duration,memTrial.started,memTrial.stopped,Mem_runningPoints,key_resp_4.keys,key_resp_4.rt,key_resp_4.duration,memTrialFeedback.started,memTrialFeedback.stopped,trials_2.thisRepN,trials_2.thisTrialN,trials_2.thisN,trials_2.thisIndex,trials_2.ran,ABtrialID,priorLag,image,memFeedback.started,memFeedback.frame,memFeedback.ended,memFeedback.stopped,bonus.started,bonus.stopped,memoryBlockABInstruct.started,memoryBlockABInstruct.stopped,key_resp_6.keys,key_resp_6.rt,key_resp_6.duration,AB_block_1.thisRepN,AB_block_1.thisTrialN,AB_block_1.thisN,AB_block_1.thisIndex,AB_block_1.ran,img16Add,img17Add,AB_break1.started,AB_break1.stopped,PerceiveBlockABInstruct.started,PerceiveBlockABInstruct.stopped,key_resp_7.keys,key_resp_7.rt,key_resp_7.duration,AB_block_2.thisRepN,AB_block_2.thisTrialN,AB_block_2.thisN,AB_block_2.thisIndex,AB_block_2.ran,AB_break2.started,AB_break2.stopped,AB_block_3.thisRepN,AB_block_3.thisTrialN,AB_block_3.thisN,AB_block_3.thisIndex,AB_block_3.ran,AB_break3.started,AB_break3.stopped,AB_block_4.thisRepN,AB_block_4.thisTrialN,AB_block_4.thisN,AB_block_4.thisIndex,AB_block_4.ran,AB_break4.started,AB_break4.stopped,AB_block_5.thisRepN,AB_block_5.thisTrialN,AB_block_5.thisN,AB_block_5.thisIndex,AB_block_5.ran,AB_break5.started,AB_break5.stopped,AB_block_6.thisRepN,AB_block_6.thisTrialN,AB_block_6.thisN,AB_block_6.thisIndex,AB_block_6.ran,AB_break6.started,AB_break6.stopped,MemInstructionSURPRISE.started,MemInstructionSURPRISE.stopped,MemInstruction.started,MemInstruction.stopped,memBreak.started,memBreak.stopped,Mem_block_1.thisRepN,Mem_block_1.thisTrialN,Mem_block_1.thisN,Mem_block_1.thisIndex,Mem_block_1.ran
0.003,15.8411,space,15.8072,,65df4f8e2cd31667722789fa,6682b41eeb79ab8215dff63d,6682ba08975220980c89e726,18,female,English,2024-07-01_15h17.38.707,ABmemTask3,2023.2.3,Win32,59.88023952,,,,,,,,,,,,,,,,,,,,,,,,,,,,,,,,,,,,,,,,,,,,,,,,,,,,,,,,,,,,,,,,,,,,,,,,,,,,,,,,,,,,,,,,,,,,,,,,,,,,,,,,,,,,,,,,,,,,,,,,,,,,,,,,,,,,,,,,,,,,,,,,,,,,,,,,,,,,,,,,,,,,,,,,,,,,,,,,,,,,,,,,,,,,,,,,,,,,,,,,,,,
,,,,,65df4f8e2cd31667722789fa,6682b41eeb79ab8215dff63d,6682ba08975220980c89e726,18,female,English,2024-07-01_15h17.38.707,ABmemTask3,2023.2.3,Win32,59.88023952,15.8416,57.1415,space,41.2259,,,,,,,,,,,,,,,,,,,,,,,,,,,,,,,,,,,,,,,,,,,,,,,,,,,,,,,,,,,,,,,,,,,,,,,,,,,,,,,,,,,,,,,,,,,,,,,,,,,,,,,,,,,,,,,,,,,,,,,,,,,,,,,,,,,,,,,,,,,,,,,,,,,,,,,,,,,,,,,,,,,,,,,,,,,,,,,,,,,,,,,,,,,,,,,,,,,,,,,
,,,,,65df4f8e2cd31667722789fa,6682b41eeb79ab8215dff63d,6682ba08975220980c89e726,18,female,English,2024-07-01_15h17.38.707,ABmemTask3,2023.2.3,Win32,59.88023952,,,,,,57.1416,71.8585,space,14.6849,,,,,,,,,,,,,,,,,,,,,,,,,,,,,,,,,,,,,,,,,,,,,,,,,,,,,,,,,,,,,,,,,,,,,,,,,,,,,,,,,,,,,,,,,,,,,,,,,,,,,,,,,,,,,,,,,,,,,,,,,,,,,,,,,,,,,,,,,,,,,,,,,,,,,,,,,,,,,,,,,,,,,,,,,,,,,,,,,,,,,,,,,,,,,,,,,,
,,,,,65df4f8e2cd31667722789fa,6682b41eeb79ab8215dff63d,6682ba08975220980c89e726,18,female,English,2024-07-01_15h17.38.707,ABmemTask3,2023.2.3,Win32,59.88023952,,,,,,,,,,,71.8587,75.0574,space,3.1661,,,,,,,,,,,,,,,,,,,,,,,,,,,,,,,,,,,,,,,,,,,,,,,,,,,,,,,,,,,,,,,,,,,,,,,,,,,,,,,,,,,,,,,,,,,,,,,,,,,,,,,,,,,,,,,,,,,,,,,,,,,,,,,,,,,,,,,,,,,,,,,,,,,,,,,,,,,,,,,,,,,,,,,,,,,,,,,,,,,,,,,,,,,,,
,,,,,65df4f8e2cd31667722789fa,6682b41eeb79ab8215dff63d,6682ba08975220980c89e726,18,female,English,2024-07-01_15h17.38.707,ABmemTask3,2023.2.3,Win32,59.88023952,,,,,,,,,,,,,,,,75.0576,77.6903,space,2.5993,,,,,,,,,,,,,,,,,,,,,,,,,,,,,,,,,,,,,,,,,,,,,,,,,,,,,,,,,,,,,,,,,,,,,,,,,,,,,,,,,,,,,,,,,,,,,,,,,,,,,,,,,,,,,,,,,,,,,,,,,,,,,,,,,,,,,,,,,,,,,,,,,,,,,,,,,,,,,,,,,,,,,,,,,,,,,,,,,,,,,,,,
,,,,,65df4f8e2cd31667722789fa,6682b41eeb79ab8215dff63d,6682ba08975220980c89e726,18,female,English,2024-07-01_15h17.38.707,ABmemTask3,2023.2.3,Win32,59.88023952,,,,,,,,,,,,,,,,,,,,,77.6904,95.16,space,17.4276,,,,,,,,,,,,,,,,,,,,,,,,,,,,,,,,,,,,,,,,,,,,,,,,,,,,,,,,,,,,,,,,,,,,,,,,,,,,,,,,,,,,,,,,,,,,,,,,,,,,,,,,,,,,,,,,,,,,,,,,,,,,,,,,,,,,,,,,,,,,,,,,,,,,,,,,,,,,,,,,,,,,,,,,,,,,,,,,,,,
,,,,,65df4f8e2cd31667722789fa,6682b41eeb79ab8215dff63d,6682ba08975220980c89e726,18,female,English,2024-07-01_15h17.38.707,ABmemTask3,2023.2.3,Win32,59.88023952,,,,,,,,,,,,,,,,,,,,,,,,,,95.1603,120.6766,space,25.4953,,,,,,,,,,,,,,,,,,,,,,,,,,,,,,,,,,,,,,,,,,,,,,,,,,,,,,,,,,,,,,,,,,,,,,,,,,,,,,,,,,,,,,,,,,,,,,,,,,,,,,,,,,,,,,,,,,,,,,,,,,,,,,,,,,,,,,,,,,,,,,,,,,,,,,,,,,,,,,,,,,,,,,,,,,,,,,
,,,,,65df4f8e2cd31667722789fa,6682b41eeb79ab8215dff63d,6682ba08975220980c89e726,18,female,English,2024-07-01_15h17.38.707,ABmemTask3,2023.2.3,Win32,59.88023952,,,,,,,,,,,,,,,,,,,,,,,,,,,,,,,120.7069,121.7075,121.708,15,122.2076,124.9579,0.0049,125.207,0.246,0.2492,0.2495,0.2503,0.2502,0.2501,0.2499,0.2495,0.2523,0.249,0.2499,125.2084,127.2907,right,2.0549,,127.2911,129.4911,left,2.1791,,2,0,2,129.4914,130.4908,0,0,0,0,1,prac_AB,L1_T1P_T2A,1,1,0,6,7,5,5,12,cat,Did you see the cat,0.25,0,resources/,pics/shipinabottle.jpg,pics/table01.jpg,pics/dustpan.jpg,pics/golfball.jpg,pics/giraffe.jpg,pics/cat.jpg,pics/peanut01.jpg,pics/pictureframe04.jpg,pics/fanblades.jpg,pics/laptop01a.jpg,pics/ball02.jpg,pics/blender.jpg,blankImage,blankImage,blankImage,blankImage,blankImage,cat,8,,,,,,,,,,,,,,,,,,,,,,,,,,,,,,,,,,,,,,,,,,,,,,,,,,,,,,,,,,,,,,,,,,,,,,,,,,,,,,,,,,,,,,,,,,,,,,,,,,,,
,,,,,65df4f8e2cd31667722789fa,6682b41eeb79ab8215dff63d,6682ba08975220980c89e726,18,female,English,2024-07-01_15h17.38.707,ABmemTask3,2023.2.3,Win32,59.88023952,,,,,,,,,,,,,,,,,,,,,,,,,,,,,,,130.4966,131.4905,131.4906,14,131.9903,134.0908,0.0007,134.3239,0.2346,0.2338,0.2323,0.2328,0.2336,0.2334,0.2333,0.2333,0.2333,,,134.324,135.0907,right,0.7458,,135.0909,135.7404,right,0.6337,,4,0,4,135.7404,136.7401,0,1,1,1,1,prac_AB,L1_T1P_T2P,1,1,1,5,6,4,4,10,tree,Did you see the tree,0.24,0,resources/,pics/carrot01.jpg,pics/hammerheadshark.jpg,pics/kangaroo.jpg,pics/proboscismonkey.jpg,pics/tree.jpg,pics/stapler07.jpg,pics/siamesecat.jpg,pics/ball02.jpg,pics/pictureframe04.jpg,pics/mummy.jpg,blankImage,blankImage,blankImage,blankImage,blankImage,blankImage,blankImage,tree,1,,,,,,,,,,,,,,,,,,,,,,,,,,,,,,,,,,,,,,,,,,,,,,,,,,,,,,,,,,,,,,,,,,,,,,,,,,,,,,,,,,,,,,,,,,,,,,,,,,,,
,,,,,65df4f8e2cd31667722789fa,6682b41eeb79ab8215dff63d,6682ba08975220980c89e726,18,female,English,2024-07-01_15h17.38.707,ABmemTask3,2023.2.3,Win32,59.88023952,,,,,,,,,,,,,,,,,,,,,,,,,,,,,,,136.7482,137.7403,137.7403,14,138.2407,140.8075,0.0024,141.0403,0.2315,0.2334,0.2335,0.2333,0.233,0.2335,0.2331,0.2333,0.2331,0.2336,0.2335,141.0404,142.0237,left,0.9717,,142.0238,142.6577,right,0.628,,6,0,6,142.6578,143.6571,0,2,2,2,1,prac_AB,L1_T1A_T2P,1,0,1,7,8,6,4,12,grapes,Did you see the grapes,0.23,0,resources/,pics/sailboat.jpg,pics/butterfly.jpg,pics/giraffe.jpg,pics/spoon01.jpg,pics/hose.jpg,pics/nutcracker01.jpg,pics/table01.jpg,pics/stapler13.jpg,pics/pencil01.jpg,pics/football.jpg,pics/triangle.jpg,pics/hairdryer02a.jpg,blankImage,blankImage,blankImage,blankImage,blankImage,grape01,6,,,,,,,,,,,,,,,,,,,,,,,,,,,,,,,,,,,,,,,,,,,,,,,,,,,,,,,,,,,,,,,,,,,,,,,,,,,,,,,,,,,,,,,,,,,,,,,,,,,,
,,,,,65df4f8e2cd31667722789fa,6682b41eeb79ab8215dff63d,6682ba08975220980c89e726,18,female,English,2024-07-01_15h17.38.707,ABmemTask3,2023.2.3,Win32,59.88023952,,,,,,,,,,,,,,,,,,,,,,,,,,,,,,,143.6577,144.6571,144.6571,13,145.1569,148.1908,0.0009,148.4071,0.2168,0.2167,0.2171,0.2162,0.2167,0.2166,0.2165,0.2168,0.217,0.2166,0.2165,148.4073,148.9235,right,0.5044,,148.9235,149.3408,right,0.404,,8,0,8,149.3408,150.3407,0,3,3,3,1,prac_AB,L5_T1P_T2P,5,1,1,7,12,6,3,15,Human skull,Did you see the Human skull,0.22,0,resources/,pics/peach01.jpg,pics/proboscismonkey.jpg,pics/hose.jpg,pics/laptop01a.jpg,pics/hammerheadshark.jpg,pics/nutcracker01.jpg,pics/humanskull.jpg,pics/table01.jpg,pics/icecube01.jpg,pics/boot02b.jpg,pics/calendar.jpg,pics/stapler03a.jpg,pics/ashtray01.jpg,pics/giraffe.jpg,pics/dromedary.jpg,blankImage,blankImage,humanskull,12,0.2164,0.2168,0.2168,,,,,,,,,,,,,,,,,,,,,,,,,,,,,,,,,,,,,,,,,,,,,,,,,,,,,,,,,,,,,,,,,,,,,,,,,,,,,,,,,,,,,,,,,,,,,,,,,
,,,,,65df4f8e2cd31667722789fa,6682b41eeb79ab8215dff63d,6682ba08975220980c89e726,18,female,English,2024-07-01_15h17.38.707,ABmemTask3,2023.2.3,Win32,59.88023952,,,,,,,,,,,,,,,,,,,,,,,,,,,,,,,150.3415,151.3403,151.3405,13,151.8408,154.0107,0.0019,154.2245,0.2195,0.2128,0.2169,0.2166,0.2168,0.2162,0.2165,0.2178,0.2161,0.2191,,154.2246,155.391,left,1.1369,,155.3912,155.9244,right,0.5013,,10,0,10,155.9245,156.924,0,4,4,4,1,prac_AB,L1_T1A_T2P,1,0,1,7,8,6,3,11,dog,Did you see the dog,0.21,0,resources/,pics/ball02.jpg,pics/binder03b.jpg,pics/dromedary.jpg,pics/shipinabottle.jpg,pics/proboscismonkey.jpg,pics/laptop01a.jpg,pics/chainsaw.jpg,pics/stapler13.jpg,pics/nutcracker01.jpg,pics/carrot01.jpg,pics/calendar.jpg,blankImage,blankImage,blankImage,blankImage,blankImage,blankImage,saintbernard,7,,,,,,,,,,,,,,,,,,,,,,,,,,,,,,,,,,,,,,,,,,,,,,,,,,,,,,,,,,,,,,,,,,,,,,,,,,,,,,,,,,,,,,,,,,,,,,,,,,,,
,,,,,65df4f8e2cd31667722789fa,6682b41eeb79ab8215dff63d,6682ba08975220980c89e726,18,female,English,2024-07-01_15h17.38.707,ABmemTask3,2023.2.3,Win32,59.88023952,,,,,,,,,,,,,,,,,,,,,,,,,,,,,,,156.939,157.9411,157.9412,12,158.4405,161.2441,0.0019,161.4446,0.1992,0.2037,0.1967,0.1999,0.1999,0.2,0.1999,0.2,0.1999,0.2,0.2001,161.4447,162.0568,right,0.5932,,162.0569,162.5237,right,0.4344,,12,0,12,162.524,163.5235,0,5,5,5,1,prac_AB,L5_T1P_T2P,5,1,1,5,10,4,5,15,grater,Did you see the grater,0.2,0,resources/,pics/pencil01.jpg,pics/laptop01a.jpg,pics/hammerheadshark.jpg,pics/cork02.jpg,pics/grater01a.jpg,pics/shipinabottle.jpg,pics/binder03b.jpg,pics/dromedary.jpg,pics/pictureframe04.jpg,pics/stapler04b.jpg,pics/fanblades.jpg,pics/aquarium.jpg,pics/hairdryer02a.jpg,pics/lightswitch01.jpg,pics/piggybank.jpg,blankImage,blankImage,grater01a,11,0.1999,0.2005,0.2022,,,,,,,,,,,,,,,,,,,,,,,,,,,,,,,,,,,,,,,,,,,,,,,,,,,,,,,,,,,,,,,,,,,,,,,,,,,,,,,,,,,,,,,,,,,,,,,,,
,,,,,65df4f8e2cd31667722789fa,6682b41eeb79ab8215dff63d,6682ba08975220980c89e726,18,female,English,2024-07-01_15h17.38.707,ABmemTask3,2023.2.3,Win32,59.88023952,,,,,,,,,,,,,,,,,,,,,,,,,,,,,,,163.5244,164.5239,164.5241,11,165.0241,166.4912,0.0015,166.6742,0.1857,0.1807,0.1829,0.1833,0.1835,0.1832,0.1834,0.1832,,,,166.6745,167.8073,right,1.1083,,167.8075,168.4911,left,0.6547,,14,0,14,168.4913,169.491,0,6,6,6,1,prac_AB,L1_T1P_T2A,1,1,0,4,5,3,4,9,chalk,Did you see the chalk,0.19,0,resources/,pics/necklace.jpg,pics/starfish01.jpg,pics/safetypin.jpg,pics/chalk.jpg,pics/candleholder01.jpg,pics/bowtie.jpg,pics/match.jpg,pics/candle01.jpg,pics/pencilsharpener02a.jpg,blankImage,blankImage,blankImage,blankImage,blankImage,blankImage,blankImage,blankImage,chalk,9,,,,,,,,,,,,,,,,,,,,,,,,,,,,,,,,,,,,,,,,,,,,,,,,,,,,,,,,,,,,,,,,,,,,,,,,,,,,,,,,,,,,,,,,,,,,,,,,,,,,
,,,,,65df4f8e2cd31667722789fa,6682b41eeb79ab8215dff63d,6682ba08975220980c89e726,18,female,English,2024-07-01_15h17.38.707,ABmemTask3,2023.2.3,Win32,59.88023952,,,,,,,,,,,,,,,,,,,,,,,,,,,,,,,169.5067,170.507,170.5071,11,171.0072,172.658,0.0018,172.8424,0.1826,0.1838,0.1834,0.1832,0.1834,0.1836,0.1831,0.183,0.1835,,,172.8425,173.5411,right,0.6711,,173.5412,173.958,right,0.3853,,16,0,16,173.9581,174.9574,0,7,7,7,1,prac_AB,L1_T1P_T2P,1,1,1,5,6,4,4,10,pants,Did you see the pants,0.18,0,resources/,pics/kangaroo.jpg,pics/safetypin.jpg,pics/salmon.jpg,pics/sandbarshark.jpg,pics/pants.jpg,pics/stapler03a.jpg,pics/sink.jpg,pics/calendar.jpg,pics/butterfly.jpg,pics/fanblades.jpg,blankImage,blankImage,blankImage,blankImage,blankImage,blankImage,blankImage,pants,2,,,,,,,,,,,,,,,,,,,,,,,,,,,,,,,,,,,,,,,,,,,,,,,,,,,,,,,,,,,,,,,,,,,,,,,,,,,,,,,,,,,,,,,,,,,,,,,,,,,,
,,,,,65df4f8e2cd31667722789fa,6682b41eeb79ab8215dff63d,6682ba08975220980c89e726,18,female,English,2024-07-01_15h17.38.707,ABmemTask3,2023.2.3,Win32,59.88023952,,,,,,,,,,,,,,,,,,,,,,,,,,,,,,,174.9671,175.9569,175.9569,10,176.4575,178.7913,0.0018,178.9571,0.1656,0.167,0.1665,0.1668,0.1664,0.1668,0.1668,0.166,0.1667,0.1674,0.1664,178.9575,179.8409,left,0.8573,,179.8411,180.3572,right,0.4935,,18,0,18,180.3574,181.3576,0,8,8,8,1,prac_AB,L5_T1A_T2P,5,0,1,7,12,6,3,15,shirt,Did you see the shirt,0.17,0,resources/,pics/banjo.jpg,pics/chainsaw.jpg,pics/sailboat.jpg,pics/shipinabottle.jpg,pics/lightswitch01.jpg,pics/starfish01.jpg,pics/hen.jpg,pics/ball02.jpg,pics/bowlingpin.jpg,pics/hammerheadshark.jpg,pics/footballhelmet.jpg,pics/stapler10.jpg,pics/laptop01a.jpg,pics/cannon.jpg,pics/golfball.jpg,blankImage,blankImage,shirt02,13,0.1665,0.1666,0.1668,,,,,,,,,,,,,,,,,,,,,,,,,,,,,,,,,,,,,,,,,,,,,,,,,,,,,,,,,,,,,,,,,,,,,,,,,,,,,,,,,,,,,,,,,,,,,,,,,
,,,,,65df4f8e2cd31667722789fa,6682b41eeb79ab8215dff63d,6682ba08975220980c89e726,18,female,English,2024-07-01_15h17.38.707,ABmemTask3,2023.2.3,Win32,59.88023952,,,,,,,,,,,,,,,,,,,,,,,,,,,,,,,181.3585,182.3589,182.3589,10,182.8576,184.5244,0.0016,184.6917,0.166,0.1663,0.1668,0.1673,0.1662,0.1657,0.167,0.1675,0.1659,0.1669,,184.6919,185.5079,right,0.7845,,185.508,185.8925,right,0.3643,,20,0,20,185.8926,186.8904,0,9,9,9,1,prac_AB,L1_T1P_T2P,1,1,1,7,8,6,3,11,tongs,Did you see the tongs,0.16,0,resources/,pics/sewingmachine01a.jpg,pics/shovel01.jpg,pics/football.jpg,pics/hen.jpg,pics/banjo.jpg,pics/zebra.jpg,pics/tongs01b.jpg,pics/stapler11.jpg,pics/shipinabottle.jpg,pics/match.jpg,pics/candle01.jpg,blankImage,blankImage,blankImage,blankImage,blankImage,blankImage,tongs01b,5,,,,,,,,,,,,,,,,,,,,,,,,,,,,,,,,,,,,,,,,,,,,,,,,,,,,,,,,,,,,,,,,,,,,,,,,,,,,,,,,,,,,,,,,,,,,,,,,,,,,
,,,,,65df4f8e2cd31667722789fa,6682b41eeb79ab8215dff63d,6682ba08975220980c89e726,18,female,English,2024-07-01_15h17.38.707,ABmemTask3,2023.2.3,Win32,59.88023952,,,,,,,,,,,,,,,,,,,,,,,,,,,,,,,186.8982,187.891,187.8912,9,188.3904,190.1253,0.0012,190.2739,0.1495,0.1539,0.1468,0.2352,0.1478,0.1496,0.1496,0.1502,0.1508,0.1495,0.1511,190.2741,191.6409,left,1.3414,,191.641,192.0291,left,0.3678,,22,0,22,192.0291,193.0111,0,10,10,10,1,prac_AB,L1_T1A_T2A,1,0,0,7,8,6,4,12,camera,Did you see the camera,0.15,0,resources/,pics/lightswitch01.jpg,pics/table01.jpg,pics/aquarium.jpg,pics/boot02b.jpg,pics/butterfly.jpg,pics/chainsaw.jpg,pics/binoculars01b.jpg,pics/giraffe.jpg,pics/triangle.jpg,pics/microscope.jpg,pics/mummy.jpg,pics/icecube01.jpg,blankImage,blankImage,blankImage,blankImage,blankImage,camera01a,10,,,,,,,,,,,,,,,,,,,,,,,,,,,,,,,,,,,,,,,,,,,,,,,,,,,,,,,,,,,,,,,,,,,,,,,,,,,,,,,,,,,,,,,,,,,,,,,,,,,,
,,,,,65df4f8e2cd31667722789fa,6682b41eeb79ab8215dff63d,6682ba08975220980c89e726,18,female,English,2024-07-01_15h17.38.707,ABmemTask3,2023.2.3,Win32,59.88023952,,,,,,,,,,,,,,,,,,,,,,,,,,,,,,,193.0237,194.0278,194.0278,8,194.5238,195.7246,0.0014,195.8575,0.1328,0.1335,0.1334,0.1332,0.1332,0.1334,0.1332,0.134,0.1332,,,195.8577,196.6746,right,0.7863,,196.6747,197.1405,right,0.4437,,24,0,24,197.1406,198.1407,0,11,11,11,1,prac_AB,L1_T1P_T2P,1,1,1,6,7,5,3,10,shorts,Did you see the shorts,0.14,0,resources/,pics/snowshoe.jpg,pics/chainsaw.jpg,pics/sailboat.jpg,pics/ball02.jpg,pics/candleholder01.jpg,pics/shorts01.jpg,pics/stapler07.jpg,pics/peach01.jpg,pics/proboscismonkey.jpg,pics/hen.jpg,blankImage,blankImage,blankImage,blankImage,blankImage,blankImage,blankImage,shorts01,4,,,,,,,,,,,,,,,,,,,,,,,,,,,,,,,,,,,,,,,,,,,,,,,,,,,,,,,,,,,,,,,,,,,,,,,,,,,,,,,,,,,,,,,,,,,,,,,,,,,,
,,,,,65df4f8e2cd31667722789fa,6682b41eeb79ab8215dff63d,6682ba08975220980c89e726,18,female,English,2024-07-01_15h17.38.707,ABmemTask3,2023.2.3,Win32,59.88023952,,,,,,,,,,,,,,,,,,,,,,,,,,,,,,,198.1417,199.1408,199.1409,8,199.6415,201.2413,0.0008,201.374,0.1327,0.1332,0.1336,0.1333,0.133,0.1336,0.1333,0.1333,0.133,0.1336,0.1334,201.3742,201.9745,right,0.568,,201.9746,202.2742,right,0.2707,,22,0,26,202.2743,203.274,0,12,12,12,1,prac_AB,L5_T1P_T2A,5,1,0,5,10,4,3,13,fish,Did you see the fish,0.13,0,resources/,pics/football.jpg,pics/safetypin.jpg,pics/shovel01.jpg,pics/sink.jpg,pics/holdfast.jpg,pics/nutcracker01.jpg,pics/starfish01.jpg,pics/onion.jpg,pics/footballhelmet.jpg,pics/boot02b.jpg,pics/sewingmachine01a.jpg,pics/kangaroo.jpg,pics/banjo.jpg,blankImage,blankImage,blankImage,blankImage,holdfast,14,0.1329,,,,,,,,,,,,,,,,,,,,,,,,,,,,,,,,,,,,,,,,,,,,,,,,,,,,,,,,,,,,,,,,,,,,,,,,,,,,,,,,,,,,,,,,,,,,,,,,,,,
,,,,,65df4f8e2cd31667722789fa,6682b41eeb79ab8215dff63d,6682ba08975220980c89e726,18,female,English,2024-07-01_15h17.38.707,ABmemTask3,2023.2.3,Win32,59.88023952,,,,,,,,,,,,,,,,,,,,,,,,,,,,,,,203.2747,204.2743,204.2745,7,204.7749,205.8249,0.0007,205.9406,0.1162,0.1206,0.1128,0.1201,0.1131,0.1166,0.1164,0.1171,0.1167,,,205.9407,207.0118,right,1.0662,,207.0118,207.4411,left,0.401,,22,0,28,207.4413,208.4407,0,13,13,13,1,prac_AB,L1_T1P_T2P,1,1,1,5,6,4,4,10,fish,Did you see the fish,0.12,0,resources/,pics/butterfly.jpg,pics/banjo.jpg,pics/leaf02a.jpg,pics/dustpan.jpg,pics/sturgeon.jpg,pics/stapler02.jpg,pics/necklace.jpg,pics/shovel01.jpg,pics/starfish01.jpg,pics/chainsaw.jpg,blankImage,blankImage,blankImage,blankImage,blankImage,blankImage,blankImage,sturgeon,3,,,,,,,,,,,,,,,,,,,,,,,,,,,,,,,,,,,,,,,,,,,,,,,,,,,,,,,,,,,,,,,,,,,,,,,,,,,,,,,,,,,,,,,,,,,,,,,,,,,,
,,,,,65df4f8e2cd31667722789fa,6682b41eeb79ab8215dff63d,6682ba08975220980c89e726,18,female,English,2024-07-01_15h17.38.707,ABmemTask3,2023.2.3,Win32,59.88023952,,,,,,,,,,,,,,,,,,,,,,,,,,,,,,,,,,,,,,,,,,,,,,,,,,,,,,,,,,,,,,,,,,,,,,,,,,,,,,,,,,,,,,,,,,,,,,,,,,,,,,,,,,,208.442,211.0922,space,2.6209,,,,,,,,,,,,,,,,,,,,,,,,,,,,,,,,,,,,,,,,,,,,,,,,,,,,,,,,,,,,,,,,,,,,,,,,,,,,,,,,,,,,,,,,,,,,,
,,,,,65df4f8e2cd31667722789fa,6682b41eeb79ab8215dff63d,6682ba08975220980c89e726,18,female,English,2024-07-01_15h17.38.707,ABmemTask3,2023.2.3,Win32,59.88023952,,,,,,,,,,,,,,,,,,,,,,,,,,,,,,,,,,,,,,,,,,,,,,,,,,,,,,,,,,,,,,,,,,,,,,,,,,,,,,,,,,,,,,,,,,,,,,,,,,,,,,,,,,,211.1116,211.1189,,,,,,,,,,,,,,,,,,,,,,,,,,,,,,,,,,,,,,,,,,,,,,,,,,,,,,,,,,,,,,,,,,,,,,,,,,,,,,,,,,,,,,,,,,,,,,,
,,,,,65df4f8e2cd31667722789fa,6682b41eeb79ab8215dff63d,6682ba08975220980c89e726,18,female,English,2024-07-01_15h17.38.707,ABmemTask3,2023.2.3,Win32,59.88023952,,,,,,,,,,,,,,,,,,,,,,,,,,,,,,,,,,,,,,,,,,,,,,,,,,,,,,,,,,,,,,,,,,,,,,,,,,,,,,,,,,,,,,,,,,,,,,,,,,,,,,,,,,,211.1244,211.1245,,,,,,,,,,,,,,,,,,,,,,,,,,,,,,,,,,,,,,,,,,,,,,,,,,,,,,,,,,,,,,,,,,,,,,,,,,,,,,,,,,,,,,,,,,,,,,,
,,,,,65df4f8e2cd31667722789fa,6682b41eeb79ab8215dff63d,6682ba08975220980c89e726,18,female,English,2024-07-01_15h17.38.707,ABmemTask3,2023.2.3,Win32,59.88023952,,,,,,,,,,,,,,,,,,,,,,,,,,,,,,,,,,,,,,,,,,,,,,,,,,,,,,,,,,,,,,,,,,,,,,,,,,,,,,,,,,,,,,,,,,,,,,,,,,,,,,,,,,,211.1283,211.1286,,,,,,,,,,,,,,,,,,,,,,,,,,,,,,,,,,,,,,,,,,,,,,,,,,,,,,,,,,,,,,,,,,,,,,,,,,,,,,,,,,,,,,,,,,,,,,,
,,,,,65df4f8e2cd31667722789fa,6682b41eeb79ab8215dff63d,6682ba08975220980c89e726,18,female,English,2024-07-01_15h17.38.707,ABmemTask3,2023.2.3,Win32,59.88023952,,,,,,,,,,,,,,,,,,,,,,,,,,,,,,,,,,,,,,,,,,,,,,,,,,,,,,,,,,,,,,,,,,,,,,,,,,,,,,,,,,,,,,,,,,,,,,,,,,,,,,,,,,,211.1332,211.1333,,,,,,,,,,,,,,,,,,,,,,,,,,,,,,,,,,,,,,,,,,,,,,,,,,,,,,,,,,,,,,,,,,,,,,,,,,,,,,,,,,,,,,,,,,,,,,,
,,,,,65df4f8e2cd31667722789fa,6682b41eeb79ab8215dff63d,6682ba08975220980c89e726,18,female,English,2024-07-01_15h17.38.707,ABmemTask3,2023.2.3,Win32,59.88023952,,,,,,,,,,,,,,,,,,,,,,,,,,,,,,,,,,,,,,,,,,,,,,,,,,,,,,,,,,,,,,,,,,,,,,,,,,,,,,,,,,,,,,,,,,,,,,,,,,,,,,,,,,,211.1382,211.1383,,,,,,,,,,,,,,,,,,,,,,,,,,,,,,,,,,,,,,,,,,,,,,,,,,,,,,,,,,,,,,,,,,,,,,,,,,,,,,,,,,,,,,,,,,,,,,,
,,,,,65df4f8e2cd31667722789fa,6682b41eeb79ab8215dff63d,6682ba08975220980c89e726,18,female,English,2024-07-01_15h17.38.707,ABmemTask3,2023.2.3,Win32,59.88023952,,,,,,,,,,,,,,,,,,,,,,,,,,,,,,,,,,,,,,,,,,,,,,,,,,,,,,,,,,,,,,,,,,,,,,,,,,,,,,,,,,,,,,,,,,,,,,,,,,,,,,,,,,,211.1415,211.1417,,,,,,,,,,,,,,,,,,,,,,,,,,,,,,,,,,,,,,,,,,,,,,,,,,,,,,,,,,,,,,,,,,,,,,,,,,,,,,,,,,,,,,,,,,,,,,,
,,,,,65df4f8e2cd31667722789fa,6682b41eeb79ab8215dff63d,6682ba08975220980c89e726,18,female,English,2024-07-01_15h17.38.707,ABmemTask3,2023.2.3,Win32,59.88023952,,,,,,,,,,,,,,,,,,,,,,,,,,,,,,,,,,,,,,,,,,,,,,,,,,,,,,,,,,,,,,,,,,,,,,,,,,,,,,,,,,,,,,,,,,,,,,,,,,,,,,,,,,,211.1438,211.1439,,,,,,,,,,,,,,,,,,,,,,,,,,,,,,,,,,,,,,,,,,,,,,,,,,,,,,,,,,,,,,,,,,,,,,,,,,,,,,,,,,,,,,,,,,,,,,,
,,,,,65df4f8e2cd31667722789fa,6682b41eeb79ab8215dff63d,6682ba08975220980c89e726,18,female,English,2024-07-01_15h17.38.707,ABmemTask3,2023.2.3,Win32,59.88023952,,,,,,,,,,,,,,,,,,,,,,,,,,,,,,,,,,,,,,,,,,,,,,,,,,,,,,,,,,,,,,,,,,,,,,,,,,,,,,,,,,,,,,,,,,,,,,,,,,,,,,,,,,,211.1475,211.1476,,,,,,,,,,,,,,,,,,,,,,,,,,,,,,,,,,,,,,,,,,,,,,,,,,,,,,,,,,,,,,,,,,,,,,,,,,,,,,,,,,,,,,,,,,,,,,,
,,,,,65df4f8e2cd31667722789fa,6682b41eeb79ab8215dff63d,6682ba08975220980c89e726,18,female,English,2024-07-01_15h17.38.707,ABmemTask3,2023.2.3,Win32,59.88023952,,,,,,,,,,,,,,,,,,,,,,,,,,,,,,,,,,,,,,,,,,,,,,,,,,,,,,,,,,,,,,,,,,,,,,,,,,,,,,,,,,,,,,,,,,,,,,,,,,,,,,,,,,,211.15,211.1501,,,,,,,,,,,,,,,,,,,,,,,,,,,,,,,,,,,,,,,,,,,,,,,,,,,,,,,,,,,,,,,,,,,,,,,,,,,,,,,,,,,,,,,,,,,,,,,
,,,,,65df4f8e2cd31667722789fa,6682b41eeb79ab8215dff63d,6682ba08975220980c89e726,18,female,English,2024-07-01_15h17.38.707,ABmemTask3,2023.2.3,Win32,59.88023952,,,,,,,,,,,,,,,,,,,,,,,,,,,,,,,,,,,,,,,,,,,,,,,,,,,,,,,,,,,,,,,,,,,,,,,,,,,,,,,,,,,,,,,,,,,,,,,,,,,,,,,,,,,211.1534,211.1535,,,,,,,,,,,,,,,,,,,,,,,,,,,,,,,,,,,,,,,,,,,,,,,,,,,,,,,,,,,,,,,,,,,,,,,,,,,,,,,,,,,,,,,,,,,,,,,
,,,,,65df4f8e2cd31667722789fa,6682b41eeb79ab8215dff63d,6682ba08975220980c89e726,18,female,English,2024-07-01_15h17.38.707,ABmemTask3,2023.2.3,Win32,59.88023952,,,,,,,,,,,,,,,,,,,,,,,,,,,,,,,,,,,,,,,,,,,,,,,,,,,,,,,,,,,,,,,,,,,,,,,,,,,,,,,,,,,,,,,,,,,,,,,,,,,,,,,,,,,211.1567,211.1568,,,,,,,,,,,,,,,,,,,,,,,,,,,,,,,,,,,,,,,,,,,,,,,,,,,,,,,,,,,,,,,,,,,,,,,,,,,,,,,,,,,,,,,,,,,,,,,
,,,,,65df4f8e2cd31667722789fa,6682b41eeb79ab8215dff63d,6682ba08975220980c89e726,18,female,English,2024-07-01_15h17.38.707,ABmemTask3,2023.2.3,Win32,59.88023952,,,,,,,,,,,,,,,,,,,,,,,,,,,,,,,,,,,,,,,,,,,,,,,,,,,,,,,,,,,,,,,,,,,,,,,,,,,,,,,,,,,,,,,,,,,,,,,,,,,,,,,,,,,211.1601,211.1601,,,,,,,,,,,,,,,,,,,,,,,,,,,,,,,,,,,,,,,,,,,,,,,,,,,,,,,,,,,,,,,,,,,,,,,,,,,,,,,,,,,,,,,,,,,,,,,
,,,,,65df4f8e2cd31667722789fa,6682b41eeb79ab8215dff63d,6682ba08975220980c89e726,18,female,English,2024-07-01_15h17.38.707,ABmemTask3,2023.2.3,Win32,59.88023952,,,,,,,,,,,,,,,,,,,,,,,,,,,,,,,,,,,,,,,,,,,,,,,,,,,,,,,,,,,,,,,,,,,,,,,,,,,,,,,,,,,,,,,,,,,,,,,,,,,,,,,,,,,211.162,211.1621,,,,,,,,,,,,,,,,,,,,,,,,,,,,,,,,,,,,,,,,,,,,,,,,,,,,,,,,,,,,,,,,,,,,,,,,,,,,,,,,,,,,,,,,,,,,,,,
,,,,,65df4f8e2cd31667722789fa,6682b41eeb79ab8215dff63d,6682ba08975220980c89e726,18,female,English,2024-07-01_15h17.38.707,ABmemTask3,2023.2.3,Win32,59.88023952,,,,,,,,,,,,,,,,,,,,,,,,,,,,,,,,,,,,,,,,,,,,,,,,,,,,,,,,,,,,,,,,,,,,,,,,,,,,,,,,,,,,,,,,,,,,,,,,,,,,,,,,,,,211.1642,211.1644,,,,,,,,,,,,,,,,,,,,,,,,,,,,,,,,,,,,,,,,,,,,,,,,,,,,,,,,,,,,,,,,,,,,,,,,,,,,,,,,,,,,,,,,,,,,,,,
,,,,,65df4f8e2cd31667722789fa,6682b41eeb79ab8215dff63d,6682ba08975220980c89e726,18,female,English,2024-07-01_15h17.38.707,ABmemTask3,2023.2.3,Win32,59.88023952,,,,,,,,,,,,,,,,,,,,,,,,,,,,,,,,,,,,,,,,,,,,,,,,,,,,,,,,,,,,,,,,,,,,,,,,,,,,,,,,,,,,,,,,,,,,,,,,,,,,,,,,,,,211.1666,211.1667,,,,,,,,,,,,,,,,,,,,,,,,,,,,,,,,,,,,,,,,,,,,,,,,,,,,,,,,,,,,,,,,,,,,,,,,,,,,,,,,,,,,,,,,,,,,,,,
,,,,,65df4f8e2cd31667722789fa,6682b41eeb79ab8215dff63d,6682ba08975220980c89e726,18,female,English,2024-07-01_15h17.38.707,ABmemTask3,2023.2.3,Win32,59.88023952,,,,,,,,,,,,,,,,,,,,,,,,,,,,,,,,,,,,,,,,,,,,,,,,,,,,,,,,,,,,,,,,,,,,,,,,,,,,,,,,,,,,,,,,,,,,,,,,,,,,,,,,,,,211.1693,211.1694,,,,,,,,,,,,,,,,,,,,,,,,,,,,,,,,,,,,,,,,,,,,,,,,,,,,,,,,,,,,,,,,,,,,,,,,,,,,,,,,,,,,,,,,,,,,,,,
,,,,,65df4f8e2cd31667722789fa,6682b41eeb79ab8215dff63d,6682ba08975220980c89e726,18,female,English,2024-07-01_15h17.38.707,ABmemTask3,2023.2.3,Win32,59.88023952,,,,,,,,,,,,,,,,,,,,,,,,,,,,,,,,,,,,,,,,,,,,,,,,,,,,,,,,,,,,,,,,,,,,,,,,,,,,,,,,,,,,,,,,,,,,,,,,,,,,,,,,,,,211.1706,211.1706,,,,,,,,,,,,,,,,,,,,,,,,,,,,,,,,,,,,,,,,,,,,,,,,,,,,,,,,,,,,,,,,,,,,,,,,,,,,,,,,,,,,,,,,,,,,,,,
,,,,,65df4f8e2cd31667722789fa,6682b41eeb79ab8215dff63d,6682ba08975220980c89e726,18,female,English,2024-07-01_15h17.38.707,ABmemTask3,2023.2.3,Win32,59.88023952,,,,,,,,,,,,,,,,,,,,,,,,,,,,,,,,,,,,,,,,,,,,,,,,,,,,,,,,,,,,,,,,,,,,,,,,,,,,,,,,,,,,,,,,,,,,,,,,,,,,,,,,,,,211.1718,211.1719,,,,,,,,,,,,,,,,,,,,,,,,,,,,,,,,,,,,,,,,,,,,,,,,,,,,,,,,,,,,,,,,,,,,,,,,,,,,,,,,,,,,,,,,,,,,,,,
,,,,,65df4f8e2cd31667722789fa,6682b41eeb79ab8215dff63d,6682ba08975220980c89e726,18,female,English,2024-07-01_15h17.38.707,ABmemTask3,2023.2.3,Win32,59.88023952,,,,,,,,,,,,,,,,,,,,,,,,,,,,,,,,,,,,,,,,,,,,,,,,,,,,,,,,,,,,,,,,,,,,,,,,,,,,,,,,,,,,,,,,,,,,,,,,,,,,,,,,,,,211.1735,211.1736,,,,,,,,,,,,,,,,,,,,,,,,,,,,,,,,,,,,,,,,,,,,,,,,,,,,,,,,,,,,,,,,,,,,,,,,,,,,,,,,,,,,,,,,,,,,,,,
,,,,,65df4f8e2cd31667722789fa,6682b41eeb79ab8215dff63d,6682ba08975220980c89e726,18,female,English,2024-07-01_15h17.38.707,ABmemTask3,2023.2.3,Win32,59.88023952,,,,,,,,,,,,,,,,,,,,,,,,,,,,,,,,,,,,,,,,,,,,,,,,,,,,,,,,,,,,,,,,,,,,,,,,,,,,,,,,,,,,,,,,,,,,,,,,,,,,,,,,,,,211.1755,211.1756,,,,,,,,,,,,,,,,,,,,,,,,,,,,,,,,,,,,,,,,,,,,,,,,,,,,,,,,,,,,,,,,,,,,,,,,,,,,,,,,,,,,,,,,,,,,,,,
,,,,,65df4f8e2cd31667722789fa,6682b41eeb79ab8215dff63d,6682ba08975220980c89e726,18,female,English,2024-07-01_15h17.38.707,ABmemTask3,2023.2.3,Win32,59.88023952,,,,,,,,,,,,,,,,,,,,,,,,,,,,,,,,,,,,,,,,,,,,,,,,,,,,,,,,,,,,,,,,,,,,,,,,,,,,,,,,,,,,,,,,,,,,,,,,,,,,,,,,,,,211.1766,211.1767,,,,,,,,,,,,,,,,,,,,,,,,,,,,,,,,,,,,,,,,,,,,,,,,,,,,,,,,,,,,,,,,,,,,,,,,,,,,,,,,,,,,,,,,,,,,,,,
,,,,,65df4f8e2cd31667722789fa,6682b41eeb79ab8215dff63d,6682ba08975220980c89e726,18,female,English,2024-07-01_15h17.38.707,ABmemTask3,2023.2.3,Win32,59.88023952,,,,,,,,,,,,,,,,,,,,,,,,,,,,,,,,,,,,,,,,,,,,,,,,,,,,,,,,,,,,,,,,,,,,,,,,,,,,,,,,,,,,,,,,,,,,,,,,,,,,,,,,,,,,,,,,211.1769,231.7257,space,20.5239,,,,,,,,,,,,,,,,,,,,,,,,,,,,,,,,,,,,,,,,,,,,,,,,,,,,,,,,,,,,,,,,,,,,,,,,,,,,,,,,,,,,,,,,
,,,,,65df4f8e2cd31667722789fa,6682b41eeb79ab8215dff63d,6682ba08975220980c89e726,18,female,English,2024-07-01_15h17.38.707,ABmemTask3,2023.2.3,Win32,59.88023952,,,,,,,,,,,,,,,,,,,,,,,,,,,,,,,,,231.761,599,232.2408,,,,,,,,,,,,,,,,,,,,,,,,,,0,,,,,,,,,prac_MEM,old,,,,,,,,,,,10,,,,,,,,,,,,,,,,,,,,,,,,,,,,,,,,,,,232.241,235.7751,3,6,3.4979,,235.7766,236.7738,0,0,0,4,1,5,1,pics/tongs01b.jpg,,,,,,,,,,,,,,,,,,,,,,,,,,,,,,,,,,,,,,,,,,,,,,,,,,,,,,,,,,,,,,,,,,,,,,,
,,,,,65df4f8e2cd31667722789fa,6682b41eeb79ab8215dff63d,6682ba08975220980c89e726,18,female,English,2024-07-01_15h17.38.707,ABmemTask3,2023.2.3,Win32,59.88023952,,,,,,,,,,,,,,,,,,,,,,,,,,,,,,,,,236.7816,599,237.2741,,,,,,,,,,,,,,,,,,,,,,,,,,0,,,,,,,,,prac_MEM,old,,,,,,,,,,,10,,,,,,,,,,,,,,,,,,,,,,,,,,,,,,,,,,,237.2741,239.8578,6,6,2.5705,,239.8581,240.857,0,1,1,5,1,11,5,pics/grater01a.jpg,,,,,,,,,,,,,,,,,,,,,,,,,,,,,,,,,,,,,,,,,,,,,,,,,,,,,,,,,,,,,,,,,,,,,,,
,,,,,65df4f8e2cd31667722789fa,6682b41eeb79ab8215dff63d,6682ba08975220980c89e726,18,female,English,2024-07-01_15h17.38.707,ABmemTask3,2023.2.3,Win32,59.88023952,,,,,,,,,,,,,,,,,,,,,,,,,,,,,,,,,240.8627,599,241.3572,,,,,,,,,,,,,,,,,,,,,,,,,,0,,,,,,,,,prac_MEM,old,,,,,,,,,,,10,,,,,,,,,,,,,,,,,,,,,,,,,,,,,,,,,,,241.3572,242.5237,9,6,1.1529,,242.5238,243.5238,0,2,2,2,1,3,1,pics/sturgeon.jpg,,,,,,,,,,,,,,,,,,,,,,,,,,,,,,,,,,,,,,,,,,,,,,,,,,,,,,,,,,,,,,,,,,,,,,,
,,,,,65df4f8e2cd31667722789fa,6682b41eeb79ab8215dff63d,6682ba08975220980c89e726,18,female,English,2024-07-01_15h17.38.707,ABmemTask3,2023.2.3,Win32,59.88023952,,,,,,,,,,,,,,,,,,,,,,,,,,,,,,,,,243.524,599,244.0238,,,,,,,,,,,,,,,,,,,,,,,,,,0,,,,,,,,,prac_MEM,new,,,,,,,,,,,10,,,,,,,,,,,,,,,,,,,,,,,,,,,,,,,,,,,244.0238,245.4404,12,1,1.3997,,245.4405,246.4409,0,3,3,7,1,999,999,pics/cherry01.jpg,,,,,,,,,,,,,,,,,,,,,,,,,,,,,,,,,,,,,,,,,,,,,,,,,,,,,,,,,,,,,,,,,,,,,,,
,,,,,65df4f8e2cd31667722789fa,6682b41eeb79ab8215dff63d,6682ba08975220980c89e726,18,female,English,2024-07-01_15h17.38.707,ABmemTask3,2023.2.3,Win32,59.88023952,,,,,,,,,,,,,,,,,,,,,,,,,,,,,,,,,246.4411,599,246.9431,,,,,,,,,,,,,,,,,,,,,,,,,,0,,,,,,,,,prac_MEM,new,,,,,,,,,,,10,,,,,,,,,,,,,,,,,,,,,,,,,,,,,,,,,,,246.9431,248.371,3,6,1.3464,,248.3723,249.3739,0,4,4,9,1,999,999,pics/moth.jpg,,,,,,,,,,,,,,,,,,,,,,,,,,,,,,,,,,,,,,,,,,,,,,,,,,,,,,,,,,,,,,,,,,,,,,,
,,,,,65df4f8e2cd31667722789fa,6682b41eeb79ab8215dff63d,6682ba08975220980c89e726,18,female,English,2024-07-01_15h17.38.707,ABmemTask3,2023.2.3,Win32,59.88023952,,,,,,,,,,,,,,,,,,,,,,,,,,,,,,,,,249.3745,599,249.8741,,,,,,,,,,,,,,,,,,,,,,,,,,0,,,,,,,,,prac_MEM,old,,,,,,,,,,,10,,,,,,,,,,,,,,,,,,,,,,,,,,,,,,,,,,,249.8742,250.795,6,6,0.9004,,250.7951,251.7956,0,5,5,3,1,4,1,pics/shorts01.jpg,,,,,,,,,,,,,,,,,,,,,,,,,,,,,,,,,,,,,,,,,,,,,,,,,,,,,,,,,,,,,,,,,,,,,,,
,,,,,65df4f8e2cd31667722789fa,6682b41eeb79ab8215dff63d,6682ba08975220980c89e726,18,female,English,2024-07-01_15h17.38.707,ABmemTask3,2023.2.3,Win32,59.88023952,,,,,,,,,,,,,,,,,,,,,,,,,,,,,,,,,251.7958,599,252.2946,,,,,,,,,,,,,,,,,,,,,,,,,,0,,,,,,,,,prac_MEM,old,,,,,,,,,,,10,,,,,,,,,,,,,,,,,,,,,,,,,,,,,,,,,,,252.2947,253.3406,9,6,1.0262,0.0002,253.3408,254.3405,0,6,6,0,1,1,1,pics/tree.jpg,,,,,,,,,,,,,,,,,,,,,,,,,,,,,,,,,,,,,,,,,,,,,,,,,,,,,,,,,,,,,,,,,,,,,,,
,,,,,65df4f8e2cd31667722789fa,6682b41eeb79ab8215dff63d,6682ba08975220980c89e726,18,female,English,2024-07-01_15h17.38.707,ABmemTask3,2023.2.3,Win32,59.88023952,,,,,,,,,,,,,,,,,,,,,,,,,,,,,,,,,254.3408,599,254.8408,,,,,,,,,,,,,,,,,,,,,,,,,,0,,,,,,,,,prac_MEM,new,,,,,,,,,,,10,,,,,,,,,,,,,,,,,,,,,,,,,,,,,,,,,,,254.8408,258.3572,10,3,3.4959,,258.3577,259.3575,0,7,7,8,1,999,999,pics/thread02.jpg,,,,,,,,,,,,,,,,,,,,,,,,,,,,,,,,,,,,,,,,,,,,,,,,,,,,,,,,,,,,,,,,,,,,,,,
,,,,,65df4f8e2cd31667722789fa,6682b41eeb79ab8215dff63d,6682ba08975220980c89e726,18,female,English,2024-07-01_15h17.38.707,ABmemTask3,2023.2.3,Win32,59.88023952,,,,,,,,,,,,,,,,,,,,,,,,,,,,,,,,,259.3646,599,259.8574,,,,,,,,,,,,,,,,,,,,,,,,,,0,,,,,,,,,prac_MEM,old,,,,,,,,,,,10,,,,,,,,,,,,,,,,,,,,,,,,,,,,,,,,,,,259.8574,261.874,13,6,1.9953,,261.8744,262.8741,0,8,8,1,1,2,1,pics/pants.jpg,,,,,,,,,,,,,,,,,,,,,,,,,,,,,,,,,,,,,,,,,,,,,,,,,,,,,,,,,,,,,,,,,,,,,,,
,,,,,65df4f8e2cd31667722789fa,6682b41eeb79ab8215dff63d,6682ba08975220980c89e726,18,female,English,2024-07-01_15h17.38.707,ABmemTask3,2023.2.3,Win32,59.88023952,,,,,,,,,,,,,,,,,,,,,,,,,,,,,,,,,262.8749,599,263.3747,,,,,,,,,,,,,,,,,,,,,,,,,,0,,,,,,,,,prac_MEM,new,,,,,,,,,,,10,,,,,,,,,,,,,,,,,,,,,,,,,,,,,,,,,,,263.3749,264.9925,14,3,1.5976,,264.9926,265.9908,0,9,9,10,1,999,999,pics/tomato01.jpg,,,,,,,,,,,,,,,,,,,,,,,,,,,,,,,,,,,,,,,,,,,,,,,,,,,,,,,,,,,,,,,,,,,,,,,
,,,,,65df4f8e2cd31667722789fa,6682b41eeb79ab8215dff63d,6682ba08975220980c89e726,18,female,English,2024-07-01_15h17.38.707,ABmemTask3,2023.2.3,Win32,59.88023952,,,,,,,,,,,,,,,,,,,,,,,,,,,,,,,,,265.9992,599,266.4912,,,,,,,,,,,,,,,,,,,,,,,,,,0,,,,,,,,,prac_MEM,old,,,,,,,,,,,10,,,,,,,,,,,,,,,,,,,,,,,,,,,,,,,,,,,266.4913,267.5272,17,6,1.0158,,267.5276,268.5244,0,10,10,6,1,12,5,pics/humanskull.jpg,,,,,,,,,,,,,,,,,,,,,,,,,,,,,,,,,,,,,,,,,,,,,,,,,,,,,,,,,,,,,,,,,,,,,,,
,,,,,65df4f8e2cd31667722789fa,6682b41eeb79ab8215dff63d,6682ba08975220980c89e726,18,female,English,2024-07-01_15h17.38.707,ABmemTask3,2023.2.3,Win32,59.88023952,,,,,,,,,,,,,,,,,,,,,,,,,,,,,,,,,,,,,,,,,,,,,,,,,,,,,,,,,,,,,,,,,,,,,,,,,,,,,,,,,,,,,,,,,,,,,,,,,,,,,,,,,,,,,,,,,,,,,,,,,,,,,,,,,,,,,268.525,270.6239,270.624,270.6246,,,,,,,,,,,,,,,,,,,,,,,,,,,,,,,,,,,,,,,,,,,,,,,,,,,,,,,,,,,,,,,,,,,
,,,,,65df4f8e2cd31667722789fa,6682b41eeb79ab8215dff63d,6682ba08975220980c89e726,18,female,English,2024-07-01_15h17.38.707,ABmemTask3,2023.2.3,Win32,59.88023952,,,,,,,,,,,,,,,,,,space,27.3176,,,,,,,,,,,,,,,,,,,,,,,,,,,,,,,,,,,,,,,,,,,,,,,,,,,,,,,,,,,,,,,,,,,,,,,,,,,,,,,,,,,,,,,,,,,,,,,,,,,,,,,,,,,,,,,,,,,,,,270.6249,297.9751,,,,,,,,,,,,,,,,,,,,,,,,,,,,,,,,,,,,,,,,,,,,,,,,,,,,,,,,,,,,,,,,,
,,,,,65df4f8e2cd31667722789fa,6682b41eeb79ab8215dff63d,6682ba08975220980c89e726,18,female,English,2024-07-01_15h17.38.707,ABmemTask3,2023.2.3,Win32,59.88023952,,,,,,,,,,,,,,,,,,,,,,,,,,,,,,,,,,,,,,,,,,,,,,,,,,,,,,,,,,,,,,,,,,,,,,,,,,,,,,,,,,,,,,,,,,,,,,,,,,,,,,,,,,,,,,,,,,,,,,,,,,,,,,,,,,,,,,,,,,,297.9752,315.9098,space,17.9025,,,,,,,,,,,,,,,,,,,,,,,,,,,,,,,,,,,,,,,,,,,,,,,,,,,,,,,,,,,,,
,,,,,65df4f8e2cd31667722789fa,6682b41eeb79ab8215dff63d,6682ba08975220980c89e726,18,female,English,2024-07-01_15h17.38.707,ABmemTask3,2023.2.3,Win32,59.88023952,,,,,,,,,,,,,,,,,,,,,,,,,,,,,,,315.9294,316.9242,316.9242,7,317.4243,318.8245,0.0012,318.941,0.1162,0.1168,0.1169,0.1164,0.1167,0.1166,0.1167,0.1169,0.1164,0.1166,0.1166,318.9414,321.1411,left,2.1822,,321.1412,321.6076,right,0.4601,,2,0,2,321.6077,322.6074,,,,,,1_AB,L1_T1A_T2P,1,0,1,7,8,6,5,13,statue,Did you see the statue,0.12,0,resources/,pics/giraffe.jpg,pics/seaturtle.jpg,pics/peach01.jpg,pics/boot02b.jpg,pics/backpack01a.jpg,pics/sandbarshark.jpg,pics/microscope.jpg,pics/stapler07.jpg,pics/snowshoe.jpg,pics/laptop01a.jpg,pics/necklace.jpg,pics/zebra.jpg,pics/carrot01.jpg,blankImage,blankImage,blankImage,blankImage,statue,27,0.1167,,,,,,,,,,,,,,,,,,,,,,,,,,,,,,,,,,,,,,,,0,0,0,26,1,,,,,,,,,,,,,,,,,,,,,,,,,,,,,,,,,,,,,,,,,,,,,,,,,,,,,,,
,,,,,65df4f8e2cd31667722789fa,6682b41eeb79ab8215dff63d,6682ba08975220980c89e726,18,female,English,2024-07-01_15h17.38.707,ABmemTask3,2023.2.3,Win32,59.88023952,,,,,,,,,,,,,,,,,,,,,,,,,,,,,,,322.6184,323.6076,323.6077,7,324.1078,325.8577,0.002,325.9742,0.1154,0.1166,0.1168,0.1165,0.1169,0.1165,0.1166,0.1167,0.1166,0.1162,0.1169,325.9743,326.4574,right,0.4746,,326.4574,326.824,right,0.3565,,4,0,4,326.8241,327.8244,,,,,,1_AB,L5_T1P_T2P,5,1,1,6,11,5,5,16,cruise ship,Did you see the cruise ship,0.12,0,resources/,pics/seaturtle.jpg,pics/ashtray01.jpg,pics/pencil01.jpg,pics/fanblades.jpg,pics/triangle.jpg,pics/cruiseship.jpg,pics/wheel01.jpg,pics/dustpan.jpg,pics/starfish01.jpg,pics/banjo.jpg,pics/stapler12.jpg,pics/match.jpg,pics/cannon.jpg,pics/sandbarshark.jpg,pics/sink.jpg,pics/zebra.jpg,blankImage,cruiseship,51,0.1165,0.1165,0.1166,,,,,,,,,,,,,,,,,,,,,,,,,,,,,,,,,,,,,,0,1,1,50,1,0.1168,,,,,,,,,,,,,,,,,,,,,,,,,,,,,,,,,,,,,,,,,,,,,,,,,,,,,,
,,,,,65df4f8e2cd31667722789fa,6682b41eeb79ab8215dff63d,6682ba08975220980c89e726,18,female,English,2024-07-01_15h17.38.707,ABmemTask3,2023.2.3,Win32,59.88023952,,,,,,,,,,,,,,,,,,,,,,,,,,,,,,,327.8247,328.8241,328.8241,7,329.3241,330.8412,0.0011,330.9576,0.1162,0.1167,0.1171,0.1167,0.1164,0.1168,0.1167,0.1166,0.1169,0.1165,0.1166,330.9576,331.3908,right,0.4234,,331.3909,331.6744,right,0.2685,,6,0,6,331.6744,332.6742,,,,,,1_AB,L5_T1P_T2P,5,1,1,5,10,4,4,14,Fox,Did you see the Fox,0.12,0,resources/,pics/hammerheadshark.jpg,pics/bowlingpin.jpg,pics/pictureframe04.jpg,pics/peanut01.jpg,pics/redfox.jpg,pics/cymbal.jpg,pics/spoon01.jpg,pics/banjo.jpg,pics/butterfly.jpg,pics/stapler11.jpg,pics/football.jpg,pics/safetypin.jpg,pics/triangle.jpg,pics/onion.jpg,blankImage,blankImage,blankImage,redfox,45,0.1166,0.1163,,,,,,,,,,,,,,,,,,,,,,,,,,,,,,,,,,,,,,,0,2,2,44,1,,,,,,,,,,,,,,,,,,,,,,,,,,,,,,,,,,,,,,,,,,,,,,,,,,,,,,,
,,,,,65df4f8e2cd31667722789fa,6682b41eeb79ab8215dff63d,6682ba08975220980c89e726,18,female,English,2024-07-01_15h17.38.707,ABmemTask3,2023.2.3,Win32,59.88023952,,,,,,,,,,,,,,,,,,,,,,,,,,,,,,,332.6756,333.6743,333.6744,7,334.1743,335.5754,0.0013,335.6908,0.1165,0.1162,0.1171,0.1169,0.1161,0.1166,0.1168,0.1166,0.1171,0.1162,0.1161,335.6909,337.1075,left,1.4043,,337.1076,337.458,right,0.334,,6,0,8,337.4581,338.4576,,,,,,1_AB,L5_T1P_T2P,5,1,1,4,9,3,4,13,Forklift,Did you see the Forklift,0.12,0,resources/,pics/dustpan.jpg,pics/table01.jpg,pics/sink.jpg,pics/forklift.jpg,pics/dromedary.jpg,pics/proboscismonkey.jpg,pics/cymbal.jpg,pics/shovel01.jpg,pics/stapler10.jpg,pics/backpack01a.jpg,pics/binder03b.jpg,pics/banjo.jpg,pics/candleholder01.jpg,blankImage,blankImage,blankImage,blankImage,forklift,47,0.1177,,,,,,,,,,,,,,,,,,,,,,,,,,,,,,,,,,,,,,,,0,3,3,46,1,,,,,,,,,,,,,,,,,,,,,,,,,,,,,,,,,,,,,,,,,,,,,,,,,,,,,,,
,,,,,65df4f8e2cd31667722789fa,6682b41eeb79ab8215dff63d,6682ba08975220980c89e726,18,female,English,2024-07-01_15h17.38.707,ABmemTask3,2023.2.3,Win32,59.88023952,,,,,,,,,,,,,,,,,,,,,,,,,,,,,,,338.4753,339.478,339.4781,7,339.9745,341.0249,0.0016,341.1416,0.1159,0.1204,0.1169,0.1129,0.1167,0.1162,0.117,0.1168,0.1162,,,341.1417,342.2115,right,1.0496,,342.2116,342.5915,left,0.3523,,8,0,10,342.5916,343.5914,,,,,,1_AB,L1_T1P_T2A,1,1,0,6,7,5,3,10,Electric toothbrush,Did you see the Electric toothbrush,0.12,0,resources/,pics/football.jpg,pics/sailboat.jpg,pics/cymbal.jpg,pics/hen.jpg,pics/pencil01.jpg,pics/electrictoothbrush01c.jpg,pics/bowlingpin.jpg,pics/wheel01.jpg,pics/birdhouse.jpg,pics/leaf02a.jpg,blankImage,blankImage,blankImage,blankImage,blankImage,blankImage,blankImage,electrictoothbrush01c,34,,,,,,,,,,,,,,,,,,,,,,,,,,,,,,,,,,,,,,,,,0,4,4,33,1,,,,,,,,,,,,,,,,,,,,,,,,,,,,,,,,,,,,,,,,,,,,,,,,,,,,,,,
,,,,,65df4f8e2cd31667722789fa,6682b41eeb79ab8215dff63d,6682ba08975220980c89e726,18,female,English,2024-07-01_15h17.38.707,ABmemTask3,2023.2.3,Win32,59.88023952,,,,,,,,,,,,,,,,,,,,,,,,,,,,,,,343.5919,344.5913,344.5915,7,345.0912,346.2583,0.0018,346.3776,0.116,0.1168,0.1199,0.1128,0.1171,0.1166,0.1171,0.1164,0.1163,0.1165,,346.3776,347.3457,right,0.9506,,347.3458,347.6955,left,0.3336,,8,0,12,347.6956,348.6946,,,,,,1_AB,L1_T1P_T2P,1,1,1,7,8,6,3,11,Eiffel tower,Did you see the Eiffel tower,0.12,0,resources/,pics/seagull.jpg,pics/cymbal.jpg,pics/match.jpg,pics/binoculars01b.jpg,pics/ball02.jpg,pics/onion.jpg,pics/eiffeltower.jpg,pics/stapler11.jpg,pics/peach01.jpg,pics/sandbarshark.jpg,pics/boot02b.jpg,blankImage,blankImage,blankImage,blankImage,blankImage,blankImage,eiffeltower,1,,,,,,,,,,,,,,,,,,,,,,,,,,,,,,,,,,,,,,,,,0,5,5,0,1,,,,,,,,,,,,,,,,,,,,,,,,,,,,,,,,,,,,,,,,,,,,,,,,,,,,,,,
,,,,,65df4f8e2cd31667722789fa,6682b41eeb79ab8215dff63d,6682ba08975220980c89e726,18,female,English,2024-07-01_15h17.38.707,ABmemTask3,2023.2.3,Win32,59.88023952,,,,,,,,,,,,,,,,,,,,,,,,,,,,,,,348.695,349.6913,349.6914,7,350.1908,351.125,0.0014,351.245,0.1204,0.1127,0.117,0.1164,0.1169,0.1166,0.1167,0.1165,,,,351.245,352.4411,right,1.1768,,352.4412,352.761,left,0.2993,,6,0,14,352.7611,353.758,,,,,,1_AB,L1_T1A_T2A,1,0,0,4,5,3,4,9,License Plate,Did you see the License Plate,0.12,0,resources/,pics/snowshoe.jpg,pics/kangaroo.jpg,pics/noparkingsign.jpg,pics/match.jpg,pics/hose.jpg,pics/blender.jpg,pics/ashtray01.jpg,pics/ball02.jpg,pics/sink.jpg,blankImage,blankImage,blankImage,blankImage,blankImage,blankImage,blankImage,blankImage,licenseplate,40,,,,,,,,,,,,,,,,,,,,,,,,,,,,,,,,,,,,,,,,,0,6,6,39,1,,,,,,,,,,,,,,,,,,,,,,,,,,,,,,,,,,,,,,,,,,,,,,,,,,,,,,,
,,,,,65df4f8e2cd31667722789fa,6682b41eeb79ab8215dff63d,6682ba08975220980c89e726,18,female,English,2024-07-01_15h17.38.707,ABmemTask3,2023.2.3,Win32,59.88023952,,,,,,,,,,,,,,,,,,,,,,,,,,,,,,,353.7587,354.758,354.758,7,355.2578,356.7752,0.0016,356.8913,0.1162,0.1169,0.1178,0.1191,0.1128,0.117,0.1163,0.1167,0.1167,0.1209,0.1125,356.8915,357.4415,right,0.5174,,357.4416,357.7414,right,0.2754,,8,0,16,357.7416,358.7413,,,,,,1_AB,L5_T1P_T2P,5,1,1,4,9,3,5,14,pliers,Did you see the pliers,0.12,0,resources/,pics/calendar.jpg,pics/footballhelmet.jpg,pics/seaturtle.jpg,pics/pliers02b.jpg,pics/wheel01.jpg,pics/cannon.jpg,pics/proboscismonkey.jpg,pics/shovel01.jpg,pics/stapler06.jpg,pics/football.jpg,pics/hose.jpg,pics/dustpan.jpg,pics/spiderweb.jpg,pics/golfball.jpg,blankImage,blankImage,blankImage,pliers02b,48,0.1167,0.1167,,,,,,,,,,,,,,,,,,,,,,,,,,,,,,,,,,,,,,,0,7,7,47,1,,,,,,,,,,,,,,,,,,,,,,,,,,,,,,,,,,,,,,,,,,,,,,,,,,,,,,,
,,,,,65df4f8e2cd31667722789fa,6682b41eeb79ab8215dff63d,6682ba08975220980c89e726,18,female,English,2024-07-01_15h17.38.707,ABmemTask3,2023.2.3,Win32,59.88023952,,,,,,,,,,,,,,,,,,,,,,,,,,,,,,,358.7422,359.7413,359.7415,7,360.2409,361.292,0.0014,361.4082,0.1168,0.12,0.1173,0.1126,0.1196,0.1138,0.1164,0.1169,0.1167,,,361.4084,362.4628,right,1.034,,362.4629,362.7916,left,0.3076,,8,0,18,362.7917,363.7925,,,,,,1_AB,L1_T1P_T2P,1,1,1,4,5,3,5,10,chair,Did you see the chair,0.12,0,resources/,pics/zebra.jpg,pics/floortile02.jpg,pics/cork02.jpg,pics/chair.jpg,pics/stapler07.jpg,pics/sealion.jpg,pics/shovel01.jpg,pics/piggybank.jpg,pics/candleholder01.jpg,pics/laptop01a.jpg,blankImage,blankImage,blankImage,blankImage,blankImage,blankImage,blankImage,chair,3,,,,,,,,,,,,,,,,,,,,,,,,,,,,,,,,,,,,,,,,,0,8,8,2,1,,,,,,,,,,,,,,,,,,,,,,,,,,,,,,,,,,,,,,,,,,,,,,,,,,,,,,,
,,,,,65df4f8e2cd31667722789fa,6682b41eeb79ab8215dff63d,6682ba08975220980c89e726,18,female,English,2024-07-01_15h17.38.707,ABmemTask3,2023.2.3,Win32,59.88023952,,,,,,,,,,,,,,,,,,,,,,,,,,,,,,,363.793,364.7914,364.7916,7,365.2916,366.5752,0.0014,366.6912,0.1157,0.1169,0.1166,0.1194,0.1139,0.1166,0.1188,0.1148,0.1167,0.1201,0.1131,366.6914,367.4628,right,0.7508,,367.4629,367.8419,left,0.3552,,8,0,20,367.8421,368.8414,,,,,,1_AB,L1_T1P_T2P,1,1,1,7,8,6,4,12,Turnstile,Did you see the Turnstile,0.12,0,resources/,pics/golfball.jpg,pics/hose.jpg,pics/siamesecat.jpg,pics/binoculars01b.jpg,pics/hen.jpg,pics/candleholder01.jpg,pics/turnstile.jpg,pics/stapler03a.jpg,pics/giraffe.jpg,pics/pictureframe04.jpg,pics/sandbarshark.jpg,pics/spoon01.jpg,blankImage,blankImage,blankImage,blankImage,blankImage,turnstile,13,,,,,,,,,,,,,,,,,,,,,,,,,,,,,,,,,,,,,,,,,0,9,9,12,1,,,,,,,,,,,,,,,,,,,,,,,,,,,,,,,,,,,,,,,,,,,,,,,,,,,,,,,
,,,,,65df4f8e2cd31667722789fa,6682b41eeb79ab8215dff63d,6682ba08975220980c89e726,18,female,English,2024-07-01_15h17.38.707,ABmemTask3,2023.2.3,Win32,59.88023952,,,,,,,,,,,,,,,,,,,,,,,,,,,,,,,368.8422,369.8415,369.8416,7,370.3414,371.5087,0.0013,371.6249,0.1161,0.1171,0.1176,0.1156,0.1169,0.1164,0.1167,0.1167,0.1163,0.1169,,371.6252,372.2914,right,0.6438,,372.2916,372.9768,right,0.6651,,6,0,22,372.9769,373.9759,,,,,,1_AB,L1_T1A_T2P,1,0,1,5,6,4,5,11,Recorder,Did you see the Recorder,0.12,0,resources/,pics/bowtie.jpg,pics/nutcracker01.jpg,pics/hairdryer02a.jpg,pics/shovel01.jpg,pics/onion.jpg,pics/stapler13.jpg,pics/safetypin.jpg,pics/spiderweb.jpg,pics/seagull.jpg,pics/dustpan.jpg,pics/icecube01.jpg,blankImage,blankImage,blankImage,blankImage,blankImage,blankImage,recorder04,28,,,,,,,,,,,,,,,,,,,,,,,,,,,,,,,,,,,,,,,,,0,10,10,27,1,,,,,,,,,,,,,,,,,,,,,,,,,,,,,,,,,,,,,,,,,,,,,,,,,,,,,,,
,,,,,65df4f8e2cd31667722789fa,6682b41eeb79ab8215dff63d,6682ba08975220980c89e726,18,female,English,2024-07-01_15h17.38.707,ABmemTask3,2023.2.3,Win32,59.88023952,,,,,,,,,,,,,,,,,,,,,,,,,,,,,,,373.9765,374.9746,374.9747,7,375.4747,376.2934,0.0015,376.4115,0.1163,0.1167,0.1195,0.1135,0.1167,0.1165,0.1184,,,,,376.4115,377.5584,left,1.1213,,377.5585,377.9242,right,0.3453,,8,0,24,377.9242,378.9252,,,,,,1_AB,L1_T1A_T2P,1,0,1,4,5,3,3,8,Parking meter,Did you see the Parking meter,0.12,0,resources/,pics/leaf02a.jpg,pics/carrot01.jpg,pics/sink.jpg,pics/butterfly.jpg,pics/stapler10.jpg,pics/pictureframe04.jpg,pics/spiderweb.jpg,pics/icecube01.jpg,blankImage,blankImage,blankImage,blankImage,blankImage,blankImage,blankImage,blankImage,blankImage,parkingmeter,30,,,,,,,,,,,,,,,,,,,,,,,,,,,,,,,,,,,,,,,,,0,11,11,29,1,,,,,,,,,,,,,,,,,,,,,,,,,,,,,,,,,,,,,,,,,,,,,,,,,,,,,,,
,,,,,65df4f8e2cd31667722789fa,6682b41eeb79ab8215dff63d,6682ba08975220980c89e726,18,female,English,2024-07-01_15h17.38.707,ABmemTask3,2023.2.3,Win32,59.88023952,,,,,,,,,,,,,,,,,,,,,,,,,,,,,,,378.9256,379.9246,379.9247,7,380.4246,381.593,0.001,381.7114,0.1182,0.1146,0.1168,0.1168,0.1166,0.1176,0.1168,0.1156,0.1165,0.118,,381.7114,383.2954,right,1.5673,,383.2954,383.558,right,0.2447,,10,0,26,383.5582,384.5585,,,,,,1_AB,L1_T1P_T2P,1,1,1,7,8,6,3,11,bird,Did you see the bird,0.12,0,resources/,pics/sealion.jpg,pics/backpack01a.jpg,pics/hose.jpg,pics/table01.jpg,pics/wheel01.jpg,pics/seaturtle.jpg,pics/americangoldfinch.jpg,pics/stapler08.jpg,pics/siamesecat.jpg,pics/hammerheadshark.jpg,pics/ashtray01.jpg,blankImage,blankImage,blankImage,blankImage,blankImage,blankImage,americangoldfinch,23,,,,,,,,,,,,,,,,,,,,,,,,,,,,,,,,,,,,,,,,,0,12,12,22,1,,,,,,,,,,,,,,,,,,,,,,,,,,,,,,,,,,,,,,,,,,,,,,,,,,,,,,,
,,,,,65df4f8e2cd31667722789fa,6682b41eeb79ab8215dff63d,6682ba08975220980c89e726,18,female,English,2024-07-01_15h17.38.707,ABmemTask3,2023.2.3,Win32,59.88023952,,,,,,,,,,,,,,,,,,,,,,,,,,,,,,,384.5769,385.5762,385.5762,7,386.0763,387.242,0.0015,387.3584,0.1146,0.1161,0.1162,0.1179,0.1165,0.1166,0.117,0.1162,0.1166,0.1169,,387.3585,388.125,right,0.7383,,388.1251,388.3581,right,0.2018,,12,0,28,388.3583,389.3584,,,,,,1_AB,L1_T1P_T2P,1,1,1,7,8,6,3,11,pliers,Did you see the pliers,0.12,0,resources/,pics/mummy.jpg,pics/binder03b.jpg,pics/bowtie.jpg,pics/toiletpaper01a.jpg,pics/football.jpg,pics/blender.jpg,pics/needlenosepliers01.jpg,pics/stapler13.jpg,pics/zebra.jpg,pics/hammerheadshark.jpg,pics/sealion.jpg,blankImage,blankImage,blankImage,blankImage,blankImage,blankImage,needlenosepliers01,6,,,,,,,,,,,,,,,,,,,,,,,,,,,,,,,,,,,,,,,,,0,13,13,5,1,,,,,,,,,,,,,,,,,,,,,,,,,,,,,,,,,,,,,,,,,,,,,,,,,,,,,,,
,,,,,65df4f8e2cd31667722789fa,6682b41eeb79ab8215dff63d,6682ba08975220980c89e726,18,female,English,2024-07-01_15h17.38.707,ABmemTask3,2023.2.3,Win32,59.88023952,,,,,,,,,,,,,,,,,,,,,,,,,,,,,,,389.3591,390.3582,390.3583,7,390.8579,391.9095,0.0017,392.0246,0.116,0.1165,0.1183,0.1155,0.1197,0.1132,0.1169,0.1166,0.1174,,,392.0248,392.4921,right,0.4391,,392.4923,392.7416,right,0.2219,,14,0,30,392.7417,393.7411,,,,,,1_AB,L1_T1P_T2P,1,1,1,4,5,3,5,10,vacuum,Did you see the vacuum,0.12,0,resources/,pics/birdhouse.jpg,pics/floortile02.jpg,pics/toiletpaper01a.jpg,pics/vacuumcleaner01.jpg,pics/stapler02.jpg,pics/spoon01.jpg,pics/banjo.jpg,pics/binder03b.jpg,pics/leaf02a.jpg,pics/aquarium.jpg,blankImage,blankImage,blankImage,blankImage,blankImage,blankImage,blankImage,vacuumcleaner01,5,,,,,,,,,,,,,,,,,,,,,,,,,,,,,,,,,,,,,,,,,0,14,14,4,1,,,,,,,,,,,,,,,,,,,,,,,,,,,,,,,,,,,,,,,,,,,,,,,,,,,,,,,
,,,,,65df4f8e2cd31667722789fa,6682b41eeb79ab8215dff63d,6682ba08975220980c89e726,18,female,English,2024-07-01_15h17.38.707,ABmemTask3,2023.2.3,Win32,59.88023952,,,,,,,,,,,,,,,,,,,,,,,,,,,,,,,393.7419,394.7412,394.7413,7,395.2448,396.5286,0.0012,396.6415,0.1134,0.1166,0.1165,0.1168,0.1165,0.1163,0.1168,0.1168,0.1164,0.1166,0.1203,396.6416,397.0964,right,0.4345,,397.0965,397.3752,right,0.2569,,16,0,32,397.3753,398.3749,,,,,,1_AB,L1_T1P_T2P,1,1,1,6,7,5,5,12,Bear,Did you see the Bear,0.12,0,resources/,pics/necklace.jpg,pics/hen.jpg,pics/dromedary.jpg,pics/piggybank.jpg,pics/sandbarshark.jpg,pics/grizzly.jpg,pics/stapler12.jpg,pics/bowlingpin.jpg,pics/christmaslights.jpg,pics/icecube01.jpg,pics/match.jpg,pics/lock03a.jpg,blankImage,blankImage,blankImage,blankImage,blankImage,grizzly,18,,,,,,,,,,,,,,,,,,,,,,,,,,,,,,,,,,,,,,,,,0,15,15,17,1,,,,,,,,,,,,,,,,,,,,,,,,,,,,,,,,,,,,,,,,,,,,,,,,,,,,,,,
,,,,,65df4f8e2cd31667722789fa,6682b41eeb79ab8215dff63d,6682ba08975220980c89e726,18,female,English,2024-07-01_15h17.38.707,ABmemTask3,2023.2.3,Win32,59.88023952,,,,,,,,,,,,,,,,,,,,,,,,,,,,,,,398.3757,399.3748,399.375,7,399.8778,401.1585,0.0015,401.2777,0.1134,0.1201,0.1128,0.1169,0.1203,0.1129,0.1167,0.1166,0.1167,0.1167,0.1163,401.2777,401.9087,right,0.6018,,401.9088,402.1417,right,0.2012,,18,0,34,402.1419,403.1416,,,,,,1_AB,L1_T1P_T2P,1,1,1,6,7,5,5,12,rope,Did you see the rope,0.12,0,resources/,pics/toiletpaper01a.jpg,pics/sewingmachine01a.jpg,pics/birdhouse.jpg,pics/sealion.jpg,pics/safetypin.jpg,pics/rope03.jpg,pics/stapler04.jpg,pics/binder03b.jpg,pics/ashtray01.jpg,pics/sandbarshark.jpg,pics/chainsaw.jpg,pics/nutcracker01.jpg,blankImage,blankImage,blankImage,blankImage,blankImage,rope03,4,,,,,,,,,,,,,,,,,,,,,,,,,,,,,,,,,,,,,,,,,0,16,16,3,1,,,,,,,,,,,,,,,,,,,,,,,,,,,,,,,,,,,,,,,,,,,,,,,,,,,,,,,
,,,,,65df4f8e2cd31667722789fa,6682b41eeb79ab8215dff63d,6682ba08975220980c89e726,18,female,English,2024-07-01_15h17.38.707,ABmemTask3,2023.2.3,Win32,59.88023952,,,,,,,,,,,,,,,,,,,,,,,,,,,,,,,403.1423,404.1413,404.1414,7,404.6458,406.275,0.0013,406.3912,0.1121,0.1165,0.1162,0.1169,0.1186,0.119,0.1166,0.1145,0.1195,0.1121,0.1166,406.3913,406.9077,right,0.4938,,406.9077,407.1742,right,0.2351,,20,0,36,407.1743,408.1779,,,,,,1_AB,L5_T1P_T2P,5,1,1,5,10,4,5,15,dolphin,Did you see the dolphin,0.12,0,resources/,pics/banjo.jpg,pics/shipinabottle.jpg,pics/laptop01a.jpg,pics/onion.jpg,pics/dolphin01.jpg,pics/sink.jpg,pics/seaturtle.jpg,pics/butterfly.jpg,pics/hen.jpg,pics/stapler10.jpg,pics/proboscismonkey.jpg,pics/starfish01.jpg,pics/salmon.jpg,pics/spiderweb.jpg,pics/cymbal.jpg,blankImage,blankImage,dolphin01,49,0.1201,0.1146,0.1149,,,,,,,,,,,,,,,,,,,,,,,,,,,,,,,,,,,,,,0,17,17,48,1,,,,,,,,,,,,,,,,,,,,,,,,,,,,,,,,,,,,,,,,,,,,,,,,,,,,,,,
,,,,,65df4f8e2cd31667722789fa,6682b41eeb79ab8215dff63d,6682ba08975220980c89e726,18,female,English,2024-07-01_15h17.38.707,ABmemTask3,2023.2.3,Win32,59.88023952,,,,,,,,,,,,,,,,,,,,,,,,,,,,,,,408.179,409.1747,409.1748,7,409.6743,410.9583,0.0012,411.0746,0.1166,0.1168,0.1164,0.1205,0.113,0.1164,0.12,0.117,0.1132,0.1167,0.1163,411.0747,411.878,right,0.7821,,411.878,412.1621,left,0.2675,,20,0,38,412.1622,413.1579,,,,,,1_AB,L1_T1P_T2P,1,1,1,6,7,5,5,12,jeep,Did you see the jeep,0.12,0,resources/,pics/sandbarshark.jpg,pics/laptop01a.jpg,pics/peach01.jpg,pics/binoculars01b.jpg,pics/giraffe.jpg,pics/jeep.jpg,pics/stapler03b.jpg,pics/fanblades.jpg,pics/cannon.jpg,pics/starfish01.jpg,pics/piggybank.jpg,pics/noparkingsign.jpg,blankImage,blankImage,blankImage,blankImage,blankImage,jeep,2,,,,,,,,,,,,,,,,,,,,,,,,,,,,,,,,,,,,,,,,,0,18,18,1,1,,,,,,,,,,,,,,,,,,,,,,,,,,,,,,,,,,,,,,,,,,,,,,,,,,,,,,,
,,,,,65df4f8e2cd31667722789fa,6682b41eeb79ab8215dff63d,6682ba08975220980c89e726,18,female,English,2024-07-01_15h17.38.707,ABmemTask3,2023.2.3,Win32,59.88023952,,,,,,,,,,,,,,,,,,,,,,,,,,,,,,,413.1586,414.1576,414.1578,7,414.6577,416.2921,0.0014,416.4083,0.1162,0.1164,0.1178,0.1203,0.1126,0.1168,0.1164,0.1171,0.1163,0.1168,0.1165,416.4085,416.8413,right,0.4102,,416.8415,417.1284,right,0.2661,,22,0,40,417.1284,418.1249,,,,,,1_AB,L5_T1P_T2P,5,1,1,5,10,4,5,15,ribbon,Did you see the ribbon,0.12,0,resources/,pics/giraffe.jpg,pics/boot02b.jpg,pics/cymbal.jpg,pics/leaf02a.jpg,pics/ribbon04.jpg,pics/lightswitch01.jpg,pics/necklace.jpg,pics/calendar.jpg,pics/kangaroo.jpg,pics/stapler12.jpg,pics/hose.jpg,pics/carrot01.jpg,pics/match.jpg,pics/sink.jpg,pics/candleholder01.jpg,blankImage,blankImage,ribbon04,53,0.1201,0.1136,0.1164,,,,,,,,,,,,,,,,,,,,,,,,,,,,,,,,,,,,,,0,19,19,52,1,,,,,,,,,,,,,,,,,,,,,,,,,,,,,,,,,,,,,,,,,,,,,,,,,,,,,,,
,,,,,65df4f8e2cd31667722789fa,6682b41eeb79ab8215dff63d,6682ba08975220980c89e726,18,female,English,2024-07-01_15h17.38.707,ABmemTask3,2023.2.3,Win32,59.88023952,,,,,,,,,,,,,,,,,,,,,,,,,,,,,,,418.1256,419.1247,419.1248,7,419.6244,420.6745,0.0014,420.7928,0.1162,0.1168,0.1166,0.1169,0.1166,0.1165,0.1165,0.1165,0.1164,,,420.7929,422.2583,left,1.4439,,422.2585,423.2419,right,0.9521,,24,0,42,423.242,424.2415,,,,,,1_AB,L1_T1A_T2P,1,0,1,5,6,4,4,10,Rabbit,Did you see the Rabbit,0.12,0,resources/,pics/cannon.jpg,pics/proboscismonkey.jpg,pics/salmon.jpg,pics/nutcracker01.jpg,pics/seagull.jpg,pics/stapler02.jpg,pics/table01.jpg,pics/laptop01a.jpg,pics/necklace.jpg,pics/pencilsharpener02a.jpg,blankImage,blankImage,blankImage,blankImage,blankImage,blankImage,blankImage,jackrabbit,31,,,,,,,,,,,,,,,,,,,,,,,,,,,,,,,,,,,,,,,,,0,20,20,30,1,,,,,,,,,,,,,,,,,,,,,,,,,,,,,,,,,,,,,,,,,,,,,,,,,,,,,,,
,,,,,65df4f8e2cd31667722789fa,6682b41eeb79ab8215dff63d,6682ba08975220980c89e726,18,female,English,2024-07-01_15h17.38.707,ABmemTask3,2023.2.3,Win32,59.88023952,,,,,,,,,,,,,,,,,,,,,,,,,,,,,,,424.2424,425.2414,425.2415,7,425.745,427.025,0.0014,427.1412,0.1126,0.1164,0.117,0.1166,0.1197,0.1133,0.1164,0.1168,0.1167,0.1167,0.1167,427.1412,428.0748,right,0.9123,,428.0749,428.3917,left,0.2853,,26,0,44,428.3918,429.3914,,,,,,1_AB,L1_T1P_T2A,1,1,0,7,8,6,4,12,Tennis racket,Did you see the Tennis racket,0.12,0,resources/,pics/banjo.jpg,pics/leaf02a.jpg,pics/shovel01.jpg,pics/microscope.jpg,pics/cork02.jpg,pics/seagull.jpg,pics/tennisracket.jpg,pics/binder03b.jpg,pics/floortile02.jpg,pics/carrot01.jpg,pics/candle01.jpg,pics/siamesecat.jpg,blankImage,blankImage,blankImage,blankImage,blankImage,tennisracket,38,,,,,,,,,,,,,,,,,,,,,,,,,,,,,,,,,,,,,,,,,0,21,21,37,1,,,,,,,,,,,,,,,,,,,,,,,,,,,,,,,,,,,,,,,,,,,,,,,,,,,,,,,
,,,,,65df4f8e2cd31667722789fa,6682b41eeb79ab8215dff63d,6682ba08975220980c89e726,18,female,English,2024-07-01_15h17.38.707,ABmemTask3,2023.2.3,Win32,59.88023952,,,,,,,,,,,,,,,,,,,,,,,,,,,,,,,429.3922,430.3914,430.3915,7,430.8919,432.0583,0.0015,432.1749,0.116,0.1166,0.1166,0.1165,0.1165,0.1167,0.1195,0.117,0.1138,0.1161,,432.1751,433.0418,right,0.8361,,433.0418,433.2916,left,0.2283,,28,0,46,433.2918,434.2914,,,,,,1_AB,L1_T1P_T2A,1,1,0,7,8,6,3,11,Spear,Did you see the Spear,0.12,0,resources/,pics/butterfly.jpg,pics/banjo.jpg,pics/chainsaw.jpg,pics/christmaslights.jpg,pics/dustpan.jpg,pics/shovel01.jpg,pics/spear02.jpg,pics/table01.jpg,pics/starfish01.jpg,pics/bowlingpin.jpg,pics/carrot01.jpg,blankImage,blankImage,blankImage,blankImage,blankImage,blankImage,spear02,39,,,,,,,,,,,,,,,,,,,,,,,,,,,,,,,,,,,,,,,,,0,22,22,38,1,,,,,,,,,,,,,,,,,,,,,,,,,,,,,,,,,,,,,,,,,,,,,,,,,,,,,,,
,,,,,65df4f8e2cd31667722789fa,6682b41eeb79ab8215dff63d,6682ba08975220980c89e726,18,female,English,2024-07-01_15h17.38.707,ABmemTask3,2023.2.3,Win32,59.88023952,,,,,,,,,,,,,,,,,,,,,,,,,,,,,,,434.2923,435.2918,435.292,7,435.7916,436.9587,0.0014,437.075,0.1159,0.1164,0.1165,0.117,0.1166,0.1166,0.1172,0.1166,0.1166,0.1165,,437.0751,438.0749,left,0.973,,438.0751,438.3448,right,0.2493,,28,0,48,438.3449,439.3414,,,,,,1_AB,L1_T1P_T2P,1,1,1,7,8,6,3,11,sock,Did you see the sock,0.12,0,resources/,pics/hen.jpg,pics/christmaslights.jpg,pics/salmon.jpg,pics/sealion.jpg,pics/seaturtle.jpg,pics/giraffe.jpg,pics/athleticsock.jpg,pics/stapler01.jpg,pics/shovel01.jpg,pics/leaf02a.jpg,pics/backpack01a.jpg,blankImage,blankImage,blankImage,blankImage,blankImage,blankImage,athleticsock,11,,,,,,,,,,,,,,,,,,,,,,,,,,,,,,,,,,,,,,,,,0,23,23,10,1,,,,,,,,,,,,,,,,,,,,,,,,,,,,,,,,,,,,,,,,,,,,,,,,,,,,,,,
,,,,,65df4f8e2cd31667722789fa,6682b41eeb79ab8215dff63d,6682ba08975220980c89e726,18,female,English,2024-07-01_15h17.38.707,ABmemTask3,2023.2.3,Win32,59.88023952,,,,,,,,,,,,,,,,,,,,,,,,,,,,,,,439.3423,440.3427,440.3428,7,440.8411,442.359,0.0012,442.4746,0.1165,0.1167,0.1166,0.1164,0.1168,0.1173,0.1164,0.1168,0.1168,0.1167,0.1168,442.4748,442.9584,right,0.4504,,442.9585,443.2253,right,0.236,,30,0,50,443.2254,444.2248,,,,,,1_AB,L5_T1P_T2P,5,1,1,6,11,5,3,14,mail box,Did you see the mail box,0.12,0,resources/,pics/pictureframe04.jpg,pics/seaturtle.jpg,pics/blender.jpg,pics/carrot01.jpg,pics/nutcracker01.jpg,pics/mailbox02.jpg,pics/seagull.jpg,pics/sink.jpg,pics/siamesecat.jpg,pics/spiderweb.jpg,pics/stapler08.jpg,pics/safetypin.jpg,pics/candle01.jpg,pics/mummy.jpg,blankImage,blankImage,blankImage,mailbox02,43,0.1172,0.1159,,,,,,,,,,,,,,,,,,,,,,,,,,,,,,,,,,,,,,,0,24,24,42,1,,,,,,,,,,,,,,,,,,,,,,,,,,,,,,,,,,,,,,,,,,,,,,,,,,,,,,,
,,,,,65df4f8e2cd31667722789fa,6682b41eeb79ab8215dff63d,6682ba08975220980c89e726,18,female,English,2024-07-01_15h17.38.707,ABmemTask3,2023.2.3,Win32,59.88023952,,,,,,,,,,,,,,,,,,,,,,,,,,,,,,,444.2255,445.225,445.2252,7,445.7249,447.1252,0.0018,447.2416,0.1161,0.1168,0.1162,0.1196,0.1136,0.1168,0.1176,0.1153,0.1173,0.1163,0.1167,447.2417,448.2425,right,0.9674,,448.2425,448.4753,left,0.2106,,30,0,52,448.4755,449.4748,,,,,,1_AB,L1_T1P_T2P,1,1,1,7,8,6,5,13,strawberry,Did you see the strawberry,0.12,0,resources/,pics/sealion.jpg,pics/backpack01a.jpg,pics/binoculars01b.jpg,pics/ball02.jpg,pics/proboscismonkey.jpg,pics/pictureframe04.jpg,pics/strawberry.jpg,pics/stapler12.jpg,pics/seaturtle.jpg,pics/dustpan.jpg,pics/bowlingpin.jpg,pics/hammerheadshark.jpg,pics/hen.jpg,blankImage,blankImage,blankImage,blankImage,strawberry,10,0.1166,,,,,,,,,,,,,,,,,,,,,,,,,,,,,,,,,,,,,,,,0,25,25,9,1,,,,,,,,,,,,,,,,,,,,,,,,,,,,,,,,,,,,,,,,,,,,,,,,,,,,,,,
,,,,,65df4f8e2cd31667722789fa,6682b41eeb79ab8215dff63d,6682ba08975220980c89e726,18,female,English,2024-07-01_15h17.38.707,ABmemTask3,2023.2.3,Win32,59.88023952,,,,,,,,,,,,,,,,,,,,,,,,,,,,,,,449.4756,450.4752,450.4752,7,450.9746,452.5248,0.0014,452.6413,0.1162,0.1167,0.1166,0.15,0.1165,0.1166,0.1158,0.1178,0.1165,0.1164,0.1168,452.6414,453.108,right,0.4495,,453.108,453.3746,right,0.2534,,32,0,54,453.3746,454.375,,,,,,1_AB,L5_T1P_T2P,5,1,1,4,9,3,5,14,asparagus,Did you see the asparagus,0.12,0,resources/,pics/siamesecat.jpg,pics/starfish01.jpg,pics/aquarium.jpg,pics/asparagus.jpg,pics/salmon.jpg,pics/binoculars01b.jpg,pics/ball02.jpg,pics/calendar.jpg,pics/stapler10.jpg,pics/giraffe.jpg,pics/dromedary.jpg,pics/seaturtle.jpg,pics/sandbarshark.jpg,pics/shipinabottle.jpg,blankImage,blankImage,blankImage,asparagus,44,0.1167,0.1161,,,,,,,,,,,,,,,,,,,,,,,,,,,,,,,,,,,,,,,0,26,26,43,1,,,,,,,,,,,,,,,,,,,,,,,,,,,,,,,,,,,,,,,,,,,,,,,,,,,,,,,
,,,,,65df4f8e2cd31667722789fa,6682b41eeb79ab8215dff63d,6682ba08975220980c89e726,18,female,English,2024-07-01_15h17.38.707,ABmemTask3,2023.2.3,Win32,59.88023952,,,,,,,,,,,,,,,,,,,,,,,,,,,,,,,454.3755,455.3749,455.375,7,455.8747,457.042,0.0026,457.1577,0.1154,0.1169,0.1164,0.1165,0.1204,0.1127,0.1171,0.1168,0.1164,0.1166,,457.1578,458.0251,right,0.8357,,458.0252,458.3421,left,0.2882,,34,0,56,458.3423,459.3418,,,,,,1_AB,L1_T1P_T2A,1,1,0,7,8,6,3,11,eggplant,Did you see the eggplant,0.12,0,resources/,pics/salmon.jpg,pics/fanblades.jpg,pics/hammerheadshark.jpg,pics/wheel01.jpg,pics/snowshoe.jpg,pics/birdhouse.jpg,pics/eggplant.jpg,pics/spiderweb.jpg,pics/zebra.jpg,pics/pencilsharpener02a.jpg,pics/backpack01a.jpg,blankImage,blankImage,blankImage,blankImage,blankImage,blankImage,eggplant,32,,,,,,,,,,,,,,,,,,,,,,,,,,,,,,,,,,,,,,,,,0,27,27,31,1,,,,,,,,,,,,,,,,,,,,,,,,,,,,,,,,,,,,,,,,,,,,,,,,,,,,,,,
,,,,,65df4f8e2cd31667722789fa,6682b41eeb79ab8215dff63d,6682ba08975220980c89e726,18,female,English,2024-07-01_15h17.38.707,ABmemTask3,2023.2.3,Win32,59.88023952,,,,,,,,,,,,,,,,,,,,,,,,,,,,,,,459.3427,460.3446,460.3447,7,460.841,462.7117,0.0014,462.825,0.1164,0.1169,0.1167,0.1203,0.113,0.1167,0.1166,0.1166,0.1168,0.117,0.1163,462.8252,463.7416,right,0.8901,,463.7417,465.092,left,1.3192,,32,0,58,465.092,466.0916,,,,,,1_AB,L5_T1A_T2A,5,0,0,7,12,6,5,17,Bib,Did you see the Bib,0.12,0,resources/,pics/hammerheadshark.jpg,pics/wheel01.jpg,pics/binder03b.jpg,pics/hairdryer02a.jpg,pics/christmaslights.jpg,pics/sandbarshark.jpg,pics/binoculars01b.jpg,pics/piggybank.jpg,pics/aquarium.jpg,pics/candleholder01.jpg,pics/sink.jpg,pics/calendar.jpg,pics/birdhouse.jpg,pics/bowtie.jpg,pics/onion.jpg,pics/golfball.jpg,pics/sailboat.jpg,bib,62,0.117,0.1192,0.1141,,,,,,,,,,,,,,,,,,,,,,,,,,,,,,,,,,,,,,0,28,28,61,1,0.1165,0.1194,,,,,,,,,,,,,,,,,,,,,,,,,,,,,,,,,,,,,,,,,,,,,,,,,,,,,
,,,,,65df4f8e2cd31667722789fa,6682b41eeb79ab8215dff63d,6682ba08975220980c89e726,18,female,English,2024-07-01_15h17.38.707,ABmemTask3,2023.2.3,Win32,59.88023952,,,,,,,,,,,,,,,,,,,,,,,,,,,,,,,466.0923,467.0912,467.0912,7,467.5914,468.8754,0.0014,468.9915,0.1189,0.1141,0.1167,0.1164,0.117,0.1167,0.1166,0.1165,0.1164,0.1167,0.1169,468.9917,469.4584,right,0.4442,,469.4584,469.7797,right,0.3008,,34,0,60,469.7798,470.7748,,,,,,1_AB,L5_T1P_T2P,5,1,1,4,9,3,3,12,Sheep,Did you see the Sheep,0.12,0,resources/,pics/icecube01.jpg,pics/cymbal.jpg,pics/wheel01.jpg,pics/sheep.jpg,pics/starfish01.jpg,pics/safetypin.jpg,pics/siamesecat.jpg,pics/lock03a.jpg,pics/stapler01.jpg,pics/sink.jpg,pics/fanblades.jpg,pics/bowlingpin.jpg,blankImage,blankImage,blankImage,blankImage,blankImage,sheep,52,,,,,,,,,,,,,,,,,,,,,,,,,,,,,,,,,,,,,,,,,0,29,29,51,1,,,,,,,,,,,,,,,,,,,,,,,,,,,,,,,,,,,,,,,,,,,,,,,,,,,,,,,
,,,,,65df4f8e2cd31667722789fa,6682b41eeb79ab8215dff63d,6682ba08975220980c89e726,18,female,English,2024-07-01_15h17.38.707,ABmemTask3,2023.2.3,Win32,59.88023952,,,,,,,,,,,,,,,,,,,,,,,,,,,,,,,470.7756,471.7749,471.775,7,472.2628,473.5428,0.0014,473.6625,0.1113,0.1171,0.1191,0.114,0.117,0.1169,0.1163,0.118,0.1154,0.1159,0.1177,473.6625,474.4624,left,0.7836,,474.4625,474.7918,right,0.3059,,36,0,62,474.7922,475.7954,,,,,,1_AB,L5_T1A_T2P,5,0,1,4,9,3,3,12,rooster,Did you see the rooster,0.12,0,resources/,pics/table01.jpg,pics/icecube01.jpg,pics/dustpan.jpg,pics/lock03a.jpg,pics/sailboat.jpg,pics/salmon.jpg,pics/banjo.jpg,pics/zebra.jpg,pics/stapler09.jpg,pics/peach01.jpg,pics/chainsaw.jpg,pics/football.jpg,blankImage,blankImage,blankImage,blankImage,blankImage,rooster,55,,,,,,,,,,,,,,,,,,,,,,,,,,,,,,,,,,,,,,,,,0,30,30,54,1,,,,,,,,,,,,,,,,,,,,,,,,,,,,,,,,,,,,,,,,,,,,,,,,,,,,,,,
,,,,,65df4f8e2cd31667722789fa,6682b41eeb79ab8215dff63d,6682ba08975220980c89e726,18,female,English,2024-07-01_15h17.38.707,ABmemTask3,2023.2.3,Win32,59.88023952,,,,,,,,,,,,,,,,,,,,,,,,,,,,,,,475.7959,476.7916,476.7916,7,477.2917,479.0419,0.0015,479.1623,0.116,0.1167,0.1195,0.1138,0.1181,0.1151,0.1166,0.1202,0.1128,0.117,0.1166,479.1623,480.1086,right,0.9176,,480.1086,480.4284,left,0.2995,,38,0,64,480.4285,481.4252,,,,,,1_AB,L5_T1P_T2A,5,1,0,7,12,6,4,16,boat,Did you see the boat,0.12,0,resources/,pics/butterfly.jpg,pics/onion.jpg,pics/hose.jpg,pics/ball02.jpg,pics/ashtray01.jpg,pics/bowtie.jpg,pics/boat.jpg,pics/seaturtle.jpg,pics/blender.jpg,pics/zebra.jpg,pics/pictureframe04.jpg,pics/shovel01.jpg,pics/spoon01.jpg,pics/peanut01.jpg,pics/nutcracker01.jpg,pics/aquarium.jpg,blankImage,boat,60,0.1207,0.1131,0.1165,,,,,,,,,,,,,,,,,,,,,,,,,,,,,,,,,,,,,,0,31,31,59,1,0.1163,,,,,,,,,,,,,,,,,,,,,,,,,,,,,,,,,,,,,,,,,,,,,,,,,,,,,,
,,,,,65df4f8e2cd31667722789fa,6682b41eeb79ab8215dff63d,6682ba08975220980c89e726,18,female,English,2024-07-01_15h17.38.707,ABmemTask3,2023.2.3,Win32,59.88023952,,,,,,,,,,,,,,,,,,,,,,,,,,,,,,,481.426,482.425,482.4251,7,482.9246,483.7792,0.0015,483.8918,0.1164,0.1198,0.1176,0.1461,0.1167,0.1166,0.1202,,,,,483.8919,485.7086,right,1.7877,,485.7087,486.2253,left,0.4849,,38,0,66,486.2254,487.2288,,,,,,1_AB,L1_T1P_T2P,1,1,1,4,5,3,3,8,Recycling bin,Did you see the Recycling bin,0.12,0,resources/,pics/microscope.jpg,pics/dustpan.jpg,pics/seagull.jpg,pics/recyclingbin.jpg,pics/stapler06.jpg,pics/bowtie.jpg,pics/dromedary.jpg,pics/salmon.jpg,blankImage,blankImage,blankImage,blankImage,blankImage,blankImage,blankImage,blankImage,blankImage,recyclingbin,16,,,,,,,,,,,,,,,,,,,,,,,,,,,,,,,,,,,,,,,,,0,32,32,15,1,,,,,,,,,,,,,,,,,,,,,,,,,,,,,,,,,,,,,,,,,,,,,,,,,,,,,,,
,,,,,65df4f8e2cd31667722789fa,6682b41eeb79ab8215dff63d,6682ba08975220980c89e726,18,female,English,2024-07-01_15h17.38.707,ABmemTask3,2023.2.3,Win32,59.88023952,,,,,,,,,,,,,,,,,,,,,,,,,,,,,,,487.2441,488.2414,488.2414,7,488.7417,489.6752,0.0015,489.7949,0.1163,0.1165,0.1206,0.1128,0.1165,0.1168,0.1166,0.1164,,,,489.795,490.5957,right,0.7836,,490.5957,490.8584,left,0.2397,,38,0,68,490.8586,491.8581,,,,,,1_AB,L1_T1P_T2P,1,1,1,5,6,4,3,9,Ant,Did you see the Ant,0.12,0,resources/,pics/kangaroo.jpg,pics/giraffe.jpg,pics/footballhelmet.jpg,pics/onion.jpg,pics/ant.jpg,pics/stapler04b.jpg,pics/banjo.jpg,pics/zebra.jpg,pics/dromedary.jpg,blankImage,blankImage,blankImage,blankImage,blankImage,blankImage,blankImage,blankImage,ant,15,,,,,,,,,,,,,,,,,,,,,,,,,,,,,,,,,,,,,,,,,0,33,33,14,1,,,,,,,,,,,,,,,,,,,,,,,,,,,,,,,,,,,,,,,,,,,,,,,,,,,,,,,
,,,,,65df4f8e2cd31667722789fa,6682b41eeb79ab8215dff63d,6682ba08975220980c89e726,18,female,English,2024-07-01_15h17.38.707,ABmemTask3,2023.2.3,Win32,59.88023952,,,,,,,,,,,,,,,,,,,,,,,,,,,,,,,491.859,492.8582,492.8583,7,493.3586,494.2921,0.0017,494.4108,0.1157,0.1168,0.1164,0.1169,0.1167,0.1163,0.1189,0.1145,,,,494.4109,495.392,left,0.9518,,495.3922,495.9752,right,0.5584,,38,0,70,495.9755,496.9754,,,,,,1_AB,L1_T1P_T2P,1,1,1,4,5,3,4,9,Chefs hat,Did you see the Chefs hat,0.12,0,resources/,pics/sewingmachine01a.jpg,pics/icecube01.jpg,pics/fanblades.jpg,pics/chefshat.jpg,pics/stapler06.jpg,pics/ashtray01.jpg,pics/blender.jpg,pics/sandbarshark.jpg,pics/lock03a.jpg,blankImage,blankImage,blankImage,blankImage,blankImage,blankImage,blankImage,blankImage,chefshat,12,,,,,,,,,,,,,,,,,,,,,,,,,,,,,,,,,,,,,,,,,0,34,34,11,1,,,,,,,,,,,,,,,,,,,,,,,,,,,,,,,,,,,,,,,,,,,,,,,,,,,,,,,
,,,,,65df4f8e2cd31667722789fa,6682b41eeb79ab8215dff63d,6682ba08975220980c89e726,18,female,English,2024-07-01_15h17.38.707,ABmemTask3,2023.2.3,Win32,59.88023952,,,,,,,,,,,,,,,,,,,,,,,,,,,,,,,496.9946,497.9915,497.9915,7,498.4918,499.4256,0.0018,499.5415,0.1159,0.1164,0.117,0.1161,0.1171,0.1167,0.1165,0.1165,,,,499.5416,500.3417,right,0.7791,,500.3418,500.6419,left,0.2704,,38,0,72,500.6422,501.6416,,,,,,1_AB,L1_T1P_T2P,1,1,1,5,6,4,3,9,cabbage,Did you see the cabbage,0.12,0,resources/,pics/match.jpg,pics/icecube01.jpg,pics/noparkingsign.jpg,pics/christmaslights.jpg,pics/cabbage.jpg,pics/stapler03a.jpg,pics/carrot01.jpg,pics/dustpan.jpg,pics/cannon.jpg,blankImage,blankImage,blankImage,blankImage,blankImage,blankImage,blankImage,blankImage,cabbage,14,,,,,,,,,,,,,,,,,,,,,,,,,,,,,,,,,,,,,,,,,0,35,35,13,1,,,,,,,,,,,,,,,,,,,,,,,,,,,,,,,,,,,,,,,,,,,,,,,,,,,,,,,
,,,,,65df4f8e2cd31667722789fa,6682b41eeb79ab8215dff63d,6682ba08975220980c89e726,18,female,English,2024-07-01_15h17.38.707,ABmemTask3,2023.2.3,Win32,59.88023952,,,,,,,,,,,,,,,,,,,,,,,,,,,,,,,501.6427,502.6417,502.6417,7,503.1415,504.8923,0.0016,505.0121,0.1164,0.1194,0.1134,0.1204,0.1133,0.1165,0.117,0.1165,0.1166,0.117,0.1165,505.0122,506.0087,right,0.9735,,506.009,506.4422,left,0.4075,,40,0,74,506.4423,507.4416,,,,,,1_AB,L5_T1P_T2A,5,1,0,6,11,5,5,16,belt,Did you see the belt,0.12,0,resources/,pics/banjo.jpg,pics/birdhouse.jpg,pics/spoon01.jpg,pics/table01.jpg,pics/candle01.jpg,pics/belt02a.jpg,pics/peach01.jpg,pics/chainsaw.jpg,pics/toiletpaper01a.jpg,pics/proboscismonkey.jpg,pics/cymbal.jpg,pics/binoculars01b.jpg,pics/cannon.jpg,pics/noparkingsign.jpg,pics/sailboat.jpg,pics/carrot01.jpg,blankImage,belt02a,61,0.1204,0.1154,0.1142,,,,,,,,,,,,,,,,,,,,,,,,,,,,,,,,,,,,,,0,36,36,60,1,0.1165,,,,,,,,,,,,,,,,,,,,,,,,,,,,,,,,,,,,,,,,,,,,,,,,,,,,,,
,,,,,65df4f8e2cd31667722789fa,6682b41eeb79ab8215dff63d,6682ba08975220980c89e726,18,female,English,2024-07-01_15h17.38.707,ABmemTask3,2023.2.3,Win32,59.88023952,,,,,,,,,,,,,,,,,,,,,,,,,,,,,,,507.4425,508.4417,508.4419,7,508.9413,509.9921,0.0014,510.1081,0.1174,0.1189,0.1141,0.1165,0.12,0.1131,0.1164,0.1198,0.1135,,,510.1084,511.6465,left,1.5173,,511.6466,511.958,right,0.2881,,42,0,76,511.9581,512.9583,,,,,,1_AB,L1_T1A_T2P,1,0,1,5,6,4,4,10,button,Did you see the button,0.12,0,resources/,pics/pencil01.jpg,pics/necklace.jpg,pics/sink.jpg,pics/noparkingsign.jpg,pics/banjo.jpg,pics/stapler03b.jpg,pics/candle01.jpg,pics/icecube01.jpg,pics/shovel01.jpg,pics/pencilsharpener02a.jpg,blankImage,blankImage,blankImage,blankImage,blankImage,blankImage,blankImage,button01,25,,,,,,,,,,,,,,,,,,,,,,,,,,,,,,,,,,,,,,,,,0,37,37,24,1,,,,,,,,,,,,,,,,,,,,,,,,,,,,,,,,,,,,,,,,,,,,,,,,,,,,,,,
,,,,,65df4f8e2cd31667722789fa,6682b41eeb79ab8215dff63d,6682ba08975220980c89e726,18,female,English,2024-07-01_15h17.38.707,ABmemTask3,2023.2.3,Win32,59.88023952,,,,,,,,,,,,,,,,,,,,,,,,,,,,,,,512.9734,513.9797,513.9798,7,514.4748,515.6462,0.0013,515.7581,0.116,0.1169,0.117,0.1212,0.1123,0.1194,0.114,0.1211,0.1155,0.1169,,515.7582,516.6464,right,0.8667,,516.6464,517.3584,right,0.6956,,44,0,78,517.3584,518.3586,,,,,,1_AB,L1_T1P_T2P,1,1,1,7,8,6,3,11,toothpick,Did you see the toothpick,0.12,0,resources/,pics/candleholder01.jpg,pics/blender.jpg,pics/siamesecat.jpg,pics/peanut01.jpg,pics/spiderweb.jpg,pics/football.jpg,pics/toothpick02.jpg,pics/stapler04b.jpg,pics/seagull.jpg,pics/pictureframe04.jpg,pics/shipinabottle.jpg,blankImage,blankImage,blankImage,blankImage,blankImage,blankImage,toothpick02,17,,,,,,,,,,,,,,,,,,,,,,,,,,,,,,,,,,,,,,,,,0,38,38,16,1,,,,,,,,,,,,,,,,,,,,,,,,,,,,,,,,,,,,,,,,,,,,,,,,,,,,,,,
,,,,,65df4f8e2cd31667722789fa,6682b41eeb79ab8215dff63d,6682ba08975220980c89e726,18,female,English,2024-07-01_15h17.38.707,ABmemTask3,2023.2.3,Win32,59.88023952,,,,,,,,,,,,,,,,,,,,,,,,,,,,,,,518.3593,519.3632,519.3632,7,519.8585,521.1426,0.0015,521.2588,0.1194,0.1135,0.12,0.1132,0.1166,0.1168,0.1165,0.1168,0.1168,0.1164,0.117,521.2589,521.8916,right,0.6017,,521.8917,522.1587,right,0.2347,,46,0,80,522.1588,523.162,,,,,,1_AB,L1_T1P_T2P,1,1,1,7,8,6,4,12,hammer,Did you see the hammer,0.12,0,resources/,pics/microscope.jpg,pics/blender.jpg,pics/dustpan.jpg,pics/snowshoe.jpg,pics/mummy.jpg,pics/bowtie.jpg,pics/hammer01.jpg,pics/stapler04b.jpg,pics/seaturtle.jpg,pics/candle01.jpg,pics/necklace.jpg,pics/cannon.jpg,blankImage,blankImage,blankImage,blankImage,blankImage,hammer01,21,,,,,,,,,,,,,,,,,,,,,,,,,,,,,,,,,,,,,,,,,0,39,39,20,1,,,,,,,,,,,,,,,,,,,,,,,,,,,,,,,,,,,,,,,,,,,,,,,,,,,,,,,
,,,,,65df4f8e2cd31667722789fa,6682b41eeb79ab8215dff63d,6682ba08975220980c89e726,18,female,English,2024-07-01_15h17.38.707,ABmemTask3,2023.2.3,Win32,59.88023952,,,,,,,,,,,,,,,,,,,,,,,,,,,,,,,523.1625,524.1583,524.1585,7,524.6585,525.5923,0.0012,525.708,0.1168,0.116,0.1166,0.1172,0.1166,0.1207,0.1126,0.1164,,,,525.7081,527.1633,left,1.4345,,527.1634,527.477,right,0.298,,48,0,82,527.477,528.4753,,,,,,1_AB,L1_T1A_T2P,1,0,1,5,6,4,3,9,Trailer,Did you see the Trailer,0.12,0,resources/,pics/pencil01.jpg,pics/football.jpg,pics/hairdryer02a.jpg,pics/wheel01.jpg,pics/chainsaw.jpg,pics/stapler10.jpg,pics/peanut01.jpg,pics/triangle.jpg,pics/sink.jpg,blankImage,blankImage,blankImage,blankImage,blankImage,blankImage,blankImage,blankImage,boxtrailer,29,,,,,,,,,,,,,,,,,,,,,,,,,,,,,,,,,,,,,,,,,0,40,40,28,1,,,,,,,,,,,,,,,,,,,,,,,,,,,,,,,,,,,,,,,,,,,,,,,,,,,,,,,
,,,,,65df4f8e2cd31667722789fa,6682b41eeb79ab8215dff63d,6682ba08975220980c89e726,18,female,English,2024-07-01_15h17.38.707,ABmemTask3,2023.2.3,Win32,59.88023952,,,,,,,,,,,,,,,,,,,,,,,,,,,,,,,528.476,529.4752,529.4755,7,529.9754,531.4924,0.0016,531.6085,0.1158,0.1166,0.1171,0.1167,0.1163,0.1177,0.115,0.1171,0.1165,0.1165,0.1168,531.6087,532.2413,right,0.6006,,532.2415,532.4936,right,0.2317,,46,0,84,532.4938,533.4921,,,,,,1_AB,L5_T1P_T2A,5,1,0,6,11,5,3,14,Kiwi,Did you see the Kiwi,0.12,0,resources/,pics/candleholder01.jpg,pics/kangaroo.jpg,pics/banjo.jpg,pics/binoculars01b.jpg,pics/microscope.jpg,pics/kiwi03.jpg,pics/bowtie.jpg,pics/peanut01.jpg,pics/backpack01a.jpg,pics/zebra.jpg,pics/toiletpaper01a.jpg,pics/hen.jpg,pics/spoon01.jpg,pics/calendar.jpg,blankImage,blankImage,blankImage,kiwi03,59,0.1191,0.1144,,,,,,,,,,,,,,,,,,,,,,,,,,,,,,,,,,,,,,,0,41,41,58,1,,,,,,,,,,,,,,,,,,,,,,,,,,,,,,,,,,,,,,,,,,,,,,,,,,,,,,,
,,,,,65df4f8e2cd31667722789fa,6682b41eeb79ab8215dff63d,6682ba08975220980c89e726,18,female,English,2024-07-01_15h17.38.707,ABmemTask3,2023.2.3,Win32,59.88023952,,,,,,,,,,,,,,,,,,,,,,,,,,,,,,,533.493,534.4917,534.4919,7,534.996,536.0753,0.0012,536.1915,0.1153,0.1138,0.1167,0.1491,0.1166,0.1171,0.1168,0.1165,0.1165,,,536.1917,536.8918,right,0.6792,,536.8919,537.2751,right,0.3691,,48,0,86,537.2752,538.2748,,,,,,1_AB,L1_T1P_T2P,1,1,1,4,5,3,5,10,flute,Did you see the flute,0.12,0,resources/,pics/peach01.jpg,pics/seaturtle.jpg,pics/dromedary.jpg,pics/recorder01.jpg,pics/stapler08.jpg,pics/giraffe.jpg,pics/blender.jpg,pics/necklace.jpg,pics/sink.jpg,pics/dustpan.jpg,blankImage,blankImage,blankImage,blankImage,blankImage,blankImage,blankImage,recorder01,7,,,,,,,,,,,,,,,,,,,,,,,,,,,,,,,,,,,,,,,,,0,42,42,6,1,,,,,,,,,,,,,,,,,,,,,,,,,,,,,,,,,,,,,,,,,,,,,,,,,,,,,,,
,,,,,65df4f8e2cd31667722789fa,6682b41eeb79ab8215dff63d,6682ba08975220980c89e726,18,female,English,2024-07-01_15h17.38.707,ABmemTask3,2023.2.3,Win32,59.88023952,,,,,,,,,,,,,,,,,,,,,,,,,,,,,,,538.2754,539.2751,539.2752,7,539.7748,541.4088,0.0013,541.5248,0.1163,0.1166,0.1166,0.1165,0.1167,0.1168,0.1166,0.1167,0.1166,0.1162,0.1168,541.525,542.3918,left,0.8531,,542.3918,542.6749,right,0.2694,,50,0,88,542.675,543.6749,,,,,,1_AB,L5_T1A_T2P,5,0,1,5,10,4,5,15,scorpion,Did you see the scorpion,0.12,0,resources/,pics/pictureframe04.jpg,pics/binder03b.jpg,pics/pencil01.jpg,pics/leaf02a.jpg,pics/icecube01.jpg,pics/dromedary.jpg,pics/toiletpaper01a.jpg,pics/peanut01.jpg,pics/golfball.jpg,pics/stapler03.jpg,pics/carrot01.jpg,pics/peach01.jpg,pics/sealion.jpg,pics/football.jpg,pics/zebra.jpg,blankImage,blankImage,scorpion,54,0.1166,0.1166,0.1175,,,,,,,,,,,,,,,,,,,,,,,,,,,,,,,,,,,,,,0,43,43,53,1,,,,,,,,,,,,,,,,,,,,,,,,,,,,,,,,,,,,,,,,,,,,,,,,,,,,,,,
,,,,,65df4f8e2cd31667722789fa,6682b41eeb79ab8215dff63d,6682ba08975220980c89e726,18,female,English,2024-07-01_15h17.38.707,ABmemTask3,2023.2.3,Win32,59.88023952,,,,,,,,,,,,,,,,,,,,,,,,,,,,,,,543.6752,544.6751,544.6752,7,545.1748,546.5753,0.0007,546.6916,0.1169,0.1164,0.1174,0.1161,0.1166,0.1167,0.1166,0.1166,0.1166,0.117,0.1164,546.6917,547.5916,left,0.889,,547.5917,548.2586,right,0.6536,,52,0,90,548.2587,549.2582,,,,,,1_AB,L1_T1A_T2P,1,0,1,7,8,6,5,13,Basketball,Did you see the Basketball,0.12,0,resources/,pics/cork02.jpg,pics/table01.jpg,pics/christmaslights.jpg,pics/nutcracker01.jpg,pics/golfball.jpg,pics/hammerheadshark.jpg,pics/seaturtle.jpg,pics/stapler04b.jpg,pics/lock03a.jpg,pics/snowshoe.jpg,pics/sewingmachine01a.jpg,pics/peach01.jpg,pics/hose.jpg,blankImage,blankImage,blankImage,blankImage,basketball01,24,0.1166,,,,,,,,,,,,,,,,,,,,,,,,,,,,,,,,,,,,,,,,0,44,44,23,1,,,,,,,,,,,,,,,,,,,,,,,,,,,,,,,,,,,,,,,,,,,,,,,,,,,,,,,
,,,,,65df4f8e2cd31667722789fa,6682b41eeb79ab8215dff63d,6682ba08975220980c89e726,18,female,English,2024-07-01_15h17.38.707,ABmemTask3,2023.2.3,Win32,59.88023952,,,,,,,,,,,,,,,,,,,,,,,,,,,,,,,549.2725,550.275,550.2751,7,550.7749,551.9421,0.0013,552.0585,0.1162,0.1164,0.1167,0.1168,0.1166,0.117,0.1163,0.1168,0.1162,0.117,,552.0585,553.3082,right,1.2281,,553.3083,553.8086,left,0.4834,,54,0,92,553.8088,554.8082,,,,,,1_AB,L1_T1P_T2A,1,1,0,6,7,5,4,11,lamp,Did you see the lamp,0.12,0,resources/,pics/chainsaw.jpg,pics/fanblades.jpg,pics/salmon.jpg,pics/proboscismonkey.jpg,pics/boot02b.jpg,pics/lamp04a.jpg,pics/blender.jpg,pics/sink.jpg,pics/pencil01.jpg,pics/floortile02.jpg,pics/shovel01.jpg,blankImage,blankImage,blankImage,blankImage,blankImage,blankImage,lamp04a,37,,,,,,,,,,,,,,,,,,,,,,,,,,,,,,,,,,,,,,,,,0,45,45,36,1,,,,,,,,,,,,,,,,,,,,,,,,,,,,,,,,,,,,,,,,,,,,,,,,,,,,,,,
,,,,,65df4f8e2cd31667722789fa,6682b41eeb79ab8215dff63d,6682ba08975220980c89e726,18,female,English,2024-07-01_15h17.38.707,ABmemTask3,2023.2.3,Win32,59.88023952,,,,,,,,,,,,,,,,,,,,,,,,,,,,,,,554.8242,555.8251,555.8251,7,556.3252,557.2586,0.0019,557.3751,0.1154,0.1164,0.1168,0.1165,0.1166,0.1169,0.1165,0.1167,,,,557.3751,558.275,right,0.8777,,558.2751,558.5416,left,0.26,,54,0,94,558.5417,559.5417,,,,,,1_AB,L1_T1P_T2P,1,1,1,5,6,4,3,9,paint brush,Did you see the paint brush,0.12,0,resources/,pics/nutcracker01.jpg,pics/piggybank.jpg,pics/spiderweb.jpg,pics/table01.jpg,pics/paintbrush01.jpg,pics/stapler09.jpg,pics/hose.jpg,pics/cannon.jpg,pics/mummy.jpg,blankImage,blankImage,blankImage,blankImage,blankImage,blankImage,blankImage,blankImage,paintbrush01,20,,,,,,,,,,,,,,,,,,,,,,,,,,,,,,,,,,,,,,,,,0,46,46,19,1,,,,,,,,,,,,,,,,,,,,,,,,,,,,,,,,,,,,,,,,,,,,,,,,,,,,,,,
,,,,,65df4f8e2cd31667722789fa,6682b41eeb79ab8215dff63d,6682ba08975220980c89e726,18,female,English,2024-07-01_15h17.38.707,ABmemTask3,2023.2.3,Win32,59.88023952,,,,,,,,,,,,,,,,,,,,,,,,,,,,,,,559.5425,560.5416,560.5416,7,561.0416,562.2087,0.0009,562.3248,0.1163,0.1163,0.1172,0.1166,0.1167,0.1166,0.1167,0.1169,0.1163,0.1169,,562.3249,563.2584,right,0.9141,,563.2586,563.525,left,0.2537,,54,0,96,563.525,564.5251,,,,,,1_AB,L1_T1P_T2P,1,1,1,7,8,6,3,11,medal,Did you see the medal,0.12,0,resources/,pics/hen.jpg,pics/starfish01.jpg,pics/nutcracker01.jpg,pics/ball02.jpg,pics/fanblades.jpg,pics/christmaslights.jpg,pics/medal02b.jpg,pics/stapler09.jpg,pics/carrot01.jpg,pics/hammerheadshark.jpg,pics/sailboat.jpg,blankImage,blankImage,blankImage,blankImage,blankImage,blankImage,medal02b,19,,,,,,,,,,,,,,,,,,,,,,,,,,,,,,,,,,,,,,,,,0,47,47,18,1,,,,,,,,,,,,,,,,,,,,,,,,,,,,,,,,,,,,,,,,,,,,,,,,,,,,,,,
,,,,,65df4f8e2cd31667722789fa,6682b41eeb79ab8215dff63d,6682ba08975220980c89e726,18,female,English,2024-07-01_15h17.38.707,ABmemTask3,2023.2.3,Win32,59.88023952,,,,,,,,,,,,,,,,,,,,,,,,,,,,,,,564.5258,565.525,565.525,7,566.0249,567.5424,0.0016,567.6583,0.1163,0.1165,0.1163,0.1165,0.1165,0.1171,0.1166,0.1167,0.1166,0.117,0.1164,567.6584,568.3585,right,0.677,,568.3586,569.0084,left,0.6394,,56,0,98,569.0086,570.0082,,,,,,1_AB,L5_T1P_T2A,5,1,0,4,9,3,5,14,Frisbee,Did you see the Frisbee,0.12,0,resources/,pics/giraffe.jpg,pics/christmaslights.jpg,pics/bowtie.jpg,pics/frisbee.jpg,pics/banjo.jpg,pics/calendar.jpg,pics/butterfly.jpg,pics/onion.jpg,pics/starfish01.jpg,pics/footballhelmet.jpg,pics/blender.jpg,pics/candleholder01.jpg,pics/hairdryer02a.jpg,pics/dromedary.jpg,blankImage,blankImage,blankImage,frisbee,58,0.1167,0.117,,,,,,,,,,,,,,,,,,,,,,,,,,,,,,,,,,,,,,,0,48,48,57,1,,,,,,,,,,,,,,,,,,,,,,,,,,,,,,,,,,,,,,,,,,,,,,,,,,,,,,,
,,,,,65df4f8e2cd31667722789fa,6682b41eeb79ab8215dff63d,6682ba08975220980c89e726,18,female,English,2024-07-01_15h17.38.707,ABmemTask3,2023.2.3,Win32,59.88023952,,,,,,,,,,,,,,,,,,,,,,,,,,,,,,,570.0087,571.0081,571.0082,7,571.5083,572.6751,0.001,572.7916,0.116,0.1171,0.1167,0.1169,0.1166,0.1161,0.1167,0.1165,0.1167,0.1166,,572.7917,573.825,left,1.0227,,573.825,574.9751,left,1.1427,,58,0,100,574.9752,575.9749,,,,,,1_AB,L1_T1A_T2A,1,0,0,7,8,6,3,11,Poker chips,Did you see the Poker chips,0.12,0,resources/,pics/candle01.jpg,pics/proboscismonkey.jpg,pics/fanblades.jpg,pics/dromedary.jpg,pics/aquarium.jpg,pics/salmon.jpg,pics/hose.jpg,pics/kangaroo.jpg,pics/noparkingsign.jpg,pics/carrot01.jpg,pics/leaf02a.jpg,blankImage,blankImage,blankImage,blankImage,blankImage,blankImage,pokerchips,41,,,,,,,,,,,,,,,,,,,,,,,,,,,,,,,,,,,,,,,,,0,49,49,40,1,,,,,,,,,,,,,,,,,,,,,,,,,,,,,,,,,,,,,,,,,,,,,,,,,,,,,,,
,,,,,65df4f8e2cd31667722789fa,6682b41eeb79ab8215dff63d,6682ba08975220980c89e726,18,female,English,2024-07-01_15h17.38.707,ABmemTask3,2023.2.3,Win32,59.88023952,,,,,,,,,,,,,,,,,,,,,,,,,,,,,,,575.9894,576.9917,576.9917,7,577.4916,578.8919,0.0014,579.0086,0.1162,0.1172,0.1162,0.1158,0.1173,0.1167,0.1169,0.1163,0.1172,0.1163,0.1166,579.0087,580.1916,right,1.1638,,580.1917,580.6416,right,0.4361,,60,0,102,580.6417,581.6418,,,,,,1_AB,L1_T1P_T2P,1,1,1,7,8,6,5,13,Totem Pole,Did you see the Totem Pole,0.12,0,resources/,pics/laptop01a.jpg,pics/carrot01.jpg,pics/wheel01.jpg,pics/icecube01.jpg,pics/ashtray01.jpg,pics/lock03a.jpg,pics/totempole.jpg,pics/stapler08.jpg,pics/golfball.jpg,pics/pencil01.jpg,pics/banjo.jpg,pics/sandbarshark.jpg,pics/shipinabottle.jpg,blankImage,blankImage,blankImage,blankImage,totempole,22,0.1164,,,,,,,,,,,,,,,,,,,,,,,,,,,,,,,,,,,,,,,,0,50,50,21,1,,,,,,,,,,,,,,,,,,,,,,,,,,,,,,,,,,,,,,,,,,,,,,,,,,,,,,,
,,,,,65df4f8e2cd31667722789fa,6682b41eeb79ab8215dff63d,6682ba08975220980c89e726,18,female,English,2024-07-01_15h17.38.707,ABmemTask3,2023.2.3,Win32,59.88023952,,,,,,,,,,,,,,,,,,,,,,,,,,,,,,,581.6424,582.6415,582.6415,7,583.1417,584.7753,0.0015,584.8917,0.1158,0.1169,0.1162,0.1167,0.1167,0.1167,0.1165,0.1167,0.1166,0.1168,0.117,584.8917,585.9418,left,1.0312,,585.9419,586.675,left,0.7258,,60,0,104,586.675,587.6751,,,,,,1_AB,L5_T1A_T2P,5,0,1,7,12,6,3,15,scissors,Did you see the scissors,0.12,0,resources/,pics/cannon.jpg,pics/mummy.jpg,pics/shovel01.jpg,pics/christmaslights.jpg,pics/snowshoe.jpg,pics/candle01.jpg,pics/bowtie.jpg,pics/giraffe.jpg,pics/carrot01.jpg,pics/spoon01.jpg,pics/seaturtle.jpg,pics/stapler10.jpg,pics/footballhelmet.jpg,pics/onion.jpg,pics/wheel01.jpg,blankImage,blankImage,scissors01,57,0.1164,0.1168,0.1167,,,,,,,,,,,,,,,,,,,,,,,,,,,,,,,,,,,,,,0,51,51,56,1,,,,,,,,,,,,,,,,,,,,,,,,,,,,,,,,,,,,,,,,,,,,,,,,,,,,,,,
,,,,,65df4f8e2cd31667722789fa,6682b41eeb79ab8215dff63d,6682ba08975220980c89e726,18,female,English,2024-07-01_15h17.38.707,ABmemTask3,2023.2.3,Win32,59.88023952,,,,,,,,,,,,,,,,,,,,,,,,,,,,,,,587.692,588.6916,588.6917,7,589.1915,590.2422,0.001,590.3583,0.1165,0.1168,0.1169,0.1166,0.1164,0.1166,0.117,0.1166,0.1168,,,590.3584,591.2753,left,0.9012,,591.2753,591.5751,right,0.2884,,60,0,106,591.5752,592.575,,,,,,1_AB,L1_T1P_T2P,1,1,1,5,6,4,4,10,thermometer,Did you see the thermometer,0.12,0,resources/,pics/triangle.jpg,pics/shovel01.jpg,pics/mummy.jpg,pics/noparkingsign.jpg,pics/thermometer02b.jpg,pics/stapler04.jpg,pics/piggybank.jpg,pics/golfball.jpg,pics/laptop01a.jpg,pics/aquarium.jpg,blankImage,blankImage,blankImage,blankImage,blankImage,blankImage,blankImage,thermometer02b,8,,,,,,,,,,,,,,,,,,,,,,,,,,,,,,,,,,,,,,,,,0,52,52,7,1,,,,,,,,,,,,,,,,,,,,,,,,,,,,,,,,,,,,,,,,,,,,,,,,,,,,,,,
,,,,,65df4f8e2cd31667722789fa,6682b41eeb79ab8215dff63d,6682ba08975220980c89e726,18,female,English,2024-07-01_15h17.38.707,ABmemTask3,2023.2.3,Win32,59.88023952,,,,,,,,,,,,,,,,,,,,,,,,,,,,,,,592.5758,593.575,593.575,7,594.075,595.7088,0.0011,595.8252,0.1163,0.1168,0.1165,0.1169,0.1165,0.1168,0.1166,0.1165,0.1166,0.1168,0.1168,595.8254,596.4084,right,0.5613,,596.4085,596.6251,right,0.2087,,62,0,108,596.6252,597.625,,,,,,1_AB,L5_T1P_T2P,5,1,1,6,11,5,4,15,toast,Did you see the toast,0.12,0,resources/,pics/piggybank.jpg,pics/leaf02a.jpg,pics/carrot01.jpg,pics/birdhouse.jpg,pics/bowlingpin.jpg,pics/toast.jpg,pics/spiderweb.jpg,pics/cork02.jpg,pics/sink.jpg,pics/nutcracker01.jpg,pics/stapler02.jpg,pics/ashtray01.jpg,pics/fanblades.jpg,pics/pencil01.jpg,pics/lightswitch01.jpg,blankImage,blankImage,toast,46,0.1166,0.1163,0.117,,,,,,,,,,,,,,,,,,,,,,,,,,,,,,,,,,,,,,0,53,53,45,1,,,,,,,,,,,,,,,,,,,,,,,,,,,,,,,,,,,,,,,,,,,,,,,,,,,,,,,
,,,,,65df4f8e2cd31667722789fa,6682b41eeb79ab8215dff63d,6682ba08975220980c89e726,18,female,English,2024-07-01_15h17.38.707,ABmemTask3,2023.2.3,Win32,59.88023952,,,,,,,,,,,,,,,,,,,,,,,,,,,,,,,597.6257,598.6251,598.6252,7,599.1252,600.5254,0.0014,600.6416,0.1158,0.1166,0.1167,0.1168,0.1168,0.1166,0.1171,0.1165,0.1166,0.1161,0.1171,600.6417,601.4748,left,0.8192,,601.4749,601.7084,left,0.2224,,64,0,110,601.7084,602.7082,,,,,,1_AB,L1_T1A_T2A,1,0,0,7,8,6,5,13,fan,Did you see the fan,0.12,0,resources/,pics/leaf02a.jpg,pics/dustpan.jpg,pics/pencil01.jpg,pics/kangaroo.jpg,pics/golfball.jpg,pics/lightswitch01.jpg,pics/nutcracker01.jpg,pics/calendar.jpg,pics/hose.jpg,pics/starfish01.jpg,pics/siamesecat.jpg,pics/bowlingpin.jpg,pics/necklace.jpg,blankImage,blankImage,blankImage,blankImage,fan,42,0.1165,,,,,,,,,,,,,,,,,,,,,,,,,,,,,,,,,,,,,,,,0,54,54,41,1,,,,,,,,,,,,,,,,,,,,,,,,,,,,,,,,,,,,,,,,,,,,,,,,,,,,,,,
,,,,,65df4f8e2cd31667722789fa,6682b41eeb79ab8215dff63d,6682ba08975220980c89e726,18,female,English,2024-07-01_15h17.38.707,ABmemTask3,2023.2.3,Win32,59.88023952,,,,,,,,,,,,,,,,,,,,,,,,,,,,,,,602.7086,603.7086,603.7086,7,604.2083,605.3754,0.0007,605.4917,0.1164,0.1175,0.1168,0.1162,0.1168,0.1168,0.1167,0.1163,0.1168,0.1164,,605.4918,606.5419,right,1.0283,,606.5421,606.8585,left,0.3084,,66,0,112,606.8586,607.8586,,,,,,1_AB,L1_T1P_T2A,1,1,0,7,8,6,3,11,garlic,Did you see the garlic,0.12,0,resources/,pics/zebra.jpg,pics/banjo.jpg,pics/pencilsharpener02a.jpg,pics/football.jpg,pics/candle01.jpg,pics/footballhelmet.jpg,pics/garlic01a.jpg,pics/birdhouse.jpg,pics/peach01.jpg,pics/pictureframe04.jpg,pics/binder03b.jpg,blankImage,blankImage,blankImage,blankImage,blankImage,blankImage,garlic01a,33,,,,,,,,,,,,,,,,,,,,,,,,,,,,,,,,,,,,,,,,,0,55,55,32,1,,,,,,,,,,,,,,,,,,,,,,,,,,,,,,,,,,,,,,,,,,,,,,,,,,,,,,,
,,,,,65df4f8e2cd31667722789fa,6682b41eeb79ab8215dff63d,6682ba08975220980c89e726,18,female,English,2024-07-01_15h17.38.707,ABmemTask3,2023.2.3,Win32,59.88023952,,,,,,,,,,,,,,,,,,,,,,,,,,,,,,,607.8593,608.8587,608.8587,7,609.3586,610.8754,0.0012,610.9918,0.1159,0.1171,0.1162,0.1169,0.1169,0.1164,0.1169,0.117,0.1161,0.1167,0.1169,610.9919,611.8253,right,0.8121,,611.8253,613.1248,left,1.2839,,62,0,114,613.1248,614.1248,,,,,,1_AB,L5_T1A_T2P,5,0,1,4,9,3,5,14,lemon,Did you see the lemon,0.12,0,resources/,pics/seaturtle.jpg,pics/lightswitch01.jpg,pics/candle01.jpg,pics/cannon.jpg,pics/seagull.jpg,pics/spoon01.jpg,pics/spiderweb.jpg,pics/sewingmachine01a.jpg,pics/stapler05.jpg,pics/binoculars01b.jpg,pics/zebra.jpg,pics/sealion.jpg,pics/shovel01.jpg,pics/wheel01.jpg,blankImage,blankImage,blankImage,lemon02,56,0.1166,0.1163,,,,,,,,,,,,,,,,,,,,,,,,,,,,,,,,,,,,,,,0,56,56,55,1,,,,,,,,,,,,,,,,,,,,,,,,,,,,,,,,,,,,,,,,,,,,,,,,,,,,,,,
,,,,,65df4f8e2cd31667722789fa,6682b41eeb79ab8215dff63d,6682ba08975220980c89e726,18,female,English,2024-07-01_15h17.38.707,ABmemTask3,2023.2.3,Win32,59.88023952,,,,,,,,,,,,,,,,,,,,,,,,,,,,,,,614.132,615.1252,615.1252,7,615.6253,616.7919,0.0016,616.9082,0.1157,0.1168,0.1166,0.1167,0.1168,0.1167,0.1166,0.1161,0.1167,0.1168,,616.9083,617.6249,left,0.6965,,617.6249,618.5582,right,0.9248,,64,0,116,618.5582,619.5586,,,,,,1_AB,L1_T1A_T2P,1,0,1,7,8,6,3,11,turkey,Did you see the turkey,0.12,0,resources/,pics/proboscismonkey.jpg,pics/blender.jpg,pics/sealion.jpg,pics/snowshoe.jpg,pics/carrot01.jpg,pics/microscope.jpg,pics/piggybank.jpg,pics/stapler12.jpg,pics/peanut01.jpg,pics/dustpan.jpg,pics/footballhelmet.jpg,blankImage,blankImage,blankImage,blankImage,blankImage,blankImage,turkey,26,,,,,,,,,,,,,,,,,,,,,,,,,,,,,,,,,,,,,,,,,0,57,57,25,1,,,,,,,,,,,,,,,,,,,,,,,,,,,,,,,,,,,,,,,,,,,,,,,,,,,,,,,
,,,,,65df4f8e2cd31667722789fa,6682b41eeb79ab8215dff63d,6682ba08975220980c89e726,18,female,English,2024-07-01_15h17.38.707,ABmemTask3,2023.2.3,Win32,59.88023952,,,,,,,,,,,,,,,,,,,,,,,,,,,,,,,619.5757,620.5749,620.5749,7,621.0753,622.1256,0.0013,622.2422,0.1154,0.1167,0.1168,0.1162,0.1171,0.1166,0.1174,0.1169,0.1164,,,622.2424,623.1751,right,0.9115,,623.1751,623.592,left,0.3994,,66,0,118,623.592,624.5918,,,,,,1_AB,L1_T1P_T2A,1,1,0,6,7,5,3,10,Duct tape,Did you see the Duct tape,0.12,0,resources/,pics/butterfly.jpg,pics/noparkingsign.jpg,pics/pictureframe04.jpg,pics/cork02.jpg,pics/fanblades.jpg,pics/ducttape.jpg,pics/icecube01.jpg,pics/siamesecat.jpg,pics/sink.jpg,pics/sandbarshark.jpg,blankImage,blankImage,blankImage,blankImage,blankImage,blankImage,blankImage,ducttape,36,,,,,,,,,,,,,,,,,,,,,,,,,,,,,,,,,,,,,,,,,0,58,58,35,1,,,,,,,,,,,,,,,,,,,,,,,,,,,,,,,,,,,,,,,,,,,,,,,,,,,,,,,
,,,,,65df4f8e2cd31667722789fa,6682b41eeb79ab8215dff63d,6682ba08975220980c89e726,18,female,English,2024-07-01_15h17.38.707,ABmemTask3,2023.2.3,Win32,59.88023952,,,,,,,,,,,,,,,,,,,,,,,,,,,,,,,624.5924,625.5917,625.5918,7,626.0918,627.0255,0.0012,627.1419,0.1167,0.1165,0.1164,0.1169,0.1165,0.117,0.1158,0.1171,,,,627.1419,628.0252,right,0.8662,,628.0253,628.3086,left,0.2735,,68,0,120,628.3087,629.3086,,,,,,1_AB,L1_T1P_T2A,1,1,0,4,5,3,4,9,blueberry,Did you see the blueberry,0.12,0,resources/,pics/sealion.jpg,pics/piggybank.jpg,pics/sink.jpg,pics/blueberry01.jpg,pics/onion.jpg,pics/sailboat.jpg,pics/seaturtle.jpg,pics/hen.jpg,pics/fanblades.jpg,blankImage,blankImage,blankImage,blankImage,blankImage,blankImage,blankImage,blankImage,blueberry01,35,,,,,,,,,,,,,,,,,,,,,,,,,,,,,,,,,,,,,,,,,0,59,59,34,1,,,,,,,,,,,,,,,,,,,,,,,,,,,,,,,,,,,,,,,,,,,,,,,,,,,,,,,
,,,,,65df4f8e2cd31667722789fa,6682b41eeb79ab8215dff63d,6682ba08975220980c89e726,18,female,English,2024-07-01_15h17.38.707,ABmemTask3,2023.2.3,Win32,59.88023952,,,,,,,,,,,,,,,,,,,,,,,,,,,,,,,629.3094,630.3083,630.3083,7,630.8086,631.7419,0.0013,631.8584,0.1157,0.1164,0.1169,0.1165,0.1166,0.1172,0.1163,0.1166,,,,631.8585,632.5595,right,0.6823,,632.5597,632.8252,right,0.25,,70,0,122,632.8254,633.825,,,,,,1_AB,L1_T1P_T2P,1,1,1,4,5,3,4,9,antenna,Did you see the antenna,0.12,0,resources/,pics/microscope.jpg,pics/spoon01.jpg,pics/dromedary.jpg,pics/antenna.jpg,pics/stapler03.jpg,pics/hen.jpg,pics/leaf02a.jpg,pics/candle01.jpg,pics/sealion.jpg,blankImage,blankImage,blankImage,blankImage,blankImage,blankImage,blankImage,blankImage,antenna,9,,,,,,,,,,,,,,,,,,,,,,,,,,,,,,,,,,,,,,,,,0,60,60,8,1,,,,,,,,,,,,,,,,,,,,,,,,,,,,,,,,,,,,,,,,,,,,,,,,,,,,,,,
,,,,,65df4f8e2cd31667722789fa,6682b41eeb79ab8215dff63d,6682ba08975220980c89e726,18,female,English,2024-07-01_15h17.38.707,ABmemTask3,2023.2.3,Win32,59.88023952,,,,,,,,,,,,,,,,,,,,,,,,,,,,,,,633.8255,634.8253,634.8253,7,635.325,636.842,0.0009,636.9583,0.1163,0.1165,0.1164,0.1169,0.1169,0.1165,0.1166,0.1167,0.1166,0.1168,0.1165,636.9584,637.4751,right,0.4989,,637.4751,637.6918,right,0.2009,,72,0,124,637.6918,638.6916,,,,,,1_AB,L5_T1P_T2P,5,1,1,6,11,5,3,14,truck,Did you see the truck,0.12,0,resources/,pics/calendar.jpg,pics/mummy.jpg,pics/ashtray01.jpg,pics/pencilsharpener02a.jpg,pics/dustpan.jpg,pics/boxtruck.jpg,pics/lightswitch01.jpg,pics/pictureframe04.jpg,pics/starfish01.jpg,pics/zebra.jpg,pics/stapler12.jpg,pics/bowtie.jpg,pics/candleholder01.jpg,pics/candle01.jpg,blankImage,blankImage,blankImage,boxtruck,50,0.1169,0.1166,,,,,,,,,,,,,,,,,,,,,,,,,,,,,,,,,,,,,,,0,61,61,49,1,,,,,,,,,,,,,,,,,,,,,,,,,,,,,,,,,,,,,,,,,,,,,,,,,,,,,,,
,,,,,65df4f8e2cd31667722789fa,6682b41eeb79ab8215dff63d,6682ba08975220980c89e726,18,female,English,2024-07-01_15h17.38.707,ABmemTask3,2023.2.3,Win32,59.88023952,,,,,,,,,,,,,,,,,,,,,,,,,,,,,,,,,,,,,,,,,,,,,,,,,,,,,,,,,,,,,,,,,,,,,,,,,,,,,,,,,,,,,,,,,,,,,,,,,,,,,,,,,,,638.6924,645.5768,space,6.8675,,,,,,,,,,,,,,,,,,,,,,,,,,,,,,,,,,,,,,,,,,,,,,,,,,,,,,,,,,,,,,,,,,,,,,,,,,,,,,,,,,,,,,,,,,,,,
,,,,,65df4f8e2cd31667722789fa,6682b41eeb79ab8215dff63d,6682ba08975220980c89e726,18,female,English,2024-07-01_15h17.38.707,ABmemTask3,2023.2.3,Win32,59.88023952,,,space,186.6334,,,,,,,,,,,,,,,,,,,,,,,,,,,,,,,,,,,,,,,,,,,,,,,,,,,,,,,,,,,,,,,,,,,,,,,,,,,,,,,,,,,,,,,,,,,,,,,,,,,,,,,,,,,,,,,,,,,,,,,,,,,,,,,,,,,,,,,,,,,,,,,,,,,645.577,832.25,,,,,,,,,,,,,,,,,,,,,,,,,,,,,,,,,,,,,,,,,,,,,,,,,,,
,,,,,65df4f8e2cd31667722789fa,6682b41eeb79ab8215dff63d,6682ba08975220980c89e726,18,female,English,2024-07-01_15h17.38.707,ABmemTask3,2023.2.3,Win32,59.88023952,,,,,,,,,,,,,,,,,,,,,,,,,,,,,,,,,,,,,,,,,,,,,,,,,,,,,,,,,,,,,,,,,,,,,,,,,,,,,,,,,,,,,,,,,,,,,,,,,,,,,,,,,,,,,,,,,,,,,,,,,,,,,,,,,,,,,,,,,,,,,,,,,,,,,,,,,832.2503,845.6623,space,13.3616,,,,,,,,,,,,,,,,,,,,,,,,,,,,,,,,,,,,,,,,,,,,,,,
,,,,,65df4f8e2cd31667722789fa,6682b41eeb79ab8215dff63d,6682ba08975220980c89e726,18,female,English,2024-07-01_15h17.38.707,ABmemTask3,2023.2.3,Win32,59.88023952,,,,,,,,,,,,,,,,,,,,,,,,,,,,,,,845.6853,846.6765,846.6765,7,847.1762,848.4602,0.002,848.5761,0.1159,0.1162,0.1163,0.1167,0.1169,0.1163,0.1169,0.1171,0.1163,0.1164,0.1174,848.5763,849.4595,right,0.871,,,,,,,1,72,2,849.4597,850.4598,,,,,,2_AB,L5_T1P_T2P,5,1,1,4,9,3,3,12,tent,Did you see the tent,0.12,0,resources/,pics/spiderweb.jpg,pics/hairdryer02a.jpg,pics/noparkingsign.jpg,pics/tent.jpg,pics/nutcracker01.jpg,pics/boot02b.jpg,pics/golfball.jpg,pics/candle01.jpg,pics/stapler08.jpg,pics/fanblades.jpg,pics/cannon.jpg,pics/lightswitch01.jpg,blankImage,blankImage,blankImage,blankImage,blankImage,tent,51,,,,,,,,,,,,,,,,,,,,,,,,,,,,,,,,,,,,,,,,,,,,,,,,,,,,,,,0,0,0,50,1,,,,,,,,,,,,,,,,,,,,,,,,,,,,,,,,,,,,,,,,,
,,,,,65df4f8e2cd31667722789fa,6682b41eeb79ab8215dff63d,6682ba08975220980c89e726,18,female,English,2024-07-01_15h17.38.707,ABmemTask3,2023.2.3,Win32,59.88023952,,,,,,,,,,,,,,,,,,,,,,,,,,,,,,,850.4606,851.4593,851.4593,7,851.9594,852.7764,0.0013,852.893,0.1165,0.1167,0.1166,0.1165,0.1168,0.1163,0.1167,,,,,852.8932,857.3931,right,4.4864,,,,,,,2,72,4,857.3932,858.3927,,,,,,2_AB,L1_T1P_T2A,1,1,0,4,5,3,3,8,almonds,Did you see the almonds,0.12,0,resources/,pics/shovel01.jpg,pics/icecube01.jpg,pics/candleholder01.jpg,pics/almond.jpg,pics/onion.jpg,pics/lightswitch01.jpg,pics/lock03a.jpg,pics/pencilsharpener02a.jpg,blankImage,blankImage,blankImage,blankImage,blankImage,blankImage,blankImage,blankImage,blankImage,almond,38,,,,,,,,,,,,,,,,,,,,,,,,,,,,,,,,,,,,,,,,,,,,,,,,,,,,,,,0,1,1,37,1,,,,,,,,,,,,,,,,,,,,,,,,,,,,,,,,,,,,,,,,,
,,,,,65df4f8e2cd31667722789fa,6682b41eeb79ab8215dff63d,6682ba08975220980c89e726,18,female,English,2024-07-01_15h17.38.707,ABmemTask3,2023.2.3,Win32,59.88023952,,,,,,,,,,,,,,,,,,,,,,,,,,,,,,,858.4096,859.4094,859.4095,7,859.9095,861.7765,0.0016,861.8927,0.1158,0.1168,0.1165,0.1169,0.1162,0.1174,0.1162,0.1165,0.1166,0.1167,0.1168,861.8928,865.8264,left,3.9156,,,,,,,3,72,6,865.8264,866.826,,,,,,2_AB,L5_T1A_T2A,5,0,0,7,12,6,5,17,dropper,Did you see the dropper,0.12,0,resources/,pics/icecube01.jpg,pics/piggybank.jpg,pics/dromedary.jpg,pics/birdhouse.jpg,pics/fanblades.jpg,pics/wheel01.jpg,pics/sewingmachine01a.jpg,pics/cork02.jpg,pics/hen.jpg,pics/onion.jpg,pics/boot02b.jpg,pics/golfball.jpg,pics/cymbal.jpg,pics/cannon.jpg,pics/lock03a.jpg,pics/christmaslights.jpg,pics/dustpan.jpg,dropper01,62,0.1166,0.1165,0.1167,,,,,,,,,,,,,,,,,,,,,,,,,,,,,,,,,,,,,,,,,,,0.1166,0.1168,,,,,,,,0,2,2,61,1,,,,,,,,,,,,,,,,,,,,,,,,,,,,,,,,,,,,,,,,,
,,,,,65df4f8e2cd31667722789fa,6682b41eeb79ab8215dff63d,6682ba08975220980c89e726,18,female,English,2024-07-01_15h17.38.707,ABmemTask3,2023.2.3,Win32,59.88023952,,,,,,,,,,,,,,,,,,,,,,,,,,,,,,,866.843,867.8468,867.8468,7,868.3435,869.3937,0.0015,869.5136,0.1156,0.1167,0.1169,0.1184,0.1163,0.1149,0.1205,0.1133,0.1163,,,869.5137,869.9764,right,0.4346,,,,,,,4,72,8,869.9765,870.9762,,,,,,2_AB,L1_T1P_T2A,1,1,0,4,5,3,5,10,surf board,Did you see the surf board,0.12,0,resources/,pics/sealion.jpg,pics/necklace.jpg,pics/hose.jpg,pics/surfboard.jpg,pics/butterfly.jpg,pics/golfball.jpg,pics/safetypin.jpg,pics/giraffe.jpg,pics/pencil01.jpg,pics/ashtray01.jpg,blankImage,blankImage,blankImage,blankImage,blankImage,blankImage,blankImage,surfboard,36,,,,,,,,,,,,,,,,,,,,,,,,,,,,,,,,,,,,,,,,,,,,,,,,,,,,,,,0,3,3,35,1,,,,,,,,,,,,,,,,,,,,,,,,,,,,,,,,,,,,,,,,,
,,,,,65df4f8e2cd31667722789fa,6682b41eeb79ab8215dff63d,6682ba08975220980c89e726,18,female,English,2024-07-01_15h17.38.707,ABmemTask3,2023.2.3,Win32,59.88023952,,,,,,,,,,,,,,,,,,,,,,,,,,,,,,,870.977,871.9781,871.9781,7,872.4762,874.2305,0.0017,874.3458,0.1161,0.1164,0.1206,0.1128,0.1168,0.1163,0.1169,0.1167,0.1168,0.1207,0.1128,874.346,874.7767,right,0.4026,,,,,,,5,72,10,874.7768,875.7769,,,,,,2_AB,L5_T1P_T2P,5,1,1,6,11,5,5,16,Escalator,Did you see the Escalator,0.12,0,resources/,pics/carrot01.jpg,pics/microscope.jpg,pics/peanut01.jpg,pics/chainsaw.jpg,pics/icecube01.jpg,pics/escalator.jpg,pics/piggybank.jpg,pics/table01.jpg,pics/butterfly.jpg,pics/siamesecat.jpg,pics/stapler09.jpg,pics/noparkingsign.jpg,pics/peach01.jpg,pics/cannon.jpg,pics/shipinabottle.jpg,pics/football.jpg,blankImage,escalator,47,0.1164,0.1165,0.117,,,,,,,,,,,,,,,,,,,,,,,,,,,,,,,,,,,,,,,,,,,0.1202,,,,,,,,,0,4,4,46,1,,,,,,,,,,,,,,,,,,,,,,,,,,,,,,,,,,,,,,,,,
,,,,,65df4f8e2cd31667722789fa,6682b41eeb79ab8215dff63d,6682ba08975220980c89e726,18,female,English,2024-07-01_15h17.38.707,ABmemTask3,2023.2.3,Win32,59.88023952,,,,,,,,,,,,,,,,,,,,,,,,,,,,,,,875.7776,876.7765,876.7766,7,877.2761,878.6773,0.0018,878.7931,0.1161,0.1165,0.117,0.1166,0.1167,0.1179,0.1169,0.1153,0.1162,0.1167,0.1166,878.7933,879.4271,right,0.6058,,,,,,,6,72,12,879.4272,880.4265,,,,,,2_AB,L1_T1P_T2P,1,1,1,7,8,6,5,13,Stool,Did you see the Stool,0.12,0,resources/,pics/boot02b.jpg,pics/sewingmachine01a.jpg,pics/kangaroo.jpg,pics/hairdryer02a.jpg,pics/floortile02.jpg,pics/onion.jpg,pics/stool01.jpg,pics/stapler07.jpg,pics/laptop01a.jpg,pics/zebra.jpg,pics/starfish01.jpg,pics/candleholder01.jpg,pics/hose.jpg,blankImage,blankImage,blankImage,blankImage,stool01,7,0.1172,,,,,,,,,,,,,,,,,,,,,,,,,,,,,,,,,,,,,,,,,,,,,,,,,,,,,,0,5,5,6,1,,,,,,,,,,,,,,,,,,,,,,,,,,,,,,,,,,,,,,,,,
,,,,,65df4f8e2cd31667722789fa,6682b41eeb79ab8215dff63d,6682ba08975220980c89e726,18,female,English,2024-07-01_15h17.38.707,ABmemTask3,2023.2.3,Win32,59.88023952,,,,,,,,,,,,,,,,,,,,,,,,,,,,,,,880.4274,881.4264,881.4265,7,881.9267,882.9773,0.0016,883.0974,0.1196,0.1129,0.1201,0.113,0.1168,0.1211,0.1154,0.1131,0.1172,,,883.0975,883.5431,right,0.4251,,,,,,,7,72,14,883.5433,884.5434,,,,,,2_AB,L1_T1P_T2P,1,1,1,4,5,3,5,10,church,Did you see the church,0.12,0,resources/,pics/sewingmachine01a.jpg,pics/footballhelmet.jpg,pics/floortile02.jpg,pics/church.jpg,pics/stapler13.jpg,pics/football.jpg,pics/calendar.jpg,pics/ashtray01.jpg,pics/blender.jpg,pics/spoon01.jpg,blankImage,blankImage,blankImage,blankImage,blankImage,blankImage,blankImage,church,15,,,,,,,,,,,,,,,,,,,,,,,,,,,,,,,,,,,,,,,,,,,,,,,,,,,,,,,0,6,6,14,1,,,,,,,,,,,,,,,,,,,,,,,,,,,,,,,,,,,,,,,,,
,,,,,65df4f8e2cd31667722789fa,6682b41eeb79ab8215dff63d,6682ba08975220980c89e726,18,female,English,2024-07-01_15h17.38.707,ABmemTask3,2023.2.3,Win32,59.88023952,,,,,,,,,,,,,,,,,,,,,,,,,,,,,,,884.5443,885.5434,885.5435,7,886.0429,887.2104,0.0019,887.3305,0.1156,0.1172,0.1165,0.1168,0.1166,0.1166,0.1206,0.1165,0.113,0.1164,,887.3306,888.2639,left,0.917,,,,,,,8,72,16,888.264,889.2626,,,,,,2_AB,L1_T1A_T2P,1,0,1,6,7,5,4,11,Eye,Did you see the Eye,0.12,0,resources/,pics/spoon01.jpg,pics/ball02.jpg,pics/sandbarshark.jpg,pics/pencil01.jpg,pics/icecube01.jpg,pics/floortile02.jpg,pics/stapler03.jpg,pics/binder03b.jpg,pics/hairdryer02a.jpg,pics/laptop01a.jpg,pics/sewingmachine01a.jpg,blankImage,blankImage,blankImage,blankImage,blankImage,blankImage,eye,24,,,,,,,,,,,,,,,,,,,,,,,,,,,,,,,,,,,,,,,,,,,,,,,,,,,,,,,0,7,7,23,1,,,,,,,,,,,,,,,,,,,,,,,,,,,,,,,,,,,,,,,,,
,,,,,65df4f8e2cd31667722789fa,6682b41eeb79ab8215dff63d,6682ba08975220980c89e726,18,female,English,2024-07-01_15h17.38.707,ABmemTask3,2023.2.3,Win32,59.88023952,,,,,,,,,,,,,,,,,,,,,,,,,,,,,,,889.2632,890.2595,890.2596,7,890.7596,891.6937,0.0017,891.8138,0.1164,0.1165,0.1168,0.1202,0.1169,0.1125,0.1204,0.1132,,,,891.8138,892.3481,left,0.5176,,,,,,,9,72,18,892.3482,893.3432,,,,,,2_AB,L1_T1A_T2A,1,0,0,5,6,4,3,9,kiwi,Did you see the kiwi,0.12,0,resources/,pics/cymbal.jpg,pics/laptop01a.jpg,pics/aquarium.jpg,pics/safetypin.jpg,pics/shovel01.jpg,pics/peanut01.jpg,pics/binoculars01b.jpg,pics/mummy.jpg,pics/footballhelmet.jpg,blankImage,blankImage,blankImage,blankImage,blankImage,blankImage,blankImage,blankImage,kiwi01a,41,,,,,,,,,,,,,,,,,,,,,,,,,,,,,,,,,,,,,,,,,,,,,,,,,,,,,,,0,8,8,40,1,,,,,,,,,,,,,,,,,,,,,,,,,,,,,,,,,,,,,,,,,
,,,,,65df4f8e2cd31667722789fa,6682b41eeb79ab8215dff63d,6682ba08975220980c89e726,18,female,English,2024-07-01_15h17.38.707,ABmemTask3,2023.2.3,Win32,59.88023952,,,,,,,,,,,,,,,,,,,,,,,,,,,,,,,893.3441,894.3431,894.3432,7,894.8433,895.7769,0.0014,895.896,0.1161,0.1169,0.1161,0.1168,0.1165,0.1168,0.1167,0.1167,,,,895.8961,896.6647,left,0.7508,,,,,,,10,72,20,896.6648,897.6595,,,,,,2_AB,L1_T1A_T2P,1,0,1,4,5,3,4,9,comb,Did you see the comb,0.12,0,resources/,pics/fanblades.jpg,pics/sailboat.jpg,pics/giraffe.jpg,pics/backpack01a.jpg,pics/stapler02.jpg,pics/pencilsharpener02a.jpg,pics/spoon01.jpg,pics/bowlingpin.jpg,pics/onion.jpg,blankImage,blankImage,blankImage,blankImage,blankImage,blankImage,blankImage,blankImage,comb02a,31,,,,,,,,,,,,,,,,,,,,,,,,,,,,,,,,,,,,,,,,,,,,,,,,,,,,,,,0,9,9,30,1,,,,,,,,,,,,,,,,,,,,,,,,,,,,,,,,,,,,,,,,,
