consent1.started,consent1.stopped,key_resp_8.keys,key_resp_8.rt,key_resp_8.duration,PROLIFIC_PID,STUDY_ID,SESSION_ID,age,sex,native language,date,expName,psychopyVersion,OS,frameRate,consent2.started,consent2.stopped,key_resp_9.keys,key_resp_9.rt,key_resp_9.duration,consent3.started,consent3.stopped,key_resp_10.keys,key_resp_10.rt,key_resp_10.duration,consent4.started,consent4.stopped,key_resp_11.keys,key_resp_11.rt,key_resp_11.duration,consent5.started,consent5.stopped,key_resp_12.keys,key_resp_12.rt,key_resp_12.duration,bonusInstruct.started,bonusInstruct.stopped,key_resp_14.keys,key_resp_14.rt,key_resp_14.duration,practiceInstruct.started,practiceInstruct.stopped,key_resp.keys,key_resp.rt,key_resp.duration,cueWord_2.started,cueWord_2.stopped,fix.started,frameTarget,fix.stopped,trial.started,img1Add,trial.stopped,img2Add,img3Add,img4Add,img5Add,img6Add,img7Add,img8Add,img9Add,img10Add,img11Add,img12Add,prompt1.started,prompt1.stopped,key_resp_2.keys,key_resp_2.rt,key_resp_2.duration,prompt2.started,prompt2.stopped,key_resp_3.keys,key_resp_3.rt,key_resp_3.duration,runningAcc_AB,runningTotal,runningCount_AB,feedback.started,feedback.stopped,trials.thisRepN,trials.thisTrialN,trials.thisN,trials.thisIndex,trials.ran,TrialType,CondType,Lag,T1_PA,T2_PA,T1Loc,T2Loc,PreDistractor,PostDistractor,TotalImg,cueWord,T1cue,StimLength,isi,PicFolder,Img1,Img2,Img3,Img4,Img5,Img6,Img7,Img8,Img9,Img10,Img11,Img12,Img13,Img14,Img15,Img16,Img17,T1_Identity,trialID,img13Add,img14Add,img15Add,ABfeedback.started,ABfeedback.stopped,key_resp_13.keys,key_resp_13.rt,key_resp_13.duration,MemPracticeInstruction.started,MemPracticeInstruction.stopped,key_resp_5.keys,key_resp_5.rt,key_resp_5.duration,memTrial.started,memTrial.stopped,Mem_runningPoints,key_resp_4.keys,key_resp_4.rt,key_resp_4.duration,memTrialFeedback.started,memTrialFeedback.stopped,trials_2.thisRepN,trials_2.thisTrialN,trials_2.thisN,trials_2.thisIndex,trials_2.ran,ABtrialID,priorLag,image,memFeedback.started,memFeedback.frame,memFeedback.ended,memFeedback.stopped,bonus.started,bonus.stopped,memoryBlockABInstruct.started,memoryBlockABInstruct.stopped,key_resp_6.keys,key_resp_6.rt,key_resp_6.duration,AB_block_1.thisRepN,AB_block_1.thisTrialN,AB_block_1.thisN,AB_block_1.thisIndex,AB_block_1.ran,img16Add,img17Add,AB_break1.started,AB_break1.stopped,PerceiveBlockABInstruct.started,PerceiveBlockABInstruct.stopped,key_resp_7.keys,key_resp_7.rt,key_resp_7.duration,AB_block_2.thisRepN,AB_block_2.thisTrialN,AB_block_2.thisN,AB_block_2.thisIndex,AB_block_2.ran,AB_break2.started,AB_break2.stopped,AB_block_3.thisRepN,AB_block_3.thisTrialN,AB_block_3.thisN,AB_block_3.thisIndex,AB_block_3.ran,AB_break3.started,AB_break3.stopped,AB_block_4.thisRepN,AB_block_4.thisTrialN,AB_block_4.thisN,AB_block_4.thisIndex,AB_block_4.ran,AB_break4.started,AB_break4.stopped,AB_block_5.thisRepN,AB_block_5.thisTrialN,AB_block_5.thisN,AB_block_5.thisIndex,AB_block_5.ran,AB_break5.started,AB_break5.stopped,AB_block_6.thisRepN,AB_block_6.thisTrialN,AB_block_6.thisN,AB_block_6.thisIndex,AB_block_6.ran,AB_break6.started,AB_break6.stopped,MemInstructionSURPRISE.started,MemInstructionSURPRISE.stopped,MemInstruction.started,MemInstruction.stopped,memBreak.started,memBreak.stopped,Mem_block_1.thisRepN,Mem_block_1.thisTrialN,Mem_block_1.thisN,Mem_block_1.thisIndex,Mem_block_1.ran
0.001,6.771,space,6.722,,60cfb80f9613ba516472434c,6682b41eeb79ab8215dff63d,6682b95c868b9c229e4cf691,23,female,English,2024-07-01_15h14.03.961,ABmemTask3,2023.2.3,MacIntel,55.55555556,,,,,,,,,,,,,,,,,,,,,,,,,,,,,,,,,,,,,,,,,,,,,,,,,,,,,,,,,,,,,,,,,,,,,,,,,,,,,,,,,,,,,,,,,,,,,,,,,,,,,,,,,,,,,,,,,,,,,,,,,,,,,,,,,,,,,,,,,,,,,,,,,,,,,,,,,,,,,,,,,,,,,,,,,,,,,,,,,,,,,,,,,,,,,,,,,,,,,,,,,,,
,,,,,60cfb80f9613ba516472434c,6682b41eeb79ab8215dff63d,6682b95c868b9c229e4cf691,23,female,English,2024-07-01_15h14.03.961,ABmemTask3,2023.2.3,MacIntel,55.55555556,6.771,8.171,space,1.363,,,,,,,,,,,,,,,,,,,,,,,,,,,,,,,,,,,,,,,,,,,,,,,,,,,,,,,,,,,,,,,,,,,,,,,,,,,,,,,,,,,,,,,,,,,,,,,,,,,,,,,,,,,,,,,,,,,,,,,,,,,,,,,,,,,,,,,,,,,,,,,,,,,,,,,,,,,,,,,,,,,,,,,,,,,,,,,,,,,,,,,,,,,,,,,,,,,,,,,
,,,,,60cfb80f9613ba516472434c,6682b41eeb79ab8215dff63d,6682b95c868b9c229e4cf691,23,female,English,2024-07-01_15h14.03.961,ABmemTask3,2023.2.3,MacIntel,55.55555556,,,,,,8.171,8.788,space,0.582,,,,,,,,,,,,,,,,,,,,,,,,,,,,,,,,,,,,,,,,,,,,,,,,,,,,,,,,,,,,,,,,,,,,,,,,,,,,,,,,,,,,,,,,,,,,,,,,,,,,,,,,,,,,,,,,,,,,,,,,,,,,,,,,,,,,,,,,,,,,,,,,,,,,,,,,,,,,,,,,,,,,,,,,,,,,,,,,,,,,,,,,,,,,,,,,,,
,,,,,60cfb80f9613ba516472434c,6682b41eeb79ab8215dff63d,6682b95c868b9c229e4cf691,23,female,English,2024-07-01_15h14.03.961,ABmemTask3,2023.2.3,MacIntel,55.55555556,,,,,,,,,,,8.789,9.155,space,0.33,,,,,,,,,,,,,,,,,,,,,,,,,,,,,,,,,,,,,,,,,,,,,,,,,,,,,,,,,,,,,,,,,,,,,,,,,,,,,,,,,,,,,,,,,,,,,,,,,,,,,,,,,,,,,,,,,,,,,,,,,,,,,,,,,,,,,,,,,,,,,,,,,,,,,,,,,,,,,,,,,,,,,,,,,,,,,,,,,,,,,,,,,,,,,
,,,,,60cfb80f9613ba516472434c,6682b41eeb79ab8215dff63d,6682b95c868b9c229e4cf691,23,female,English,2024-07-01_15h14.03.961,ABmemTask3,2023.2.3,MacIntel,55.55555556,,,,,,,,,,,,,,,,9.155,9.504,space,0.315,,,,,,,,,,,,,,,,,,,,,,,,,,,,,,,,,,,,,,,,,,,,,,,,,,,,,,,,,,,,,,,,,,,,,,,,,,,,,,,,,,,,,,,,,,,,,,,,,,,,,,,,,,,,,,,,,,,,,,,,,,,,,,,,,,,,,,,,,,,,,,,,,,,,,,,,,,,,,,,,,,,,,,,,,,,,,,,,,,,,,,,,
,,,,,60cfb80f9613ba516472434c,6682b41eeb79ab8215dff63d,6682b95c868b9c229e4cf691,23,female,English,2024-07-01_15h14.03.961,ABmemTask3,2023.2.3,MacIntel,55.55555556,,,,,,,,,,,,,,,,,,,,,9.504,23.189,space,13.66,,,,,,,,,,,,,,,,,,,,,,,,,,,,,,,,,,,,,,,,,,,,,,,,,,,,,,,,,,,,,,,,,,,,,,,,,,,,,,,,,,,,,,,,,,,,,,,,,,,,,,,,,,,,,,,,,,,,,,,,,,,,,,,,,,,,,,,,,,,,,,,,,,,,,,,,,,,,,,,,,,,,,,,,,,,,,,,,,,,
,,,,,60cfb80f9613ba516472434c,6682b41eeb79ab8215dff63d,6682b95c868b9c229e4cf691,23,female,English,2024-07-01_15h14.03.961,ABmemTask3,2023.2.3,MacIntel,55.55555556,,,,,,,,,,,,,,,,,,,,,,,,,,23.189,42.14,space,18.93,,,,,,,,,,,,,,,,,,,,,,,,,,,,,,,,,,,,,,,,,,,,,,,,,,,,,,,,,,,,,,,,,,,,,,,,,,,,,,,,,,,,,,,,,,,,,,,,,,,,,,,,,,,,,,,,,,,,,,,,,,,,,,,,,,,,,,,,,,,,,,,,,,,,,,,,,,,,,,,,,,,,,,,,,,,,,,
,,,,,60cfb80f9613ba516472434c,6682b41eeb79ab8215dff63d,6682b95c868b9c229e4cf691,23,female,English,2024-07-01_15h14.03.961,ABmemTask3,2023.2.3,MacIntel,55.55555556,,,,,,,,,,,,,,,,,,,,,,,,,,,,,,,42.163,43.157,43.157,14,43.656,46.224,0.003,46.456,0.232,0.233,0.232,0.235,0.232,0.234,0.234,0.232,0.235,0.232,0.234,46.457,48.14,right,1.669,,48.14,49.107,left,0.946,,2,0,2,49.108,50.108,0,0,0,0,1,prac_AB,L1_T1P_T2A,1,1,0,6,7,5,5,12,cat,Did you see the cat,0.25,0,resources/,pics/shipinabottle.jpg,pics/table01.jpg,pics/dustpan.jpg,pics/golfball.jpg,pics/giraffe.jpg,pics/cat.jpg,pics/peanut01.jpg,pics/pictureframe04.jpg,pics/fanblades.jpg,pics/laptop01a.jpg,pics/ball02.jpg,pics/blender.jpg,blankImage,blankImage,blankImage,blankImage,blankImage,cat,8,,,,,,,,,,,,,,,,,,,,,,,,,,,,,,,,,,,,,,,,,,,,,,,,,,,,,,,,,,,,,,,,,,,,,,,,,,,,,,,,,,,,,,,,,,,,,,,,,,,,
,,,,,60cfb80f9613ba516472434c,6682b41eeb79ab8215dff63d,6682b95c868b9c229e4cf691,23,female,English,2024-07-01_15h14.03.961,ABmemTask3,2023.2.3,MacIntel,55.55555556,,,,,,,,,,,,,,,,,,,,,,,,,,,,,,,50.108,51.107,51.107,13,51.606,53.557,0.001,53.774,0.217,0.216,0.217,0.217,0.217,0.216,0.218,0.216,0.216,,,53.774,54.825,right,1.038,,54.825,55.458,right,0.62,,4,0,4,55.458,56.458,0,1,1,1,1,prac_AB,L1_T1P_T2P,1,1,1,5,6,4,4,10,tree,Did you see the tree,0.24,0,resources/,pics/carrot01.jpg,pics/hammerheadshark.jpg,pics/kangaroo.jpg,pics/proboscismonkey.jpg,pics/tree.jpg,pics/stapler07.jpg,pics/siamesecat.jpg,pics/ball02.jpg,pics/pictureframe04.jpg,pics/mummy.jpg,blankImage,blankImage,blankImage,blankImage,blankImage,blankImage,blankImage,tree,1,,,,,,,,,,,,,,,,,,,,,,,,,,,,,,,,,,,,,,,,,,,,,,,,,,,,,,,,,,,,,,,,,,,,,,,,,,,,,,,,,,,,,,,,,,,,,,,,,,,,
,,,,,60cfb80f9613ba516472434c,6682b41eeb79ab8215dff63d,6682b95c868b9c229e4cf691,23,female,English,2024-07-01_15h14.03.961,ABmemTask3,2023.2.3,MacIntel,55.55555556,,,,,,,,,,,,,,,,,,,,,,,,,,,,,,,56.458,57.458,57.458,13,57.957,60.341,0.001,60.558,0.216,0.217,0.216,0.218,0.217,0.215,0.218,0.217,0.216,0.217,0.217,60.558,61.724,right,1.156,,61.724,62.224,right,0.487,,2,0,6,62.224,63.225,0,2,2,2,1,prac_AB,L1_T1A_T2P,1,0,1,7,8,6,4,12,grapes,Did you see the grapes,0.23,0,resources/,pics/sailboat.jpg,pics/butterfly.jpg,pics/giraffe.jpg,pics/spoon01.jpg,pics/hose.jpg,pics/nutcracker01.jpg,pics/table01.jpg,pics/stapler13.jpg,pics/pencil01.jpg,pics/football.jpg,pics/triangle.jpg,pics/hairdryer02a.jpg,blankImage,blankImage,blankImage,blankImage,blankImage,grape01,6,,,,,,,,,,,,,,,,,,,,,,,,,,,,,,,,,,,,,,,,,,,,,,,,,,,,,,,,,,,,,,,,,,,,,,,,,,,,,,,,,,,,,,,,,,,,,,,,,,,,
,,,,,60cfb80f9613ba516472434c,6682b41eeb79ab8215dff63d,6682b95c868b9c229e4cf691,23,female,English,2024-07-01_15h14.03.961,ABmemTask3,2023.2.3,MacIntel,55.55555556,,,,,,,,,,,,,,,,,,,,,,,,,,,,,,,63.225,64.225,64.225,12,64.724,67.525,0.001,67.725,0.2,0.2,0.2,0.199,0.2,0.2,0.2,0.201,0.2,0.2,0.201,67.725,69.008,right,1.266,,69.008,69.707,right,0.694,,4,0,8,69.708,70.708,0,3,3,3,1,prac_AB,L5_T1P_T2P,5,1,1,7,12,6,3,15,Human skull,Did you see the Human skull,0.22,0,resources/,pics/peach01.jpg,pics/proboscismonkey.jpg,pics/hose.jpg,pics/laptop01a.jpg,pics/hammerheadshark.jpg,pics/nutcracker01.jpg,pics/humanskull.jpg,pics/table01.jpg,pics/icecube01.jpg,pics/boot02b.jpg,pics/calendar.jpg,pics/stapler03a.jpg,pics/ashtray01.jpg,pics/giraffe.jpg,pics/dromedary.jpg,blankImage,blankImage,humanskull,12,0.199,0.2,0.2,,,,,,,,,,,,,,,,,,,,,,,,,,,,,,,,,,,,,,,,,,,,,,,,,,,,,,,,,,,,,,,,,,,,,,,,,,,,,,,,,,,,,,,,,,,,,,,,,
,,,,,60cfb80f9613ba516472434c,6682b41eeb79ab8215dff63d,6682b95c868b9c229e4cf691,23,female,English,2024-07-01_15h14.03.961,ABmemTask3,2023.2.3,MacIntel,55.55555556,,,,,,,,,,,,,,,,,,,,,,,,,,,,,,,70.709,71.709,71.709,12,72.208,74.208,0.001,74.408,0.2,0.199,0.201,0.2,0.2,0.2,0.2,0.2,0.199,0.2,,74.408,75.209,right,0.781,,75.209,75.725,right,0.511,,2,0,10,75.726,76.725,0,4,4,4,1,prac_AB,L1_T1A_T2P,1,0,1,7,8,6,3,11,dog,Did you see the dog,0.21,0,resources/,pics/ball02.jpg,pics/binder03b.jpg,pics/dromedary.jpg,pics/shipinabottle.jpg,pics/proboscismonkey.jpg,pics/laptop01a.jpg,pics/chainsaw.jpg,pics/stapler13.jpg,pics/nutcracker01.jpg,pics/carrot01.jpg,pics/calendar.jpg,blankImage,blankImage,blankImage,blankImage,blankImage,blankImage,saintbernard,7,,,,,,,,,,,,,,,,,,,,,,,,,,,,,,,,,,,,,,,,,,,,,,,,,,,,,,,,,,,,,,,,,,,,,,,,,,,,,,,,,,,,,,,,,,,,,,,,,,,,
,,,,,60cfb80f9613ba516472434c,6682b41eeb79ab8215dff63d,6682b95c868b9c229e4cf691,23,female,English,2024-07-01_15h14.03.961,ABmemTask3,2023.2.3,MacIntel,55.55555556,,,,,,,,,,,,,,,,,,,,,,,,,,,,,,,76.725,77.726,77.726,11,78.225,80.792,0.001,80.976,0.183,0.184,0.183,0.183,0.183,0.183,0.184,0.184,0.183,0.184,0.183,80.976,82.859,right,1.873,,82.859,83.943,left,1.076,,2,0,12,83.943,84.943,0,5,5,5,1,prac_AB,L5_T1P_T2P,5,1,1,5,10,4,5,15,grater,Did you see the grater,0.2,0,resources/,pics/pencil01.jpg,pics/laptop01a.jpg,pics/hammerheadshark.jpg,pics/cork02.jpg,pics/grater01a.jpg,pics/shipinabottle.jpg,pics/binder03b.jpg,pics/dromedary.jpg,pics/pictureframe04.jpg,pics/stapler04b.jpg,pics/fanblades.jpg,pics/aquarium.jpg,pics/hairdryer02a.jpg,pics/lightswitch01.jpg,pics/piggybank.jpg,blankImage,blankImage,grater01a,11,0.182,0.185,0.182,,,,,,,,,,,,,,,,,,,,,,,,,,,,,,,,,,,,,,,,,,,,,,,,,,,,,,,,,,,,,,,,,,,,,,,,,,,,,,,,,,,,,,,,,,,,,,,,,
,,,,,60cfb80f9613ba516472434c,6682b41eeb79ab8215dff63d,6682b95c868b9c229e4cf691,23,female,English,2024-07-01_15h14.03.961,ABmemTask3,2023.2.3,MacIntel,55.55555556,,,,,,,,,,,,,,,,,,,,,,,,,,,,,,,84.943,85.942,85.942,11,86.442,87.909,0.001,88.093,0.184,0.182,0.184,0.184,0.182,0.183,0.185,0.182,,,,88.093,89.143,right,1.04,,89.143,89.542,left,0.395,,4,0,14,89.542,90.543,0,6,6,6,1,prac_AB,L1_T1P_T2A,1,1,0,4,5,3,4,9,chalk,Did you see the chalk,0.19,0,resources/,pics/necklace.jpg,pics/starfish01.jpg,pics/safetypin.jpg,pics/chalk.jpg,pics/candleholder01.jpg,pics/bowtie.jpg,pics/match.jpg,pics/candle01.jpg,pics/pencilsharpener02a.jpg,blankImage,blankImage,blankImage,blankImage,blankImage,blankImage,blankImage,blankImage,chalk,9,,,,,,,,,,,,,,,,,,,,,,,,,,,,,,,,,,,,,,,,,,,,,,,,,,,,,,,,,,,,,,,,,,,,,,,,,,,,,,,,,,,,,,,,,,,,,,,,,,,,
,,,,,60cfb80f9613ba516472434c,6682b41eeb79ab8215dff63d,6682b95c868b9c229e4cf691,23,female,English,2024-07-01_15h14.03.961,ABmemTask3,2023.2.3,MacIntel,55.55555556,,,,,,,,,,,,,,,,,,,,,,,,,,,,,,,90.544,91.543,91.543,10,92.044,93.544,0.001,93.709,0.165,0.168,0.166,0.168,0.166,0.166,0.168,0.165,0.168,,,93.709,94.244,right,0.515,,94.244,94.594,right,0.335,,6,0,16,94.594,95.594,0,7,7,7,1,prac_AB,L1_T1P_T2P,1,1,1,5,6,4,4,10,pants,Did you see the pants,0.18,0,resources/,pics/kangaroo.jpg,pics/safetypin.jpg,pics/salmon.jpg,pics/sandbarshark.jpg,pics/pants.jpg,pics/stapler03a.jpg,pics/sink.jpg,pics/calendar.jpg,pics/butterfly.jpg,pics/fanblades.jpg,blankImage,blankImage,blankImage,blankImage,blankImage,blankImage,blankImage,pants,2,,,,,,,,,,,,,,,,,,,,,,,,,,,,,,,,,,,,,,,,,,,,,,,,,,,,,,,,,,,,,,,,,,,,,,,,,,,,,,,,,,,,,,,,,,,,,,,,,,,,
,,,,,60cfb80f9613ba516472434c,6682b41eeb79ab8215dff63d,6682b95c868b9c229e4cf691,23,female,English,2024-07-01_15h14.03.961,ABmemTask3,2023.2.3,MacIntel,55.55555556,,,,,,,,,,,,,,,,,,,,,,,,,,,,,,,95.594,96.594,96.594,9,97.094,99.194,0.001,99.344,0.149,0.149,0.151,0.15,0.149,0.15,0.15,0.15,0.15,0.151,0.149,99.344,100.327,left,0.965,,100.328,100.76,right,0.425,,8,0,18,100.76,101.76,0,8,8,8,1,prac_AB,L5_T1A_T2P,5,0,1,7,12,6,3,15,shirt,Did you see the shirt,0.17,0,resources/,pics/banjo.jpg,pics/chainsaw.jpg,pics/sailboat.jpg,pics/shipinabottle.jpg,pics/lightswitch01.jpg,pics/starfish01.jpg,pics/hen.jpg,pics/ball02.jpg,pics/bowlingpin.jpg,pics/hammerheadshark.jpg,pics/footballhelmet.jpg,pics/stapler10.jpg,pics/laptop01a.jpg,pics/cannon.jpg,pics/golfball.jpg,blankImage,blankImage,shirt02,13,0.151,0.149,0.151,,,,,,,,,,,,,,,,,,,,,,,,,,,,,,,,,,,,,,,,,,,,,,,,,,,,,,,,,,,,,,,,,,,,,,,,,,,,,,,,,,,,,,,,,,,,,,,,,
,,,,,60cfb80f9613ba516472434c,6682b41eeb79ab8215dff63d,6682b95c868b9c229e4cf691,23,female,English,2024-07-01_15h14.03.961,ABmemTask3,2023.2.3,MacIntel,55.55555556,,,,,,,,,,,,,,,,,,,,,,,,,,,,,,,101.76,102.76,102.76,9,103.261,104.761,0.001,104.91,0.148,0.15,0.151,0.149,0.15,0.151,0.149,0.15,0.151,0.15,,104.91,105.511,right,0.583,,105.511,106.094,right,0.574,,10,0,20,106.094,107.093,0,9,9,9,1,prac_AB,L1_T1P_T2P,1,1,1,7,8,6,3,11,tongs,Did you see the tongs,0.16,0,resources/,pics/sewingmachine01a.jpg,pics/shovel01.jpg,pics/football.jpg,pics/hen.jpg,pics/banjo.jpg,pics/zebra.jpg,pics/tongs01b.jpg,pics/stapler11.jpg,pics/shipinabottle.jpg,pics/match.jpg,pics/candle01.jpg,blankImage,blankImage,blankImage,blankImage,blankImage,blankImage,tongs01b,5,,,,,,,,,,,,,,,,,,,,,,,,,,,,,,,,,,,,,,,,,,,,,,,,,,,,,,,,,,,,,,,,,,,,,,,,,,,,,,,,,,,,,,,,,,,,,,,,,,,,
,,,,,60cfb80f9613ba516472434c,6682b41eeb79ab8215dff63d,6682b95c868b9c229e4cf691,23,female,English,2024-07-01_15h14.03.961,ABmemTask3,2023.2.3,MacIntel,55.55555556,,,,,,,,,,,,,,,,,,,,,,,,,,,,,,,107.093,108.095,108.095,8,108.594,110.061,0,110.195,0.134,0.133,0.134,0.132,0.134,0.134,0.132,0.133,0.134,0.134,0.134,110.195,111.161,left,0.946,,111.161,111.627,left,0.45,,12,0,22,111.627,112.628,0,10,10,10,1,prac_AB,L1_T1A_T2A,1,0,0,7,8,6,4,12,camera,Did you see the camera,0.15,0,resources/,pics/lightswitch01.jpg,pics/table01.jpg,pics/aquarium.jpg,pics/boot02b.jpg,pics/butterfly.jpg,pics/chainsaw.jpg,pics/binoculars01b.jpg,pics/giraffe.jpg,pics/triangle.jpg,pics/microscope.jpg,pics/mummy.jpg,pics/icecube01.jpg,blankImage,blankImage,blankImage,blankImage,blankImage,camera01a,10,,,,,,,,,,,,,,,,,,,,,,,,,,,,,,,,,,,,,,,,,,,,,,,,,,,,,,,,,,,,,,,,,,,,,,,,,,,,,,,,,,,,,,,,,,,,,,,,,,,,
,,,,,60cfb80f9613ba516472434c,6682b41eeb79ab8215dff63d,6682b95c868b9c229e4cf691,23,female,English,2024-07-01_15h14.03.961,ABmemTask3,2023.2.3,MacIntel,55.55555556,,,,,,,,,,,,,,,,,,,,,,,,,,,,,,,112.628,113.628,113.628,8,114.127,115.328,0.001,115.461,0.133,0.133,0.135,0.133,0.132,0.133,0.134,0.133,0.134,,,115.461,116.028,right,0.557,,116.028,116.545,right,0.501,,14,0,24,116.545,117.545,0,11,11,11,1,prac_AB,L1_T1P_T2P,1,1,1,6,7,5,3,10,shorts,Did you see the shorts,0.14,0,resources/,pics/snowshoe.jpg,pics/chainsaw.jpg,pics/sailboat.jpg,pics/ball02.jpg,pics/candleholder01.jpg,pics/shorts01.jpg,pics/stapler07.jpg,pics/peach01.jpg,pics/proboscismonkey.jpg,pics/hen.jpg,blankImage,blankImage,blankImage,blankImage,blankImage,blankImage,blankImage,shorts01,4,,,,,,,,,,,,,,,,,,,,,,,,,,,,,,,,,,,,,,,,,,,,,,,,,,,,,,,,,,,,,,,,,,,,,,,,,,,,,,,,,,,,,,,,,,,,,,,,,,,,
,,,,,60cfb80f9613ba516472434c,6682b41eeb79ab8215dff63d,6682b95c868b9c229e4cf691,23,female,English,2024-07-01_15h14.03.961,ABmemTask3,2023.2.3,MacIntel,55.55555556,,,,,,,,,,,,,,,,,,,,,,,,,,,,,,,117.545,118.545,118.545,7,119.045,120.445,0.001,120.561,0.115,0.117,0.118,0.115,0.117,0.117,0.116,0.117,0.118,0.115,0.118,120.561,121.195,right,0.619,,121.195,121.611,right,0.405,,12,0,26,121.611,122.612,0,12,12,12,1,prac_AB,L5_T1P_T2A,5,1,0,5,10,4,3,13,fish,Did you see the fish,0.13,0,resources/,pics/football.jpg,pics/safetypin.jpg,pics/shovel01.jpg,pics/sink.jpg,pics/holdfast.jpg,pics/nutcracker01.jpg,pics/starfish01.jpg,pics/onion.jpg,pics/footballhelmet.jpg,pics/boot02b.jpg,pics/sewingmachine01a.jpg,pics/kangaroo.jpg,pics/banjo.jpg,blankImage,blankImage,blankImage,blankImage,holdfast,14,0.116,,,,,,,,,,,,,,,,,,,,,,,,,,,,,,,,,,,,,,,,,,,,,,,,,,,,,,,,,,,,,,,,,,,,,,,,,,,,,,,,,,,,,,,,,,,,,,,,,,,
,,,,,60cfb80f9613ba516472434c,6682b41eeb79ab8215dff63d,6682b95c868b9c229e4cf691,23,female,English,2024-07-01_15h14.03.961,ABmemTask3,2023.2.3,MacIntel,55.55555556,,,,,,,,,,,,,,,,,,,,,,,,,,,,,,,122.613,123.611,123.611,7,124.112,125.162,0.001,125.278,0.116,0.116,0.117,0.116,0.118,0.117,0.116,0.116,0.117,,,125.278,126.196,right,0.912,,126.196,126.611,left,0.401,,12,0,28,126.612,127.612,0,13,13,13,1,prac_AB,L1_T1P_T2P,1,1,1,5,6,4,4,10,fish,Did you see the fish,0.12,0,resources/,pics/butterfly.jpg,pics/banjo.jpg,pics/leaf02a.jpg,pics/dustpan.jpg,pics/sturgeon.jpg,pics/stapler02.jpg,pics/necklace.jpg,pics/shovel01.jpg,pics/starfish01.jpg,pics/chainsaw.jpg,blankImage,blankImage,blankImage,blankImage,blankImage,blankImage,blankImage,sturgeon,3,,,,,,,,,,,,,,,,,,,,,,,,,,,,,,,,,,,,,,,,,,,,,,,,,,,,,,,,,,,,,,,,,,,,,,,,,,,,,,,,,,,,,,,,,,,,,,,,,,,,
,,,,,60cfb80f9613ba516472434c,6682b41eeb79ab8215dff63d,6682b95c868b9c229e4cf691,23,female,English,2024-07-01_15h14.03.961,ABmemTask3,2023.2.3,MacIntel,55.55555556,,,,,,,,,,,,,,,,,,,,,,,,,,,,,,,,,,,,,,,,,,,,,,,,,,,,,,,,,,,,,,,,,,,,,,,,,,,,,,,,,,,,,,,,,,,,,,,,,,,,,,,,,,,127.612,137.163,space,9.534,,,,,,,,,,,,,,,,,,,,,,,,,,,,,,,,,,,,,,,,,,,,,,,,,,,,,,,,,,,,,,,,,,,,,,,,,,,,,,,,,,,,,,,,,,,,,
,,,,,60cfb80f9613ba516472434c,6682b41eeb79ab8215dff63d,6682b95c868b9c229e4cf691,23,female,English,2024-07-01_15h14.03.961,ABmemTask3,2023.2.3,MacIntel,55.55555556,,,,,,,,,,,,,,,,,,,,,,,,,,,,,,,137.167,138.163,138.163,14,138.663,141.229,0.001,141.462,0.232,0.233,0.234,0.233,0.234,0.233,0.234,0.233,0.232,0.235,0.233,141.462,142.263,right,0.78,,142.263,142.713,left,0.437,,2,0,2,142.713,143.713,0,0,0,0,1,prac_AB,L1_T1P_T2A,1,1,0,6,7,5,5,12,cat,Did you see the cat,0.25,0,resources/,pics/shipinabottle.jpg,pics/table01.jpg,pics/dustpan.jpg,pics/golfball.jpg,pics/giraffe.jpg,pics/cat.jpg,pics/peanut01.jpg,pics/pictureframe04.jpg,pics/fanblades.jpg,pics/laptop01a.jpg,pics/ball02.jpg,pics/blender.jpg,blankImage,blankImage,blankImage,blankImage,blankImage,cat,8,,,,,,,,,,,,,,,,,,,,,,,,,,,,,,,,,,,,,,,,,,,,,,,,,,,,,,,,,,,,,,,,,,,,,,,,,,,,,,,,,,,,,,,,,,,,,,,,,,,,
,,,,,60cfb80f9613ba516472434c,6682b41eeb79ab8215dff63d,6682b95c868b9c229e4cf691,23,female,English,2024-07-01_15h14.03.961,ABmemTask3,2023.2.3,MacIntel,55.55555556,,,,,,,,,,,,,,,,,,,,,,,,,,,,,,,143.713,144.712,144.712,13,145.214,147.164,0,147.38,0.215,0.218,0.216,0.217,0.217,0.216,0.217,0.217,0.217,,,147.38,148.146,right,0.749,,148.146,148.697,right,0.535,,4,0,4,148.697,149.696,0,1,1,1,1,prac_AB,L1_T1P_T2P,1,1,1,5,6,4,4,10,tree,Did you see the tree,0.24,0,resources/,pics/carrot01.jpg,pics/hammerheadshark.jpg,pics/kangaroo.jpg,pics/proboscismonkey.jpg,pics/tree.jpg,pics/stapler07.jpg,pics/siamesecat.jpg,pics/ball02.jpg,pics/pictureframe04.jpg,pics/mummy.jpg,blankImage,blankImage,blankImage,blankImage,blankImage,blankImage,blankImage,tree,1,,,,,,,,,,,,,,,,,,,,,,,,,,,,,,,,,,,,,,,,,,,,,,,,,,,,,,,,,,,,,,,,,,,,,,,,,,,,,,,,,,,,,,,,,,,,,,,,,,,,
,,,,,60cfb80f9613ba516472434c,6682b41eeb79ab8215dff63d,6682b95c868b9c229e4cf691,23,female,English,2024-07-01_15h14.03.961,ABmemTask3,2023.2.3,MacIntel,55.55555556,,,,,,,,,,,,,,,,,,,,,,,,,,,,,,,149.696,150.697,150.697,13,151.197,153.581,0,153.797,0.218,0.215,0.217,0.217,0.217,0.216,0.217,0.217,0.216,0.218,0.216,153.797,154.48,left,0.666,,154.48,154.913,right,0.429,,6,0,6,154.913,155.913,0,2,2,2,1,prac_AB,L1_T1A_T2P,1,0,1,7,8,6,4,12,grapes,Did you see the grapes,0.23,0,resources/,pics/sailboat.jpg,pics/butterfly.jpg,pics/giraffe.jpg,pics/spoon01.jpg,pics/hose.jpg,pics/nutcracker01.jpg,pics/table01.jpg,pics/stapler13.jpg,pics/pencil01.jpg,pics/football.jpg,pics/triangle.jpg,pics/hairdryer02a.jpg,blankImage,blankImage,blankImage,blankImage,blankImage,grape01,6,,,,,,,,,,,,,,,,,,,,,,,,,,,,,,,,,,,,,,,,,,,,,,,,,,,,,,,,,,,,,,,,,,,,,,,,,,,,,,,,,,,,,,,,,,,,,,,,,,,,
,,,,,60cfb80f9613ba516472434c,6682b41eeb79ab8215dff63d,6682b95c868b9c229e4cf691,23,female,English,2024-07-01_15h14.03.961,ABmemTask3,2023.2.3,MacIntel,55.55555556,,,,,,,,,,,,,,,,,,,,,,,,,,,,,,,155.913,156.914,156.915,12,157.413,160.215,0.001,160.415,0.2,0.2,0.2,0.201,0.199,0.201,0.199,0.2,0.2,0.2,0.2,160.415,160.964,right,0.533,,160.964,161.464,right,0.488,,8,0,8,161.464,162.464,0,3,3,3,1,prac_AB,L5_T1P_T2P,5,1,1,7,12,6,3,15,Human skull,Did you see the Human skull,0.22,0,resources/,pics/peach01.jpg,pics/proboscismonkey.jpg,pics/hose.jpg,pics/laptop01a.jpg,pics/hammerheadshark.jpg,pics/nutcracker01.jpg,pics/humanskull.jpg,pics/table01.jpg,pics/icecube01.jpg,pics/boot02b.jpg,pics/calendar.jpg,pics/stapler03a.jpg,pics/ashtray01.jpg,pics/giraffe.jpg,pics/dromedary.jpg,blankImage,blankImage,humanskull,12,0.2,0.2,0.201,,,,,,,,,,,,,,,,,,,,,,,,,,,,,,,,,,,,,,,,,,,,,,,,,,,,,,,,,,,,,,,,,,,,,,,,,,,,,,,,,,,,,,,,,,,,,,,,,
,,,,,60cfb80f9613ba516472434c,6682b41eeb79ab8215dff63d,6682b95c868b9c229e4cf691,23,female,English,2024-07-01_15h14.03.961,ABmemTask3,2023.2.3,MacIntel,55.55555556,,,,,,,,,,,,,,,,,,,,,,,,,,,,,,,162.464,163.464,163.464,12,163.965,165.965,0.001,166.165,0.199,0.2,0.2,0.2,0.2,0.2,0.199,0.2,0.2,0.201,,166.165,167.048,left,0.865,,167.048,167.614,right,0.56,,10,0,10,167.614,168.614,0,4,4,4,1,prac_AB,L1_T1A_T2P,1,0,1,7,8,6,3,11,dog,Did you see the dog,0.21,0,resources/,pics/ball02.jpg,pics/binder03b.jpg,pics/dromedary.jpg,pics/shipinabottle.jpg,pics/proboscismonkey.jpg,pics/laptop01a.jpg,pics/chainsaw.jpg,pics/stapler13.jpg,pics/nutcracker01.jpg,pics/carrot01.jpg,pics/calendar.jpg,blankImage,blankImage,blankImage,blankImage,blankImage,blankImage,saintbernard,7,,,,,,,,,,,,,,,,,,,,,,,,,,,,,,,,,,,,,,,,,,,,,,,,,,,,,,,,,,,,,,,,,,,,,,,,,,,,,,,,,,,,,,,,,,,,,,,,,,,,
,,,,,60cfb80f9613ba516472434c,6682b41eeb79ab8215dff63d,6682b95c868b9c229e4cf691,23,female,English,2024-07-01_15h14.03.961,ABmemTask3,2023.2.3,MacIntel,55.55555556,,,,,,,,,,,,,,,,,,,,,,,,,,,,,,,168.615,169.615,169.615,11,170.115,172.682,0.001,172.865,0.182,0.183,0.184,0.183,0.184,0.183,0.183,0.184,0.183,0.184,0.183,172.865,173.531,right,0.655,,173.531,174.099,right,0.563,,12,0,12,174.099,175.099,0,5,5,5,1,prac_AB,L5_T1P_T2P,5,1,1,5,10,4,5,15,grater,Did you see the grater,0.2,0,resources/,pics/pencil01.jpg,pics/laptop01a.jpg,pics/hammerheadshark.jpg,pics/cork02.jpg,pics/grater01a.jpg,pics/shipinabottle.jpg,pics/binder03b.jpg,pics/dromedary.jpg,pics/pictureframe04.jpg,pics/stapler04b.jpg,pics/fanblades.jpg,pics/aquarium.jpg,pics/hairdryer02a.jpg,pics/lightswitch01.jpg,pics/piggybank.jpg,blankImage,blankImage,grater01a,11,0.183,0.183,0.184,,,,,,,,,,,,,,,,,,,,,,,,,,,,,,,,,,,,,,,,,,,,,,,,,,,,,,,,,,,,,,,,,,,,,,,,,,,,,,,,,,,,,,,,,,,,,,,,,
,,,,,60cfb80f9613ba516472434c,6682b41eeb79ab8215dff63d,6682b95c868b9c229e4cf691,23,female,English,2024-07-01_15h14.03.961,ABmemTask3,2023.2.3,MacIntel,55.55555556,,,,,,,,,,,,,,,,,,,,,,,,,,,,,,,175.099,176.098,176.098,11,176.599,178.065,0.001,178.248,0.182,0.183,0.184,0.183,0.183,0.184,0.183,0.183,,,,178.248,179.049,right,0.782,,179.049,179.449,left,0.388,,14,0,14,179.449,180.448,0,6,6,6,1,prac_AB,L1_T1P_T2A,1,1,0,4,5,3,4,9,chalk,Did you see the chalk,0.19,0,resources/,pics/necklace.jpg,pics/starfish01.jpg,pics/safetypin.jpg,pics/chalk.jpg,pics/candleholder01.jpg,pics/bowtie.jpg,pics/match.jpg,pics/candle01.jpg,pics/pencilsharpener02a.jpg,blankImage,blankImage,blankImage,blankImage,blankImage,blankImage,blankImage,blankImage,chalk,9,,,,,,,,,,,,,,,,,,,,,,,,,,,,,,,,,,,,,,,,,,,,,,,,,,,,,,,,,,,,,,,,,,,,,,,,,,,,,,,,,,,,,,,,,,,,,,,,,,,,
,,,,,60cfb80f9613ba516472434c,6682b41eeb79ab8215dff63d,6682b95c868b9c229e4cf691,23,female,English,2024-07-01_15h14.03.961,ABmemTask3,2023.2.3,MacIntel,55.55555556,,,,,,,,,,,,,,,,,,,,,,,,,,,,,,,180.449,181.449,181.449,10,181.949,183.449,0.001,183.616,0.166,0.167,0.167,0.167,0.166,0.168,0.165,0.167,0.167,,,183.616,184.149,right,0.521,,184.149,184.582,right,0.428,,16,0,16,184.582,185.583,0,7,7,7,1,prac_AB,L1_T1P_T2P,1,1,1,5,6,4,4,10,pants,Did you see the pants,0.18,0,resources/,pics/kangaroo.jpg,pics/safetypin.jpg,pics/salmon.jpg,pics/sandbarshark.jpg,pics/pants.jpg,pics/stapler03a.jpg,pics/sink.jpg,pics/calendar.jpg,pics/butterfly.jpg,pics/fanblades.jpg,blankImage,blankImage,blankImage,blankImage,blankImage,blankImage,blankImage,pants,2,,,,,,,,,,,,,,,,,,,,,,,,,,,,,,,,,,,,,,,,,,,,,,,,,,,,,,,,,,,,,,,,,,,,,,,,,,,,,,,,,,,,,,,,,,,,,,,,,,,,
,,,,,60cfb80f9613ba516472434c,6682b41eeb79ab8215dff63d,6682b95c868b9c229e4cf691,23,female,English,2024-07-01_15h14.03.961,ABmemTask3,2023.2.3,MacIntel,55.55555556,,,,,,,,,,,,,,,,,,,,,,,,,,,,,,,185.583,186.583,186.583,9,187.082,189.183,0.001,189.332,0.15,0.149,0.151,0.15,0.149,0.151,0.151,0.149,0.15,0.151,0.149,189.333,190.166,left,0.819,,190.166,190.617,right,0.434,,18,0,18,190.617,191.617,0,8,8,8,1,prac_AB,L5_T1A_T2P,5,0,1,7,12,6,3,15,shirt,Did you see the shirt,0.17,0,resources/,pics/banjo.jpg,pics/chainsaw.jpg,pics/sailboat.jpg,pics/shipinabottle.jpg,pics/lightswitch01.jpg,pics/starfish01.jpg,pics/hen.jpg,pics/ball02.jpg,pics/bowlingpin.jpg,pics/hammerheadshark.jpg,pics/footballhelmet.jpg,pics/stapler10.jpg,pics/laptop01a.jpg,pics/cannon.jpg,pics/golfball.jpg,blankImage,blankImage,shirt02,13,0.15,0.15,0.15,,,,,,,,,,,,,,,,,,,,,,,,,,,,,,,,,,,,,,,,,,,,,,,,,,,,,,,,,,,,,,,,,,,,,,,,,,,,,,,,,,,,,,,,,,,,,,,,,
,,,,,60cfb80f9613ba516472434c,6682b41eeb79ab8215dff63d,6682b95c868b9c229e4cf691,23,female,English,2024-07-01_15h14.03.961,ABmemTask3,2023.2.3,MacIntel,55.55555556,,,,,,,,,,,,,,,,,,,,,,,,,,,,,,,191.617,192.617,192.617,9,193.117,194.616,0.001,194.766,0.149,0.149,0.151,0.149,0.15,0.155,0.146,0.149,0.151,0.149,,194.766,195.384,right,0.599,,195.384,195.816,right,0.426,,20,0,20,195.816,196.816,0,9,9,9,1,prac_AB,L1_T1P_T2P,1,1,1,7,8,6,3,11,tongs,Did you see the tongs,0.16,0,resources/,pics/sewingmachine01a.jpg,pics/shovel01.jpg,pics/football.jpg,pics/hen.jpg,pics/banjo.jpg,pics/zebra.jpg,pics/tongs01b.jpg,pics/stapler11.jpg,pics/shipinabottle.jpg,pics/match.jpg,pics/candle01.jpg,blankImage,blankImage,blankImage,blankImage,blankImage,blankImage,tongs01b,5,,,,,,,,,,,,,,,,,,,,,,,,,,,,,,,,,,,,,,,,,,,,,,,,,,,,,,,,,,,,,,,,,,,,,,,,,,,,,,,,,,,,,,,,,,,,,,,,,,,,
,,,,,60cfb80f9613ba516472434c,6682b41eeb79ab8215dff63d,6682b95c868b9c229e4cf691,23,female,English,2024-07-01_15h14.03.961,ABmemTask3,2023.2.3,MacIntel,55.55555556,,,,,,,,,,,,,,,,,,,,,,,,,,,,,,,196.816,197.816,197.816,8,198.317,199.783,0.001,199.918,0.133,0.132,0.133,0.134,0.133,0.134,0.134,0.133,0.134,0.133,0.132,199.918,200.466,left,0.53,,200.466,201.433,left,0.954,,22,0,22,201.433,202.434,0,10,10,10,1,prac_AB,L1_T1A_T2A,1,0,0,7,8,6,4,12,camera,Did you see the camera,0.15,0,resources/,pics/lightswitch01.jpg,pics/table01.jpg,pics/aquarium.jpg,pics/boot02b.jpg,pics/butterfly.jpg,pics/chainsaw.jpg,pics/binoculars01b.jpg,pics/giraffe.jpg,pics/triangle.jpg,pics/microscope.jpg,pics/mummy.jpg,pics/icecube01.jpg,blankImage,blankImage,blankImage,blankImage,blankImage,camera01a,10,,,,,,,,,,,,,,,,,,,,,,,,,,,,,,,,,,,,,,,,,,,,,,,,,,,,,,,,,,,,,,,,,,,,,,,,,,,,,,,,,,,,,,,,,,,,,,,,,,,,
,,,,,60cfb80f9613ba516472434c,6682b41eeb79ab8215dff63d,6682b95c868b9c229e4cf691,23,female,English,2024-07-01_15h14.03.961,ABmemTask3,2023.2.3,MacIntel,55.55555556,,,,,,,,,,,,,,,,,,,,,,,,,,,,,,,202.435,203.433,203.433,8,203.934,205.134,0.001,205.267,0.133,0.132,0.135,0.132,0.133,0.133,0.134,0.133,0.134,,,205.267,205.884,right,0.601,,205.885,206.801,right,0.9,,24,0,24,206.801,207.801,0,11,11,11,1,prac_AB,L1_T1P_T2P,1,1,1,6,7,5,3,10,shorts,Did you see the shorts,0.14,0,resources/,pics/snowshoe.jpg,pics/chainsaw.jpg,pics/sailboat.jpg,pics/ball02.jpg,pics/candleholder01.jpg,pics/shorts01.jpg,pics/stapler07.jpg,pics/peach01.jpg,pics/proboscismonkey.jpg,pics/hen.jpg,blankImage,blankImage,blankImage,blankImage,blankImage,blankImage,blankImage,shorts01,4,,,,,,,,,,,,,,,,,,,,,,,,,,,,,,,,,,,,,,,,,,,,,,,,,,,,,,,,,,,,,,,,,,,,,,,,,,,,,,,,,,,,,,,,,,,,,,,,,,,,
,,,,,60cfb80f9613ba516472434c,6682b41eeb79ab8215dff63d,6682b95c868b9c229e4cf691,23,female,English,2024-07-01_15h14.03.961,ABmemTask3,2023.2.3,MacIntel,55.55555556,,,,,,,,,,,,,,,,,,,,,,,,,,,,,,,207.801,208.8,208.8,7,209.302,210.701,0,210.817,0.115,0.117,0.116,0.118,0.117,0.116,0.117,0.116,0.118,0.116,0.116,210.817,211.517,right,0.689,,211.517,212.052,left,0.527,,26,0,26,212.052,213.051,0,12,12,12,1,prac_AB,L5_T1P_T2A,5,1,0,5,10,4,3,13,fish,Did you see the fish,0.13,0,resources/,pics/football.jpg,pics/safetypin.jpg,pics/shovel01.jpg,pics/sink.jpg,pics/holdfast.jpg,pics/nutcracker01.jpg,pics/starfish01.jpg,pics/onion.jpg,pics/footballhelmet.jpg,pics/boot02b.jpg,pics/sewingmachine01a.jpg,pics/kangaroo.jpg,pics/banjo.jpg,blankImage,blankImage,blankImage,blankImage,holdfast,14,0.117,,,,,,,,,,,,,,,,,,,,,,,,,,,,,,,,,,,,,,,,,,,,,,,,,,,,,,,,,,,,,,,,,,,,,,,,,,,,,,,,,,,,,,,,,,,,,,,,,,,
,,,,,60cfb80f9613ba516472434c,6682b41eeb79ab8215dff63d,6682b95c868b9c229e4cf691,23,female,English,2024-07-01_15h14.03.961,ABmemTask3,2023.2.3,MacIntel,55.55555556,,,,,,,,,,,,,,,,,,,,,,,,,,,,,,,213.051,214.052,214.052,7,214.552,215.602,0.001,215.719,0.115,0.117,0.116,0.118,0.116,0.117,0.116,0.116,0.118,,,215.719,216.235,right,0.501,,216.235,217.185,right,0.935,,28,0,28,217.185,218.185,0,13,13,13,1,prac_AB,L1_T1P_T2P,1,1,1,5,6,4,4,10,fish,Did you see the fish,0.12,0,resources/,pics/butterfly.jpg,pics/banjo.jpg,pics/leaf02a.jpg,pics/dustpan.jpg,pics/sturgeon.jpg,pics/stapler02.jpg,pics/necklace.jpg,pics/shovel01.jpg,pics/starfish01.jpg,pics/chainsaw.jpg,blankImage,blankImage,blankImage,blankImage,blankImage,blankImage,blankImage,sturgeon,3,,,,,,,,,,,,,,,,,,,,,,,,,,,,,,,,,,,,,,,,,,,,,,,,,,,,,,,,,,,,,,,,,,,,,,,,,,,,,,,,,,,,,,,,,,,,,,,,,,,,
,,,,,60cfb80f9613ba516472434c,6682b41eeb79ab8215dff63d,6682b95c868b9c229e4cf691,23,female,English,2024-07-01_15h14.03.961,ABmemTask3,2023.2.3,MacIntel,55.55555556,,,,,,,,,,,,,,,,,,,,,,,,,,,,,,,,,,,,,,,,,,,,,,,,,,,,,,,,,,,,,,,,,,,,,,,,,,,,,,,,,,,,,,,,,,,,,,,,,,,,,,,,,,,218.185,222.503,space,4.298,,,,,,,,,,,,,,,,,,,,,,,,,,,,,,,,,,,,,,,,,,,,,,,,,,,,,,,,,,,,,,,,,,,,,,,,,,,,,,,,,,,,,,,,,,,,,
,,,,,60cfb80f9613ba516472434c,6682b41eeb79ab8215dff63d,6682b95c868b9c229e4cf691,23,female,English,2024-07-01_15h14.03.961,ABmemTask3,2023.2.3,MacIntel,55.55555556,,,,,,,,,,,,,,,,,,,,,,,,,,,,,,,,,,,,,,,,,,,,,,,,,,,,,,,,,,,,,,,,,,,,,,,,,,,,,,,,,,,,,,,,,,,,,,,,,,,,,,,,,,,222.506,222.51,,,,,,,,,,,,,,,,,,,,,,,,,,,,,,,,,,,,,,,,,,,,,,,,,,,,,,,,,,,,,,,,,,,,,,,,,,,,,,,,,,,,,,,,,,,,,,,
,,,,,60cfb80f9613ba516472434c,6682b41eeb79ab8215dff63d,6682b95c868b9c229e4cf691,23,female,English,2024-07-01_15h14.03.961,ABmemTask3,2023.2.3,MacIntel,55.55555556,,,,,,,,,,,,,,,,,,,,,,,,,,,,,,,,,,,,,,,,,,,,,,,,,,,,,,,,,,,,,,,,,,,,,,,,,,,,,,,,,,,,,,,,,,,,,,,,,,,,,,,,,,,222.513,222.513,,,,,,,,,,,,,,,,,,,,,,,,,,,,,,,,,,,,,,,,,,,,,,,,,,,,,,,,,,,,,,,,,,,,,,,,,,,,,,,,,,,,,,,,,,,,,,,
,,,,,60cfb80f9613ba516472434c,6682b41eeb79ab8215dff63d,6682b95c868b9c229e4cf691,23,female,English,2024-07-01_15h14.03.961,ABmemTask3,2023.2.3,MacIntel,55.55555556,,,,,,,,,,,,,,,,,,,,,,,,,,,,,,,,,,,,,,,,,,,,,,,,,,,,,,,,,,,,,,,,,,,,,,,,,,,,,,,,,,,,,,,,,,,,,,,,,,,,,,,,,,,222.515,222.515,,,,,,,,,,,,,,,,,,,,,,,,,,,,,,,,,,,,,,,,,,,,,,,,,,,,,,,,,,,,,,,,,,,,,,,,,,,,,,,,,,,,,,,,,,,,,,,
,,,,,60cfb80f9613ba516472434c,6682b41eeb79ab8215dff63d,6682b95c868b9c229e4cf691,23,female,English,2024-07-01_15h14.03.961,ABmemTask3,2023.2.3,MacIntel,55.55555556,,,,,,,,,,,,,,,,,,,,,,,,,,,,,,,,,,,,,,,,,,,,,,,,,,,,,,,,,,,,,,,,,,,,,,,,,,,,,,,,,,,,,,,,,,,,,,,,,,,,,,,,,,,222.518,222.518,,,,,,,,,,,,,,,,,,,,,,,,,,,,,,,,,,,,,,,,,,,,,,,,,,,,,,,,,,,,,,,,,,,,,,,,,,,,,,,,,,,,,,,,,,,,,,,
,,,,,60cfb80f9613ba516472434c,6682b41eeb79ab8215dff63d,6682b95c868b9c229e4cf691,23,female,English,2024-07-01_15h14.03.961,ABmemTask3,2023.2.3,MacIntel,55.55555556,,,,,,,,,,,,,,,,,,,,,,,,,,,,,,,,,,,,,,,,,,,,,,,,,,,,,,,,,,,,,,,,,,,,,,,,,,,,,,,,,,,,,,,,,,,,,,,,,,,,,,,,,,,222.52,222.52,,,,,,,,,,,,,,,,,,,,,,,,,,,,,,,,,,,,,,,,,,,,,,,,,,,,,,,,,,,,,,,,,,,,,,,,,,,,,,,,,,,,,,,,,,,,,,,
,,,,,60cfb80f9613ba516472434c,6682b41eeb79ab8215dff63d,6682b95c868b9c229e4cf691,23,female,English,2024-07-01_15h14.03.961,ABmemTask3,2023.2.3,MacIntel,55.55555556,,,,,,,,,,,,,,,,,,,,,,,,,,,,,,,,,,,,,,,,,,,,,,,,,,,,,,,,,,,,,,,,,,,,,,,,,,,,,,,,,,,,,,,,,,,,,,,,,,,,,,,,,,,222.521,222.522,,,,,,,,,,,,,,,,,,,,,,,,,,,,,,,,,,,,,,,,,,,,,,,,,,,,,,,,,,,,,,,,,,,,,,,,,,,,,,,,,,,,,,,,,,,,,,,
,,,,,60cfb80f9613ba516472434c,6682b41eeb79ab8215dff63d,6682b95c868b9c229e4cf691,23,female,English,2024-07-01_15h14.03.961,ABmemTask3,2023.2.3,MacIntel,55.55555556,,,,,,,,,,,,,,,,,,,,,,,,,,,,,,,,,,,,,,,,,,,,,,,,,,,,,,,,,,,,,,,,,,,,,,,,,,,,,,,,,,,,,,,,,,,,,,,,,,,,,,,,,,,222.523,222.523,,,,,,,,,,,,,,,,,,,,,,,,,,,,,,,,,,,,,,,,,,,,,,,,,,,,,,,,,,,,,,,,,,,,,,,,,,,,,,,,,,,,,,,,,,,,,,,
,,,,,60cfb80f9613ba516472434c,6682b41eeb79ab8215dff63d,6682b95c868b9c229e4cf691,23,female,English,2024-07-01_15h14.03.961,ABmemTask3,2023.2.3,MacIntel,55.55555556,,,,,,,,,,,,,,,,,,,,,,,,,,,,,,,,,,,,,,,,,,,,,,,,,,,,,,,,,,,,,,,,,,,,,,,,,,,,,,,,,,,,,,,,,,,,,,,,,,,,,,,,,,,222.525,222.525,,,,,,,,,,,,,,,,,,,,,,,,,,,,,,,,,,,,,,,,,,,,,,,,,,,,,,,,,,,,,,,,,,,,,,,,,,,,,,,,,,,,,,,,,,,,,,,
,,,,,60cfb80f9613ba516472434c,6682b41eeb79ab8215dff63d,6682b95c868b9c229e4cf691,23,female,English,2024-07-01_15h14.03.961,ABmemTask3,2023.2.3,MacIntel,55.55555556,,,,,,,,,,,,,,,,,,,,,,,,,,,,,,,,,,,,,,,,,,,,,,,,,,,,,,,,,,,,,,,,,,,,,,,,,,,,,,,,,,,,,,,,,,,,,,,,,,,,,,,,,,,222.527,222.527,,,,,,,,,,,,,,,,,,,,,,,,,,,,,,,,,,,,,,,,,,,,,,,,,,,,,,,,,,,,,,,,,,,,,,,,,,,,,,,,,,,,,,,,,,,,,,,
,,,,,60cfb80f9613ba516472434c,6682b41eeb79ab8215dff63d,6682b95c868b9c229e4cf691,23,female,English,2024-07-01_15h14.03.961,ABmemTask3,2023.2.3,MacIntel,55.55555556,,,,,,,,,,,,,,,,,,,,,,,,,,,,,,,,,,,,,,,,,,,,,,,,,,,,,,,,,,,,,,,,,,,,,,,,,,,,,,,,,,,,,,,,,,,,,,,,,,,,,,,,,,,222.528,222.529,,,,,,,,,,,,,,,,,,,,,,,,,,,,,,,,,,,,,,,,,,,,,,,,,,,,,,,,,,,,,,,,,,,,,,,,,,,,,,,,,,,,,,,,,,,,,,,
,,,,,60cfb80f9613ba516472434c,6682b41eeb79ab8215dff63d,6682b95c868b9c229e4cf691,23,female,English,2024-07-01_15h14.03.961,ABmemTask3,2023.2.3,MacIntel,55.55555556,,,,,,,,,,,,,,,,,,,,,,,,,,,,,,,,,,,,,,,,,,,,,,,,,,,,,,,,,,,,,,,,,,,,,,,,,,,,,,,,,,,,,,,,,,,,,,,,,,,,,,,,,,,222.53,222.53,,,,,,,,,,,,,,,,,,,,,,,,,,,,,,,,,,,,,,,,,,,,,,,,,,,,,,,,,,,,,,,,,,,,,,,,,,,,,,,,,,,,,,,,,,,,,,,
,,,,,60cfb80f9613ba516472434c,6682b41eeb79ab8215dff63d,6682b95c868b9c229e4cf691,23,female,English,2024-07-01_15h14.03.961,ABmemTask3,2023.2.3,MacIntel,55.55555556,,,,,,,,,,,,,,,,,,,,,,,,,,,,,,,,,,,,,,,,,,,,,,,,,,,,,,,,,,,,,,,,,,,,,,,,,,,,,,,,,,,,,,,,,,,,,,,,,,,,,,,,,,,222.532,222.532,,,,,,,,,,,,,,,,,,,,,,,,,,,,,,,,,,,,,,,,,,,,,,,,,,,,,,,,,,,,,,,,,,,,,,,,,,,,,,,,,,,,,,,,,,,,,,,
,,,,,60cfb80f9613ba516472434c,6682b41eeb79ab8215dff63d,6682b95c868b9c229e4cf691,23,female,English,2024-07-01_15h14.03.961,ABmemTask3,2023.2.3,MacIntel,55.55555556,,,,,,,,,,,,,,,,,,,,,,,,,,,,,,,,,,,,,,,,,,,,,,,,,,,,,,,,,,,,,,,,,,,,,,,,,,,,,,,,,,,,,,,,,,,,,,,,,,,,,,,,,,,222.534,222.534,,,,,,,,,,,,,,,,,,,,,,,,,,,,,,,,,,,,,,,,,,,,,,,,,,,,,,,,,,,,,,,,,,,,,,,,,,,,,,,,,,,,,,,,,,,,,,,
,,,,,60cfb80f9613ba516472434c,6682b41eeb79ab8215dff63d,6682b95c868b9c229e4cf691,23,female,English,2024-07-01_15h14.03.961,ABmemTask3,2023.2.3,MacIntel,55.55555556,,,,,,,,,,,,,,,,,,,,,,,,,,,,,,,,,,,,,,,,,,,,,,,,,,,,,,,,,,,,,,,,,,,,,,,,,,,,,,,,,,,,,,,,,,,,,,,,,,,,,,,,,,,222.535,222.535,,,,,,,,,,,,,,,,,,,,,,,,,,,,,,,,,,,,,,,,,,,,,,,,,,,,,,,,,,,,,,,,,,,,,,,,,,,,,,,,,,,,,,,,,,,,,,,
,,,,,60cfb80f9613ba516472434c,6682b41eeb79ab8215dff63d,6682b95c868b9c229e4cf691,23,female,English,2024-07-01_15h14.03.961,ABmemTask3,2023.2.3,MacIntel,55.55555556,,,,,,,,,,,,,,,,,,,,,,,,,,,,,,,,,,,,,,,,,,,,,,,,,,,,,,,,,,,,,,,,,,,,,,,,,,,,,,,,,,,,,,,,,,,,,,,,,,,,,,,,,,,222.537,222.537,,,,,,,,,,,,,,,,,,,,,,,,,,,,,,,,,,,,,,,,,,,,,,,,,,,,,,,,,,,,,,,,,,,,,,,,,,,,,,,,,,,,,,,,,,,,,,,
,,,,,60cfb80f9613ba516472434c,6682b41eeb79ab8215dff63d,6682b95c868b9c229e4cf691,23,female,English,2024-07-01_15h14.03.961,ABmemTask3,2023.2.3,MacIntel,55.55555556,,,,,,,,,,,,,,,,,,,,,,,,,,,,,,,,,,,,,,,,,,,,,,,,,,,,,,,,,,,,,,,,,,,,,,,,,,,,,,,,,,,,,,,,,,,,,,,,,,,,,,,,,,,222.539,222.539,,,,,,,,,,,,,,,,,,,,,,,,,,,,,,,,,,,,,,,,,,,,,,,,,,,,,,,,,,,,,,,,,,,,,,,,,,,,,,,,,,,,,,,,,,,,,,,
,,,,,60cfb80f9613ba516472434c,6682b41eeb79ab8215dff63d,6682b95c868b9c229e4cf691,23,female,English,2024-07-01_15h14.03.961,ABmemTask3,2023.2.3,MacIntel,55.55555556,,,,,,,,,,,,,,,,,,,,,,,,,,,,,,,,,,,,,,,,,,,,,,,,,,,,,,,,,,,,,,,,,,,,,,,,,,,,,,,,,,,,,,,,,,,,,,,,,,,,,,,,,,,222.541,222.541,,,,,,,,,,,,,,,,,,,,,,,,,,,,,,,,,,,,,,,,,,,,,,,,,,,,,,,,,,,,,,,,,,,,,,,,,,,,,,,,,,,,,,,,,,,,,,,
,,,,,60cfb80f9613ba516472434c,6682b41eeb79ab8215dff63d,6682b95c868b9c229e4cf691,23,female,English,2024-07-01_15h14.03.961,ABmemTask3,2023.2.3,MacIntel,55.55555556,,,,,,,,,,,,,,,,,,,,,,,,,,,,,,,,,,,,,,,,,,,,,,,,,,,,,,,,,,,,,,,,,,,,,,,,,,,,,,,,,,,,,,,,,,,,,,,,,,,,,,,,,,,222.542,222.542,,,,,,,,,,,,,,,,,,,,,,,,,,,,,,,,,,,,,,,,,,,,,,,,,,,,,,,,,,,,,,,,,,,,,,,,,,,,,,,,,,,,,,,,,,,,,,,
,,,,,60cfb80f9613ba516472434c,6682b41eeb79ab8215dff63d,6682b95c868b9c229e4cf691,23,female,English,2024-07-01_15h14.03.961,ABmemTask3,2023.2.3,MacIntel,55.55555556,,,,,,,,,,,,,,,,,,,,,,,,,,,,,,,,,,,,,,,,,,,,,,,,,,,,,,,,,,,,,,,,,,,,,,,,,,,,,,,,,,,,,,,,,,,,,,,,,,,,,,,,,,,222.544,222.544,,,,,,,,,,,,,,,,,,,,,,,,,,,,,,,,,,,,,,,,,,,,,,,,,,,,,,,,,,,,,,,,,,,,,,,,,,,,,,,,,,,,,,,,,,,,,,,
,,,,,60cfb80f9613ba516472434c,6682b41eeb79ab8215dff63d,6682b95c868b9c229e4cf691,23,female,English,2024-07-01_15h14.03.961,ABmemTask3,2023.2.3,MacIntel,55.55555556,,,,,,,,,,,,,,,,,,,,,,,,,,,,,,,,,,,,,,,,,,,,,,,,,,,,,,,,,,,,,,,,,,,,,,,,,,,,,,,,,,,,,,,,,,,,,,,,,,,,,,,,,,,222.546,222.546,,,,,,,,,,,,,,,,,,,,,,,,,,,,,,,,,,,,,,,,,,,,,,,,,,,,,,,,,,,,,,,,,,,,,,,,,,,,,,,,,,,,,,,,,,,,,,,
,,,,,60cfb80f9613ba516472434c,6682b41eeb79ab8215dff63d,6682b95c868b9c229e4cf691,23,female,English,2024-07-01_15h14.03.961,ABmemTask3,2023.2.3,MacIntel,55.55555556,,,,,,,,,,,,,,,,,,,,,,,,,,,,,,,,,,,,,,,,,,,,,,,,,,,,,,,,,,,,,,,,,,,,,,,,,,,,,,,,,,,,,,,,,,,,,,,,,,,,,,,,,,,,,,,,222.547,232.653,space,10.089,,,,,,,,,,,,,,,,,,,,,,,,,,,,,,,,,,,,,,,,,,,,,,,,,,,,,,,,,,,,,,,,,,,,,,,,,,,,,,,,,,,,,,,,
,,,,,60cfb80f9613ba516472434c,6682b41eeb79ab8215dff63d,6682b95c868b9c229e4cf691,23,female,English,2024-07-01_15h14.03.961,ABmemTask3,2023.2.3,MacIntel,55.55555556,,,,,,,,,,,,,,,,,,,,,,,,,,,,,,,,,232.66,556,233.152,,,,,,,,,,,,,,,,,,,,,,,,,,0,,,,,,,,,prac_MEM,new,,,,,,,,,,,10,,,,,,,,,,,,,,,,,,,,,,,,,,,,,,,,,,,233.152,243.47,-9,6,10.294,,243.471,244.471,0,0,0,9,1,999,999,pics/moth.jpg,,,,,,,,,,,,,,,,,,,,,,,,,,,,,,,,,,,,,,,,,,,,,,,,,,,,,,,,,,,,,,,,,,,,,,,
,,,,,60cfb80f9613ba516472434c,6682b41eeb79ab8215dff63d,6682b95c868b9c229e4cf691,23,female,English,2024-07-01_15h14.03.961,ABmemTask3,2023.2.3,MacIntel,55.55555556,,,,,,,,,,,,,,,,,,,,,,,,,,,,,,,,,244.471,556,244.971,,,,,,,,,,,,,,,,,,,,,,,,,,0,,,,,,,,,prac_MEM,old,,,,,,,,,,,10,,,,,,,,,,,,,,,,,,,,,,,,,,,,,,,,,,,244.971,248.337,-6,6,3.349,,248.337,249.337,0,1,1,2,1,3,1,pics/sturgeon.jpg,,,,,,,,,,,,,,,,,,,,,,,,,,,,,,,,,,,,,,,,,,,,,,,,,,,,,,,,,,,,,,,,,,,,,,,
,,,,,60cfb80f9613ba516472434c,6682b41eeb79ab8215dff63d,6682b95c868b9c229e4cf691,23,female,English,2024-07-01_15h14.03.961,ABmemTask3,2023.2.3,MacIntel,55.55555556,,,,,,,,,,,,,,,,,,,,,,,,,,,,,,,,,249.338,556,249.837,,,,,,,,,,,,,,,,,,,,,,,,,,0,,,,,,,,,prac_MEM,old,,,,,,,,,,,10,,,,,,,,,,,,,,,,,,,,,,,,,,,,,,,,,,,249.837,251.988,-3,6,2.132,,251.988,252.987,0,2,2,5,1,11,5,pics/grater01a.jpg,,,,,,,,,,,,,,,,,,,,,,,,,,,,,,,,,,,,,,,,,,,,,,,,,,,,,,,,,,,,,,,,,,,,,,,
,,,,,60cfb80f9613ba516472434c,6682b41eeb79ab8215dff63d,6682b95c868b9c229e4cf691,23,female,English,2024-07-01_15h14.03.961,ABmemTask3,2023.2.3,MacIntel,55.55555556,,,,,,,,,,,,,,,,,,,,,,,,,,,,,,,,,252.987,556,253.487,,,,,,,,,,,,,,,,,,,,,,,,,,0,,,,,,,,,prac_MEM,old,,,,,,,,,,,10,,,,,,,,,,,,,,,,,,,,,,,,,,,,,,,,,,,253.487,254.672,0,6,1.177,,254.672,255.671,0,3,3,4,1,5,1,pics/tongs01b.jpg,,,,,,,,,,,,,,,,,,,,,,,,,,,,,,,,,,,,,,,,,,,,,,,,,,,,,,,,,,,,,,,,,,,,,,,
,,,,,60cfb80f9613ba516472434c,6682b41eeb79ab8215dff63d,6682b95c868b9c229e4cf691,23,female,English,2024-07-01_15h14.03.961,ABmemTask3,2023.2.3,MacIntel,55.55555556,,,,,,,,,,,,,,,,,,,,,,,,,,,,,,,,,255.672,556,256.171,,,,,,,,,,,,,,,,,,,,,,,,,,0,,,,,,,,,prac_MEM,old,,,,,,,,,,,10,,,,,,,,,,,,,,,,,,,,,,,,,,,,,,,,,,,256.171,257.337,3,6,1.158,,257.337,258.338,0,4,4,1,1,2,1,pics/pants.jpg,,,,,,,,,,,,,,,,,,,,,,,,,,,,,,,,,,,,,,,,,,,,,,,,,,,,,,,,,,,,,,,,,,,,,,,
,,,,,60cfb80f9613ba516472434c,6682b41eeb79ab8215dff63d,6682b95c868b9c229e4cf691,23,female,English,2024-07-01_15h14.03.961,ABmemTask3,2023.2.3,MacIntel,55.55555556,,,,,,,,,,,,,,,,,,,,,,,,,,,,,,,,,258.338,556,258.838,,,,,,,,,,,,,,,,,,,,,,,,,,0,,,,,,,,,prac_MEM,new,,,,,,,,,,,10,,,,,,,,,,,,,,,,,,,,,,,,,,,,,,,,,,,258.838,262.004,4,3,3.156,,262.004,263.005,0,5,5,7,1,999,999,pics/cherry01.jpg,,,,,,,,,,,,,,,,,,,,,,,,,,,,,,,,,,,,,,,,,,,,,,,,,,,,,,,,,,,,,,,,,,,,,,,
,,,,,60cfb80f9613ba516472434c,6682b41eeb79ab8215dff63d,6682b95c868b9c229e4cf691,23,female,English,2024-07-01_15h14.03.961,ABmemTask3,2023.2.3,MacIntel,55.55555556,,,,,,,,,,,,,,,,,,,,,,,,,,,,,,,,,263.005,556,263.504,,,,,,,,,,,,,,,,,,,,,,,,,,0,,,,,,,,,prac_MEM,old,,,,,,,,,,,10,,,,,,,,,,,,,,,,,,,,,,,,,,,,,,,,,,,263.504,267.172,6,5,3.65,,267.172,268.172,0,6,6,0,1,1,1,pics/tree.jpg,,,,,,,,,,,,,,,,,,,,,,,,,,,,,,,,,,,,,,,,,,,,,,,,,,,,,,,,,,,,,,,,,,,,,,,
,,,,,60cfb80f9613ba516472434c,6682b41eeb79ab8215dff63d,6682b95c868b9c229e4cf691,23,female,English,2024-07-01_15h14.03.961,ABmemTask3,2023.2.3,MacIntel,55.55555556,,,,,,,,,,,,,,,,,,,,,,,,,,,,,,,,,268.172,556,268.672,,,,,,,,,,,,,,,,,,,,,,,,,,0,,,,,,,,,prac_MEM,old,,,,,,,,,,,10,,,,,,,,,,,,,,,,,,,,,,,,,,,,,,,,,,,268.672,270.521,9,6,1.833,,270.521,271.522,0,7,7,3,1,4,1,pics/shorts01.jpg,,,,,,,,,,,,,,,,,,,,,,,,,,,,,,,,,,,,,,,,,,,,,,,,,,,,,,,,,,,,,,,,,,,,,,,
,,,,,60cfb80f9613ba516472434c,6682b41eeb79ab8215dff63d,6682b95c868b9c229e4cf691,23,female,English,2024-07-01_15h14.03.961,ABmemTask3,2023.2.3,MacIntel,55.55555556,,,,,,,,,,,,,,,,,,,,,,,,,,,,,,,,,271.523,556,272.022,,,,,,,,,,,,,,,,,,,,,,,,,,0,,,,,,,,,prac_MEM,new,,,,,,,,,,,10,,,,,,,,,,,,,,,,,,,,,,,,,,,,,,,,,,,272.022,273.488,0,6,1.448,,273.488,274.489,0,8,8,8,1,999,999,pics/thread02.jpg,,,,,,,,,,,,,,,,,,,,,,,,,,,,,,,,,,,,,,,,,,,,,,,,,,,,,,,,,,,,,,,,,,,,,,,
,,,,,60cfb80f9613ba516472434c,6682b41eeb79ab8215dff63d,6682b95c868b9c229e4cf691,23,female,English,2024-07-01_15h14.03.961,ABmemTask3,2023.2.3,MacIntel,55.55555556,,,,,,,,,,,,,,,,,,,,,,,,,,,,,,,,,274.489,556,274.988,,,,,,,,,,,,,,,,,,,,,,,,,,0,,,,,,,,,prac_MEM,new,,,,,,,,,,,10,,,,,,,,,,,,,,,,,,,,,,,,,,,,,,,,,,,274.988,278.056,2,2,3.051,,278.056,279.056,0,9,9,10,1,999,999,pics/tomato01.jpg,,,,,,,,,,,,,,,,,,,,,,,,,,,,,,,,,,,,,,,,,,,,,,,,,,,,,,,,,,,,,,,,,,,,,,,
,,,,,60cfb80f9613ba516472434c,6682b41eeb79ab8215dff63d,6682b95c868b9c229e4cf691,23,female,English,2024-07-01_15h14.03.961,ABmemTask3,2023.2.3,MacIntel,55.55555556,,,,,,,,,,,,,,,,,,,,,,,,,,,,,,,,,279.056,556,279.556,,,,,,,,,,,,,,,,,,,,,,,,,,0,,,,,,,,,prac_MEM,old,,,,,,,,,,,10,,,,,,,,,,,,,,,,,,,,,,,,,,,,,,,,,,,279.556,281.19,5,6,1.619,,281.19,282.189,0,10,10,6,1,12,5,pics/humanskull.jpg,,,,,,,,,,,,,,,,,,,,,,,,,,,,,,,,,,,,,,,,,,,,,,,,,,,,,,,,,,,,,,,,,,,,,,,
,,,,,60cfb80f9613ba516472434c,6682b41eeb79ab8215dff63d,6682b95c868b9c229e4cf691,23,female,English,2024-07-01_15h14.03.961,ABmemTask3,2023.2.3,MacIntel,55.55555556,,,,,,,,,,,,,,,,,,,,,,,,,,,,,,,,,,,,,,,,,,,,,,,,,,,,,,,,,,,,,,,,,,,,,,,,,,,,,,,,,,,,,,,,,,,,,,,,,,,,,,,,,,,,,,,,,,,,,,,,,,,,,,,,,,,,,282.19,286.056,286.056,286.057,,,,,,,,,,,,,,,,,,,,,,,,,,,,,,,,,,,,,,,,,,,,,,,,,,,,,,,,,,,,,,,,,,,
,,,,,60cfb80f9613ba516472434c,6682b41eeb79ab8215dff63d,6682b95c868b9c229e4cf691,23,female,English,2024-07-01_15h14.03.961,ABmemTask3,2023.2.3,MacIntel,55.55555556,,,,,,,,,,,,,,,,,,space,23.6,,,,,,,,,,,,,,,,,,,,,,,,,,,,,,,,,,,,,,,,,,,,,,,,,,,,,,,,,,,,,,,,,,,,,,,,,,,,,,,,,,,,,,,,,,,,,,,,,,,,,,,,,,,,,,,,,,,,,,286.057,309.691,,,,,,,,,,,,,,,,,,,,,,,,,,,,,,,,,,,,,,,,,,,,,,,,,,,,,,,,,,,,,,,,,
,,,,,60cfb80f9613ba516472434c,6682b41eeb79ab8215dff63d,6682b95c868b9c229e4cf691,23,female,English,2024-07-01_15h14.03.961,ABmemTask3,2023.2.3,MacIntel,55.55555556,,,,,,,,,,,,,,,,,,,,,,,,,,,,,,,,,,,,,,,,,,,,,,,,,,,,,,,,,,,,,,,,,,,,,,,,,,,,,,,,,,,,,,,,,,,,,,,,,,,,,,,,,,,,,,,,,,,,,,,,,,,,,,,,,,,,,,,,,,,309.691,319.76,space,10.041,,,,,,,,,,,,,,,,,,,,,,,,,,,,,,,,,,,,,,,,,,,,,,,,,,,,,,,,,,,,,
,,,,,60cfb80f9613ba516472434c,6682b41eeb79ab8215dff63d,6682b95c868b9c229e4cf691,23,female,English,2024-07-01_15h14.03.961,ABmemTask3,2023.2.3,MacIntel,55.55555556,,,,,,,,,,,,,,,,,,,,,,,,,,,,,,,319.767,320.759,320.759,7,321.259,322.308,0.001,322.425,0.116,0.116,0.116,0.117,0.118,0.116,0.116,0.116,0.117,,,322.425,322.975,right,0.539,,322.975,323.392,right,0.402,,2,0,2,323.392,324.391,,,,,,1_AB,L1_T1P_T2P,1,1,1,4,5,3,5,10,chair,Did you see the chair,0.12,0,resources/,pics/zebra.jpg,pics/floortile02.jpg,pics/cork02.jpg,pics/chair.jpg,pics/stapler07.jpg,pics/sealion.jpg,pics/shovel01.jpg,pics/piggybank.jpg,pics/candleholder01.jpg,pics/laptop01a.jpg,blankImage,blankImage,blankImage,blankImage,blankImage,blankImage,blankImage,chair,3,,,,,,,,,,,,,,,,,,,,,,,,,,,,,,,,,,,,,,,,,0,0,0,2,1,,,,,,,,,,,,,,,,,,,,,,,,,,,,,,,,,,,,,,,,,,,,,,,,,,,,,,,
,,,,,60cfb80f9613ba516472434c,6682b41eeb79ab8215dff63d,6682b95c868b9c229e4cf691,23,female,English,2024-07-01_15h14.03.961,ABmemTask3,2023.2.3,MacIntel,55.55555556,,,,,,,,,,,,,,,,,,,,,,,,,,,,,,,324.392,325.393,325.393,7,325.892,327.526,0,327.642,0.115,0.118,0.117,0.116,0.116,0.117,0.117,0.117,0.116,0.117,0.116,327.642,328.309,left,0.649,,328.309,328.725,right,0.404,,4,0,4,328.725,329.726,,,,,,1_AB,L5_T1A_T2P,5,0,1,7,12,6,3,15,scissors,Did you see the scissors,0.12,0,resources/,pics/cannon.jpg,pics/mummy.jpg,pics/shovel01.jpg,pics/christmaslights.jpg,pics/snowshoe.jpg,pics/candle01.jpg,pics/bowtie.jpg,pics/giraffe.jpg,pics/carrot01.jpg,pics/spoon01.jpg,pics/seaturtle.jpg,pics/stapler10.jpg,pics/footballhelmet.jpg,pics/onion.jpg,pics/wheel01.jpg,blankImage,blankImage,scissors01,57,0.117,0.117,0.117,,,,,,,,,,,,,,,,,,,,,,,,,,,,,,,,,,,,,,0,1,1,56,1,,,,,,,,,,,,,,,,,,,,,,,,,,,,,,,,,,,,,,,,,,,,,,,,,,,,,,,
,,,,,60cfb80f9613ba516472434c,6682b41eeb79ab8215dff63d,6682b95c868b9c229e4cf691,23,female,English,2024-07-01_15h14.03.961,ABmemTask3,2023.2.3,MacIntel,55.55555556,,,,,,,,,,,,,,,,,,,,,,,,,,,,,,,329.726,330.726,330.726,7,331.226,332.159,0.001,332.276,0.116,0.116,0.116,0.118,0.117,0.116,0.116,0.117,,,,332.277,333.492,right,1.201,,333.492,334.026,right,0.523,,6,0,6,334.026,335.026,,,,,,1_AB,L1_T1P_T2P,1,1,1,5,6,4,3,9,paint brush,Did you see the paint brush,0.12,0,resources/,pics/nutcracker01.jpg,pics/piggybank.jpg,pics/spiderweb.jpg,pics/table01.jpg,pics/paintbrush01.jpg,pics/stapler09.jpg,pics/hose.jpg,pics/cannon.jpg,pics/mummy.jpg,blankImage,blankImage,blankImage,blankImage,blankImage,blankImage,blankImage,blankImage,paintbrush01,20,,,,,,,,,,,,,,,,,,,,,,,,,,,,,,,,,,,,,,,,,0,2,2,19,1,,,,,,,,,,,,,,,,,,,,,,,,,,,,,,,,,,,,,,,,,,,,,,,,,,,,,,,
,,,,,60cfb80f9613ba516472434c,6682b41eeb79ab8215dff63d,6682b95c868b9c229e4cf691,23,female,English,2024-07-01_15h14.03.961,ABmemTask3,2023.2.3,MacIntel,55.55555556,,,,,,,,,,,,,,,,,,,,,,,,,,,,,,,335.026,336.027,336.027,7,336.526,337.694,0.001,337.81,0.116,0.116,0.118,0.117,0.116,0.116,0.117,0.116,0.118,0.117,,337.81,338.776,right,0.945,,338.776,339.226,left,0.442,,8,0,8,339.226,340.226,,,,,,1_AB,L1_T1P_T2A,1,1,0,6,7,5,4,11,lamp,Did you see the lamp,0.12,0,resources/,pics/chainsaw.jpg,pics/fanblades.jpg,pics/salmon.jpg,pics/proboscismonkey.jpg,pics/boot02b.jpg,pics/lamp04a.jpg,pics/blender.jpg,pics/sink.jpg,pics/pencil01.jpg,pics/floortile02.jpg,pics/shovel01.jpg,blankImage,blankImage,blankImage,blankImage,blankImage,blankImage,lamp04a,37,,,,,,,,,,,,,,,,,,,,,,,,,,,,,,,,,,,,,,,,,0,3,3,36,1,,,,,,,,,,,,,,,,,,,,,,,,,,,,,,,,,,,,,,,,,,,,,,,,,,,,,,,
,,,,,60cfb80f9613ba516472434c,6682b41eeb79ab8215dff63d,6682b95c868b9c229e4cf691,23,female,English,2024-07-01_15h14.03.961,ABmemTask3,2023.2.3,MacIntel,55.55555556,,,,,,,,,,,,,,,,,,,,,,,,,,,,,,,340.227,341.226,341.226,7,341.727,342.776,0.001,342.893,0.116,0.116,0.116,0.117,0.117,0.116,0.118,0.116,0.116,,,342.893,343.978,left,1.074,,343.978,344.761,left,0.767,,8,0,10,344.761,345.76,,,,,,1_AB,L1_T1A_T2P,1,0,1,5,6,4,4,10,Rabbit,Did you see the Rabbit,0.12,0,resources/,pics/cannon.jpg,pics/proboscismonkey.jpg,pics/salmon.jpg,pics/nutcracker01.jpg,pics/seagull.jpg,pics/stapler02.jpg,pics/table01.jpg,pics/laptop01a.jpg,pics/necklace.jpg,pics/pencilsharpener02a.jpg,blankImage,blankImage,blankImage,blankImage,blankImage,blankImage,blankImage,jackrabbit,31,,,,,,,,,,,,,,,,,,,,,,,,,,,,,,,,,,,,,,,,,0,4,4,30,1,,,,,,,,,,,,,,,,,,,,,,,,,,,,,,,,,,,,,,,,,,,,,,,,,,,,,,,
,,,,,60cfb80f9613ba516472434c,6682b41eeb79ab8215dff63d,6682b95c868b9c229e4cf691,23,female,English,2024-07-01_15h14.03.961,ABmemTask3,2023.2.3,MacIntel,55.55555556,,,,,,,,,,,,,,,,,,,,,,,,,,,,,,,345.76,346.76,346.76,7,347.26,348.543,0.001,348.66,0.115,0.117,0.118,0.116,0.116,0.117,0.117,0.117,0.116,0.117,0.116,348.66,349.527,right,0.846,,349.527,350.028,left,0.489,,8,0,12,350.028,351.027,,,,,,1_AB,L1_T1P_T2P,1,1,1,6,7,5,5,12,rope,Did you see the rope,0.12,0,resources/,pics/toiletpaper01a.jpg,pics/sewingmachine01a.jpg,pics/birdhouse.jpg,pics/sealion.jpg,pics/safetypin.jpg,pics/rope03.jpg,pics/stapler04.jpg,pics/binder03b.jpg,pics/ashtray01.jpg,pics/sandbarshark.jpg,pics/chainsaw.jpg,pics/nutcracker01.jpg,blankImage,blankImage,blankImage,blankImage,blankImage,rope03,4,,,,,,,,,,,,,,,,,,,,,,,,,,,,,,,,,,,,,,,,,0,5,5,3,1,,,,,,,,,,,,,,,,,,,,,,,,,,,,,,,,,,,,,,,,,,,,,,,,,,,,,,,
,,,,,60cfb80f9613ba516472434c,6682b41eeb79ab8215dff63d,6682b95c868b9c229e4cf691,23,female,English,2024-07-01_15h14.03.961,ABmemTask3,2023.2.3,MacIntel,55.55555556,,,,,,,,,,,,,,,,,,,,,,,,,,,,,,,351.027,352.028,352.028,7,352.527,353.46,0.001,353.577,0.116,0.116,0.117,0.117,0.117,0.116,0.117,0.116,,,,353.577,354.743,left,1.148,,354.743,355.177,right,0.42,,8,0,14,355.177,356.178,,,,,,1_AB,L1_T1P_T2P,1,1,1,4,5,3,4,9,Chefs hat,Did you see the Chefs hat,0.12,0,resources/,pics/sewingmachine01a.jpg,pics/icecube01.jpg,pics/fanblades.jpg,pics/chefshat.jpg,pics/stapler06.jpg,pics/ashtray01.jpg,pics/blender.jpg,pics/sandbarshark.jpg,pics/lock03a.jpg,blankImage,blankImage,blankImage,blankImage,blankImage,blankImage,blankImage,blankImage,chefshat,12,,,,,,,,,,,,,,,,,,,,,,,,,,,,,,,,,,,,,,,,,0,6,6,11,1,,,,,,,,,,,,,,,,,,,,,,,,,,,,,,,,,,,,,,,,,,,,,,,,,,,,,,,
,,,,,60cfb80f9613ba516472434c,6682b41eeb79ab8215dff63d,6682b95c868b9c229e4cf691,23,female,English,2024-07-01_15h14.03.961,ABmemTask3,2023.2.3,MacIntel,55.55555556,,,,,,,,,,,,,,,,,,,,,,,,,,,,,,,356.178,357.178,357.178,7,357.677,358.961,0.001,359.078,0.117,0.117,0.116,0.117,0.116,0.117,0.117,0.116,0.117,0.116,0.117,359.078,360.162,left,1.064,,360.162,360.728,left,0.56,,8,0,16,360.728,361.728,,,,,,1_AB,L5_T1A_T2P,5,0,1,4,9,3,3,12,rooster,Did you see the rooster,0.12,0,resources/,pics/table01.jpg,pics/icecube01.jpg,pics/dustpan.jpg,pics/lock03a.jpg,pics/sailboat.jpg,pics/salmon.jpg,pics/banjo.jpg,pics/zebra.jpg,pics/stapler09.jpg,pics/peach01.jpg,pics/chainsaw.jpg,pics/football.jpg,blankImage,blankImage,blankImage,blankImage,blankImage,rooster,55,,,,,,,,,,,,,,,,,,,,,,,,,,,,,,,,,,,,,,,,,0,7,7,54,1,,,,,,,,,,,,,,,,,,,,,,,,,,,,,,,,,,,,,,,,,,,,,,,,,,,,,,,
,,,,,60cfb80f9613ba516472434c,6682b41eeb79ab8215dff63d,6682b95c868b9c229e4cf691,23,female,English,2024-07-01_15h14.03.961,ABmemTask3,2023.2.3,MacIntel,55.55555556,,,,,,,,,,,,,,,,,,,,,,,,,,,,,,,361.729,362.727,362.727,7,363.228,364.629,0.001,364.745,0.115,0.118,0.116,0.116,0.118,0.116,0.117,0.116,0.117,0.117,0.117,364.745,366.562,left,1.802,,366.562,367.495,right,0.921,,10,0,18,367.495,368.495,,,,,,1_AB,L1_T1A_T2P,1,0,1,7,8,6,5,13,statue,Did you see the statue,0.12,0,resources/,pics/giraffe.jpg,pics/seaturtle.jpg,pics/peach01.jpg,pics/boot02b.jpg,pics/backpack01a.jpg,pics/sandbarshark.jpg,pics/microscope.jpg,pics/stapler07.jpg,pics/snowshoe.jpg,pics/laptop01a.jpg,pics/necklace.jpg,pics/zebra.jpg,pics/carrot01.jpg,blankImage,blankImage,blankImage,blankImage,statue,27,0.117,,,,,,,,,,,,,,,,,,,,,,,,,,,,,,,,,,,,,,,,0,8,8,26,1,,,,,,,,,,,,,,,,,,,,,,,,,,,,,,,,,,,,,,,,,,,,,,,,,,,,,,,
,,,,,60cfb80f9613ba516472434c,6682b41eeb79ab8215dff63d,6682b95c868b9c229e4cf691,23,female,English,2024-07-01_15h14.03.961,ABmemTask3,2023.2.3,MacIntel,55.55555556,,,,,,,,,,,,,,,,,,,,,,,,,,,,,,,368.495,369.496,369.496,7,369.995,371.278,0.001,371.394,0.116,0.117,0.117,0.116,0.117,0.116,0.117,0.117,0.117,0.116,0.116,371.394,372.229,right,0.823,,372.229,372.995,left,0.75,,10,0,20,372.995,373.995,,,,,,1_AB,L1_T1P_T2P,1,1,1,7,8,6,4,12,Turnstile,Did you see the Turnstile,0.12,0,resources/,pics/golfball.jpg,pics/hose.jpg,pics/siamesecat.jpg,pics/binoculars01b.jpg,pics/hen.jpg,pics/candleholder01.jpg,pics/turnstile.jpg,pics/stapler03a.jpg,pics/giraffe.jpg,pics/pictureframe04.jpg,pics/sandbarshark.jpg,pics/spoon01.jpg,blankImage,blankImage,blankImage,blankImage,blankImage,turnstile,13,,,,,,,,,,,,,,,,,,,,,,,,,,,,,,,,,,,,,,,,,0,9,9,12,1,,,,,,,,,,,,,,,,,,,,,,,,,,,,,,,,,,,,,,,,,,,,,,,,,,,,,,,
,,,,,60cfb80f9613ba516472434c,6682b41eeb79ab8215dff63d,6682b95c868b9c229e4cf691,23,female,English,2024-07-01_15h14.03.961,ABmemTask3,2023.2.3,MacIntel,55.55555556,,,,,,,,,,,,,,,,,,,,,,,,,,,,,,,373.995,374.996,374.996,7,375.496,376.313,0.001,376.429,0.115,0.117,0.117,0.117,0.116,0.116,0.118,,,,,376.429,377.412,left,0.968,,377.412,378.112,left,0.695,,10,0,22,378.112,379.112,,,,,,1_AB,L1_T1A_T2P,1,0,1,4,5,3,3,8,Parking meter,Did you see the Parking meter,0.12,0,resources/,pics/leaf02a.jpg,pics/carrot01.jpg,pics/sink.jpg,pics/butterfly.jpg,pics/stapler10.jpg,pics/pictureframe04.jpg,pics/spiderweb.jpg,pics/icecube01.jpg,blankImage,blankImage,blankImage,blankImage,blankImage,blankImage,blankImage,blankImage,blankImage,parkingmeter,30,,,,,,,,,,,,,,,,,,,,,,,,,,,,,,,,,,,,,,,,,0,10,10,29,1,,,,,,,,,,,,,,,,,,,,,,,,,,,,,,,,,,,,,,,,,,,,,,,,,,,,,,,
,,,,,60cfb80f9613ba516472434c,6682b41eeb79ab8215dff63d,6682b95c868b9c229e4cf691,23,female,English,2024-07-01_15h14.03.961,ABmemTask3,2023.2.3,MacIntel,55.55555556,,,,,,,,,,,,,,,,,,,,,,,,,,,,,,,379.112,380.113,380.113,7,380.613,381.546,0,381.662,0.116,0.117,0.117,0.117,0.116,0.116,0.117,0.118,,,,381.663,382.579,right,0.904,,382.579,383.046,right,0.452,,12,0,24,383.046,384.046,,,,,,1_AB,L1_T1P_T2P,1,1,1,5,6,4,3,9,cabbage,Did you see the cabbage,0.12,0,resources/,pics/match.jpg,pics/icecube01.jpg,pics/noparkingsign.jpg,pics/christmaslights.jpg,pics/cabbage.jpg,pics/stapler03a.jpg,pics/carrot01.jpg,pics/dustpan.jpg,pics/cannon.jpg,blankImage,blankImage,blankImage,blankImage,blankImage,blankImage,blankImage,blankImage,cabbage,14,,,,,,,,,,,,,,,,,,,,,,,,,,,,,,,,,,,,,,,,,0,11,11,13,1,,,,,,,,,,,,,,,,,,,,,,,,,,,,,,,,,,,,,,,,,,,,,,,,,,,,,,,
,,,,,60cfb80f9613ba516472434c,6682b41eeb79ab8215dff63d,6682b95c868b9c229e4cf691,23,female,English,2024-07-01_15h14.03.961,ABmemTask3,2023.2.3,MacIntel,55.55555556,,,,,,,,,,,,,,,,,,,,,,,,,,,,,,,384.046,385.046,385.046,7,385.545,386.83,0.001,386.946,0.117,0.116,0.117,0.117,0.117,0.117,0.116,0.117,0.117,0.117,0.116,386.946,387.564,right,0.6,,387.564,387.979,right,0.402,,14,0,26,387.979,388.98,,,,,,1_AB,L1_T1P_T2P,1,1,1,7,8,6,4,12,hammer,Did you see the hammer,0.12,0,resources/,pics/microscope.jpg,pics/blender.jpg,pics/dustpan.jpg,pics/snowshoe.jpg,pics/mummy.jpg,pics/bowtie.jpg,pics/hammer01.jpg,pics/stapler04b.jpg,pics/seaturtle.jpg,pics/candle01.jpg,pics/necklace.jpg,pics/cannon.jpg,blankImage,blankImage,blankImage,blankImage,blankImage,hammer01,21,,,,,,,,,,,,,,,,,,,,,,,,,,,,,,,,,,,,,,,,,0,12,12,20,1,,,,,,,,,,,,,,,,,,,,,,,,,,,,,,,,,,,,,,,,,,,,,,,,,,,,,,,
,,,,,60cfb80f9613ba516472434c,6682b41eeb79ab8215dff63d,6682b95c868b9c229e4cf691,23,female,English,2024-07-01_15h14.03.961,ABmemTask3,2023.2.3,MacIntel,55.55555556,,,,,,,,,,,,,,,,,,,,,,,,,,,,,,,388.98,389.979,389.979,7,390.48,391.413,0.001,391.53,0.116,0.116,0.117,0.117,0.116,0.118,0.116,0.116,,,,391.53,392.197,left,0.649,,392.197,392.814,right,0.601,,16,0,28,392.814,393.813,,,,,,1_AB,L1_T1A_T2P,1,0,1,5,6,4,3,9,Trailer,Did you see the Trailer,0.12,0,resources/,pics/pencil01.jpg,pics/football.jpg,pics/hairdryer02a.jpg,pics/wheel01.jpg,pics/chainsaw.jpg,pics/stapler10.jpg,pics/peanut01.jpg,pics/triangle.jpg,pics/sink.jpg,blankImage,blankImage,blankImage,blankImage,blankImage,blankImage,blankImage,blankImage,boxtrailer,29,,,,,,,,,,,,,,,,,,,,,,,,,,,,,,,,,,,,,,,,,0,13,13,28,1,,,,,,,,,,,,,,,,,,,,,,,,,,,,,,,,,,,,,,,,,,,,,,,,,,,,,,,
,,,,,60cfb80f9613ba516472434c,6682b41eeb79ab8215dff63d,6682b95c868b9c229e4cf691,23,female,English,2024-07-01_15h14.03.961,ABmemTask3,2023.2.3,MacIntel,55.55555556,,,,,,,,,,,,,,,,,,,,,,,,,,,,,,,393.813,394.814,394.814,7,395.314,397.064,0,397.18,0.116,0.116,0.117,0.118,0.116,0.117,0.116,0.117,0.117,0.117,0.116,397.18,397.747,right,0.558,,397.747,398.23,right,0.469,,14,0,30,398.231,399.23,,,,,,1_AB,L5_T1P_T2A,5,1,0,6,11,5,5,16,belt,Did you see the belt,0.12,0,resources/,pics/banjo.jpg,pics/birdhouse.jpg,pics/spoon01.jpg,pics/table01.jpg,pics/candle01.jpg,pics/belt02a.jpg,pics/peach01.jpg,pics/chainsaw.jpg,pics/toiletpaper01a.jpg,pics/proboscismonkey.jpg,pics/cymbal.jpg,pics/binoculars01b.jpg,pics/cannon.jpg,pics/noparkingsign.jpg,pics/sailboat.jpg,pics/carrot01.jpg,blankImage,belt02a,61,0.116,0.118,0.117,,,,,,,,,,,,,,,,,,,,,,,,,,,,,,,,,,,,,,0,14,14,60,1,0.116,,,,,,,,,,,,,,,,,,,,,,,,,,,,,,,,,,,,,,,,,,,,,,,,,,,,,,
,,,,,60cfb80f9613ba516472434c,6682b41eeb79ab8215dff63d,6682b95c868b9c229e4cf691,23,female,English,2024-07-01_15h14.03.961,ABmemTask3,2023.2.3,MacIntel,55.55555556,,,,,,,,,,,,,,,,,,,,,,,,,,,,,,,399.23,400.231,400.231,7,400.73,401.897,0.001,402.014,0.117,0.117,0.116,0.116,0.116,0.118,0.117,0.116,0.117,0.116,,402.014,402.83,right,0.806,,402.83,403.548,left,0.71,,14,0,32,403.548,404.547,,,,,,1_AB,L1_T1P_T2P,1,1,1,7,8,6,3,11,Eiffel tower,Did you see the Eiffel tower,0.12,0,resources/,pics/seagull.jpg,pics/cymbal.jpg,pics/match.jpg,pics/binoculars01b.jpg,pics/ball02.jpg,pics/onion.jpg,pics/eiffeltower.jpg,pics/stapler11.jpg,pics/peach01.jpg,pics/sandbarshark.jpg,pics/boot02b.jpg,blankImage,blankImage,blankImage,blankImage,blankImage,blankImage,eiffeltower,1,,,,,,,,,,,,,,,,,,,,,,,,,,,,,,,,,,,,,,,,,0,15,15,0,1,,,,,,,,,,,,,,,,,,,,,,,,,,,,,,,,,,,,,,,,,,,,,,,,,,,,,,,
,,,,,60cfb80f9613ba516472434c,6682b41eeb79ab8215dff63d,6682b95c868b9c229e4cf691,23,female,English,2024-07-01_15h14.03.961,ABmemTask3,2023.2.3,MacIntel,55.55555556,,,,,,,,,,,,,,,,,,,,,,,,,,,,,,,404.547,405.548,405.548,7,406.047,406.982,0.001,407.098,0.117,0.116,0.117,0.117,0.116,0.117,0.116,0.118,,,,407.098,407.847,left,0.74,,407.847,408.481,right,0.623,,12,0,34,408.481,409.481,,,,,,1_AB,L1_T1A_T2A,1,0,0,4,5,3,4,9,License Plate,Did you see the License Plate,0.12,0,resources/,pics/snowshoe.jpg,pics/kangaroo.jpg,pics/noparkingsign.jpg,pics/match.jpg,pics/hose.jpg,pics/blender.jpg,pics/ashtray01.jpg,pics/ball02.jpg,pics/sink.jpg,blankImage,blankImage,blankImage,blankImage,blankImage,blankImage,blankImage,blankImage,licenseplate,40,,,,,,,,,,,,,,,,,,,,,,,,,,,,,,,,,,,,,,,,,0,16,16,39,1,,,,,,,,,,,,,,,,,,,,,,,,,,,,,,,,,,,,,,,,,,,,,,,,,,,,,,,
,,,,,60cfb80f9613ba516472434c,6682b41eeb79ab8215dff63d,6682b95c868b9c229e4cf691,23,female,English,2024-07-01_15h14.03.961,ABmemTask3,2023.2.3,MacIntel,55.55555556,,,,,,,,,,,,,,,,,,,,,,,,,,,,,,,409.481,410.482,410.482,7,410.981,411.915,0.001,412.032,0.116,0.117,0.117,0.117,0.116,0.116,0.118,0.116,,,,412.032,412.764,right,0.722,,412.764,413.598,left,0.818,,14,0,36,413.598,414.598,,,,,,1_AB,L1_T1P_T2A,1,1,0,4,5,3,4,9,blueberry,Did you see the blueberry,0.12,0,resources/,pics/sealion.jpg,pics/piggybank.jpg,pics/sink.jpg,pics/blueberry01.jpg,pics/onion.jpg,pics/sailboat.jpg,pics/seaturtle.jpg,pics/hen.jpg,pics/fanblades.jpg,blankImage,blankImage,blankImage,blankImage,blankImage,blankImage,blankImage,blankImage,blueberry01,35,,,,,,,,,,,,,,,,,,,,,,,,,,,,,,,,,,,,,,,,,0,17,17,34,1,,,,,,,,,,,,,,,,,,,,,,,,,,,,,,,,,,,,,,,,,,,,,,,,,,,,,,,
,,,,,60cfb80f9613ba516472434c,6682b41eeb79ab8215dff63d,6682b95c868b9c229e4cf691,23,female,English,2024-07-01_15h14.03.961,ABmemTask3,2023.2.3,MacIntel,55.55555556,,,,,,,,,,,,,,,,,,,,,,,,,,,,,,,414.598,415.598,415.598,7,416.098,417.965,0.001,418.081,0.116,0.116,0.118,0.116,0.117,0.117,0.115,0.118,0.116,0.118,0.116,418.081,418.982,left,0.885,,418.982,419.631,left,0.636,,16,0,38,419.631,420.632,,,,,,1_AB,L5_T1A_T2A,5,0,0,7,12,6,5,17,Bib,Did you see the Bib,0.12,0,resources/,pics/hammerheadshark.jpg,pics/wheel01.jpg,pics/binder03b.jpg,pics/hairdryer02a.jpg,pics/christmaslights.jpg,pics/sandbarshark.jpg,pics/binoculars01b.jpg,pics/piggybank.jpg,pics/aquarium.jpg,pics/candleholder01.jpg,pics/sink.jpg,pics/calendar.jpg,pics/birdhouse.jpg,pics/bowtie.jpg,pics/onion.jpg,pics/golfball.jpg,pics/sailboat.jpg,bib,62,0.116,0.117,0.117,,,,,,,,,,,,,,,,,,,,,,,,,,,,,,,,,,,,,,0,18,18,61,1,0.117,0.116,,,,,,,,,,,,,,,,,,,,,,,,,,,,,,,,,,,,,,,,,,,,,,,,,,,,,
,,,,,60cfb80f9613ba516472434c,6682b41eeb79ab8215dff63d,6682b95c868b9c229e4cf691,23,female,English,2024-07-01_15h14.03.961,ABmemTask3,2023.2.3,MacIntel,55.55555556,,,,,,,,,,,,,,,,,,,,,,,,,,,,,,,420.632,421.632,421.632,7,422.131,423.416,0.001,423.532,0.117,0.116,0.116,0.118,0.117,0.117,0.116,0.116,0.118,0.116,0.117,423.532,424.215,right,0.675,,424.215,424.665,left,0.434,,16,0,40,424.665,425.665,,,,,,1_AB,L1_T1P_T2P,1,1,1,6,7,5,5,12,Bear,Did you see the Bear,0.12,0,resources/,pics/necklace.jpg,pics/hen.jpg,pics/dromedary.jpg,pics/piggybank.jpg,pics/sandbarshark.jpg,pics/grizzly.jpg,pics/stapler12.jpg,pics/bowlingpin.jpg,pics/christmaslights.jpg,pics/icecube01.jpg,pics/match.jpg,pics/lock03a.jpg,blankImage,blankImage,blankImage,blankImage,blankImage,grizzly,18,,,,,,,,,,,,,,,,,,,,,,,,,,,,,,,,,,,,,,,,,0,19,19,17,1,,,,,,,,,,,,,,,,,,,,,,,,,,,,,,,,,,,,,,,,,,,,,,,,,,,,,,,
,,,,,60cfb80f9613ba516472434c,6682b41eeb79ab8215dff63d,6682b95c868b9c229e4cf691,23,female,English,2024-07-01_15h14.03.961,ABmemTask3,2023.2.3,MacIntel,55.55555556,,,,,,,,,,,,,,,,,,,,,,,,,,,,,,,425.665,426.666,426.666,7,427.165,428.566,0.001,428.682,0.116,0.117,0.117,0.117,0.116,0.116,0.117,0.118,0.116,0.116,0.117,428.682,429.466,left,0.767,,429.466,429.949,left,0.47,,18,0,42,429.949,430.95,,,,,,1_AB,L1_T1A_T2A,1,0,0,7,8,6,5,13,fan,Did you see the fan,0.12,0,resources/,pics/leaf02a.jpg,pics/dustpan.jpg,pics/pencil01.jpg,pics/kangaroo.jpg,pics/golfball.jpg,pics/lightswitch01.jpg,pics/nutcracker01.jpg,pics/calendar.jpg,pics/hose.jpg,pics/starfish01.jpg,pics/siamesecat.jpg,pics/bowlingpin.jpg,pics/necklace.jpg,blankImage,blankImage,blankImage,blankImage,fan,42,0.117,,,,,,,,,,,,,,,,,,,,,,,,,,,,,,,,,,,,,,,,0,20,20,41,1,,,,,,,,,,,,,,,,,,,,,,,,,,,,,,,,,,,,,,,,,,,,,,,,,,,,,,,
,,,,,60cfb80f9613ba516472434c,6682b41eeb79ab8215dff63d,6682b95c868b9c229e4cf691,23,female,English,2024-07-01_15h14.03.961,ABmemTask3,2023.2.3,MacIntel,55.55555556,,,,,,,,,,,,,,,,,,,,,,,,,,,,,,,430.95,431.949,431.949,7,432.45,433.499,0.001,433.616,0.116,0.116,0.117,0.116,0.117,0.117,0.117,0.116,0.116,,,433.616,434.449,left,0.813,,434.449,434.883,right,0.417,,20,0,44,434.883,435.883,,,,,,1_AB,L1_T1A_T2P,1,0,1,5,6,4,4,10,button,Did you see the button,0.12,0,resources/,pics/pencil01.jpg,pics/necklace.jpg,pics/sink.jpg,pics/noparkingsign.jpg,pics/banjo.jpg,pics/stapler03b.jpg,pics/candle01.jpg,pics/icecube01.jpg,pics/shovel01.jpg,pics/pencilsharpener02a.jpg,blankImage,blankImage,blankImage,blankImage,blankImage,blankImage,blankImage,button01,25,,,,,,,,,,,,,,,,,,,,,,,,,,,,,,,,,,,,,,,,,0,21,21,24,1,,,,,,,,,,,,,,,,,,,,,,,,,,,,,,,,,,,,,,,,,,,,,,,,,,,,,,,
,,,,,60cfb80f9613ba516472434c,6682b41eeb79ab8215dff63d,6682b95c868b9c229e4cf691,23,female,English,2024-07-01_15h14.03.961,ABmemTask3,2023.2.3,MacIntel,55.55555556,,,,,,,,,,,,,,,,,,,,,,,,,,,,,,,435.883,436.883,436.883,7,437.383,438.2,0,438.317,0.117,0.117,0.116,0.117,0.116,0.117,0.117,,,,,438.317,439.167,right,0.841,,439.167,439.617,left,0.437,,20,0,46,439.617,440.616,,,,,,1_AB,L1_T1P_T2P,1,1,1,4,5,3,3,8,Recycling bin,Did you see the Recycling bin,0.12,0,resources/,pics/microscope.jpg,pics/dustpan.jpg,pics/seagull.jpg,pics/recyclingbin.jpg,pics/stapler06.jpg,pics/bowtie.jpg,pics/dromedary.jpg,pics/salmon.jpg,blankImage,blankImage,blankImage,blankImage,blankImage,blankImage,blankImage,blankImage,blankImage,recyclingbin,16,,,,,,,,,,,,,,,,,,,,,,,,,,,,,,,,,,,,,,,,,0,22,22,15,1,,,,,,,,,,,,,,,,,,,,,,,,,,,,,,,,,,,,,,,,,,,,,,,,,,,,,,,
,,,,,60cfb80f9613ba516472434c,6682b41eeb79ab8215dff63d,6682b95c868b9c229e4cf691,23,female,English,2024-07-01_15h14.03.961,ABmemTask3,2023.2.3,MacIntel,55.55555556,,,,,,,,,,,,,,,,,,,,,,,,,,,,,,,440.616,441.617,441.617,7,442.117,443.05,0,443.167,0.116,0.118,0.116,0.117,0.116,0.116,0.118,0.117,,,,443.167,443.967,right,0.779,,443.967,444.5,right,0.525,,22,0,48,444.5,445.5,,,,,,1_AB,L1_T1P_T2P,1,1,1,5,6,4,3,9,Ant,Did you see the Ant,0.12,0,resources/,pics/kangaroo.jpg,pics/giraffe.jpg,pics/footballhelmet.jpg,pics/onion.jpg,pics/ant.jpg,pics/stapler04b.jpg,pics/banjo.jpg,pics/zebra.jpg,pics/dromedary.jpg,blankImage,blankImage,blankImage,blankImage,blankImage,blankImage,blankImage,blankImage,ant,15,,,,,,,,,,,,,,,,,,,,,,,,,,,,,,,,,,,,,,,,,0,23,23,14,1,,,,,,,,,,,,,,,,,,,,,,,,,,,,,,,,,,,,,,,,,,,,,,,,,,,,,,,
,,,,,60cfb80f9613ba516472434c,6682b41eeb79ab8215dff63d,6682b95c868b9c229e4cf691,23,female,English,2024-07-01_15h14.03.961,ABmemTask3,2023.2.3,MacIntel,55.55555556,,,,,,,,,,,,,,,,,,,,,,,,,,,,,,,445.501,446.5,446.5,7,447.001,448.168,0.001,448.284,0.115,0.117,0.116,0.118,0.116,0.117,0.116,0.116,0.118,0.117,,448.284,449.001,right,0.708,,449.001,449.534,left,0.526,,22,0,50,449.534,450.534,,,,,,1_AB,L1_T1P_T2P,1,1,1,7,8,6,3,11,pliers,Did you see the pliers,0.12,0,resources/,pics/mummy.jpg,pics/binder03b.jpg,pics/bowtie.jpg,pics/toiletpaper01a.jpg,pics/football.jpg,pics/blender.jpg,pics/needlenosepliers01.jpg,pics/stapler13.jpg,pics/zebra.jpg,pics/hammerheadshark.jpg,pics/sealion.jpg,blankImage,blankImage,blankImage,blankImage,blankImage,blankImage,needlenosepliers01,6,,,,,,,,,,,,,,,,,,,,,,,,,,,,,,,,,,,,,,,,,0,24,24,5,1,,,,,,,,,,,,,,,,,,,,,,,,,,,,,,,,,,,,,,,,,,,,,,,,,,,,,,,
,,,,,60cfb80f9613ba516472434c,6682b41eeb79ab8215dff63d,6682b95c868b9c229e4cf691,23,female,English,2024-07-01_15h14.03.961,ABmemTask3,2023.2.3,MacIntel,55.55555556,,,,,,,,,,,,,,,,,,,,,,,,,,,,,,,450.534,451.534,451.534,7,452.034,453.201,0.001,453.317,0.116,0.116,0.117,0.117,0.117,0.116,0.116,0.118,0.117,0.116,,453.317,453.967,right,0.639,,453.967,454.85,left,0.878,,22,0,52,454.85,455.851,,,,,,1_AB,L1_T1P_T2P,1,1,1,7,8,6,3,11,medal,Did you see the medal,0.12,0,resources/,pics/hen.jpg,pics/starfish01.jpg,pics/nutcracker01.jpg,pics/ball02.jpg,pics/fanblades.jpg,pics/christmaslights.jpg,pics/medal02b.jpg,pics/stapler09.jpg,pics/carrot01.jpg,pics/hammerheadshark.jpg,pics/sailboat.jpg,blankImage,blankImage,blankImage,blankImage,blankImage,blankImage,medal02b,19,,,,,,,,,,,,,,,,,,,,,,,,,,,,,,,,,,,,,,,,,0,25,25,18,1,,,,,,,,,,,,,,,,,,,,,,,,,,,,,,,,,,,,,,,,,,,,,,,,,,,,,,,
,,,,,60cfb80f9613ba516472434c,6682b41eeb79ab8215dff63d,6682b95c868b9c229e4cf691,23,female,English,2024-07-01_15h14.03.961,ABmemTask3,2023.2.3,MacIntel,55.55555556,,,,,,,,,,,,,,,,,,,,,,,,,,,,,,,455.851,456.851,456.852,7,457.351,458.518,0.001,458.635,0.116,0.116,0.117,0.117,0.117,0.116,0.117,0.116,0.117,0.117,,458.635,459.668,left,1.012,,459.668,460.1,right,0.427,,24,0,54,460.101,461.102,,,,,,1_AB,L1_T1A_T2P,1,0,1,5,6,4,5,11,Recorder,Did you see the Recorder,0.12,0,resources/,pics/bowtie.jpg,pics/nutcracker01.jpg,pics/hairdryer02a.jpg,pics/shovel01.jpg,pics/onion.jpg,pics/stapler13.jpg,pics/safetypin.jpg,pics/spiderweb.jpg,pics/seagull.jpg,pics/dustpan.jpg,pics/icecube01.jpg,blankImage,blankImage,blankImage,blankImage,blankImage,blankImage,recorder04,28,,,,,,,,,,,,,,,,,,,,,,,,,,,,,,,,,,,,,,,,,0,26,26,27,1,,,,,,,,,,,,,,,,,,,,,,,,,,,,,,,,,,,,,,,,,,,,,,,,,,,,,,,
,,,,,60cfb80f9613ba516472434c,6682b41eeb79ab8215dff63d,6682b95c868b9c229e4cf691,23,female,English,2024-07-01_15h14.03.961,ABmemTask3,2023.2.3,MacIntel,55.55555556,,,,,,,,,,,,,,,,,,,,,,,,,,,,,,,461.102,462.102,462.102,7,462.602,463.652,0,463.768,0.117,0.116,0.116,0.118,0.116,0.117,0.116,0.116,0.118,,,463.769,464.601,right,0.824,,464.601,465.468,left,0.851,,24,0,56,465.468,466.468,,,,,,1_AB,L1_T1P_T2P,1,1,1,4,5,3,5,10,vacuum,Did you see the vacuum,0.12,0,resources/,pics/birdhouse.jpg,pics/floortile02.jpg,pics/toiletpaper01a.jpg,pics/vacuumcleaner01.jpg,pics/stapler02.jpg,pics/spoon01.jpg,pics/banjo.jpg,pics/binder03b.jpg,pics/leaf02a.jpg,pics/aquarium.jpg,blankImage,blankImage,blankImage,blankImage,blankImage,blankImage,blankImage,vacuumcleaner01,5,,,,,,,,,,,,,,,,,,,,,,,,,,,,,,,,,,,,,,,,,0,27,27,4,1,,,,,,,,,,,,,,,,,,,,,,,,,,,,,,,,,,,,,,,,,,,,,,,,,,,,,,,
,,,,,60cfb80f9613ba516472434c,6682b41eeb79ab8215dff63d,6682b95c868b9c229e4cf691,23,female,English,2024-07-01_15h14.03.961,ABmemTask3,2023.2.3,MacIntel,55.55555556,,,,,,,,,,,,,,,,,,,,,,,,,,,,,,,466.469,467.469,467.469,7,467.969,469.485,0.001,469.602,0.115,0.116,0.118,0.117,0.116,0.117,0.116,0.117,0.117,0.116,0.117,469.602,470.452,left,0.832,,470.452,470.968,right,0.5,,24,0,58,470.968,471.969,,,,,,1_AB,L5_T1P_T2P,5,1,1,6,11,5,3,14,mail box,Did you see the mail box,0.12,0,resources/,pics/pictureframe04.jpg,pics/seaturtle.jpg,pics/blender.jpg,pics/carrot01.jpg,pics/nutcracker01.jpg,pics/mailbox02.jpg,pics/seagull.jpg,pics/sink.jpg,pics/siamesecat.jpg,pics/spiderweb.jpg,pics/stapler08.jpg,pics/safetypin.jpg,pics/candle01.jpg,pics/mummy.jpg,blankImage,blankImage,blankImage,mailbox02,43,0.116,0.117,,,,,,,,,,,,,,,,,,,,,,,,,,,,,,,,,,,,,,,0,28,28,42,1,,,,,,,,,,,,,,,,,,,,,,,,,,,,,,,,,,,,,,,,,,,,,,,,,,,,,,,
,,,,,60cfb80f9613ba516472434c,6682b41eeb79ab8215dff63d,6682b95c868b9c229e4cf691,23,female,English,2024-07-01_15h14.03.961,ABmemTask3,2023.2.3,MacIntel,55.55555556,,,,,,,,,,,,,,,,,,,,,,,,,,,,,,,471.969,472.969,472.969,7,473.469,474.52,0.001,474.636,0.116,0.116,0.117,0.117,0.117,0.116,0.116,0.118,0.117,,,474.636,475.285,right,0.64,,475.285,476.003,right,0.701,,22,0,60,476.003,477.002,,,,,,1_AB,L1_T1P_T2A,1,1,0,6,7,5,3,10,Electric toothbrush,Did you see the Electric toothbrush,0.12,0,resources/,pics/football.jpg,pics/sailboat.jpg,pics/cymbal.jpg,pics/hen.jpg,pics/pencil01.jpg,pics/electrictoothbrush01c.jpg,pics/bowlingpin.jpg,pics/wheel01.jpg,pics/birdhouse.jpg,pics/leaf02a.jpg,blankImage,blankImage,blankImage,blankImage,blankImage,blankImage,blankImage,electrictoothbrush01c,34,,,,,,,,,,,,,,,,,,,,,,,,,,,,,,,,,,,,,,,,,0,29,29,33,1,,,,,,,,,,,,,,,,,,,,,,,,,,,,,,,,,,,,,,,,,,,,,,,,,,,,,,,
,,,,,60cfb80f9613ba516472434c,6682b41eeb79ab8215dff63d,6682b95c868b9c229e4cf691,23,female,English,2024-07-01_15h14.03.961,ABmemTask3,2023.2.3,MacIntel,55.55555556,,,,,,,,,,,,,,,,,,,,,,,,,,,,,,,477.002,478.003,478.003,7,478.502,480.02,0.001,480.136,0.117,0.116,0.117,0.116,0.117,0.116,0.118,0.116,0.117,0.116,0.116,480.136,480.952,right,0.798,,480.952,481.352,left,0.388,,22,0,62,481.352,482.353,,,,,,1_AB,L5_T1P_T2P,5,1,1,4,9,3,5,14,asparagus,Did you see the asparagus,0.12,0,resources/,pics/siamesecat.jpg,pics/starfish01.jpg,pics/aquarium.jpg,pics/asparagus.jpg,pics/salmon.jpg,pics/binoculars01b.jpg,pics/ball02.jpg,pics/calendar.jpg,pics/stapler10.jpg,pics/giraffe.jpg,pics/dromedary.jpg,pics/seaturtle.jpg,pics/sandbarshark.jpg,pics/shipinabottle.jpg,blankImage,blankImage,blankImage,asparagus,44,0.118,0.117,,,,,,,,,,,,,,,,,,,,,,,,,,,,,,,,,,,,,,,0,30,30,43,1,,,,,,,,,,,,,,,,,,,,,,,,,,,,,,,,,,,,,,,,,,,,,,,,,,,,,,,
,,,,,60cfb80f9613ba516472434c,6682b41eeb79ab8215dff63d,6682b95c868b9c229e4cf691,23,female,English,2024-07-01_15h14.03.961,ABmemTask3,2023.2.3,MacIntel,55.55555556,,,,,,,,,,,,,,,,,,,,,,,,,,,,,,,482.353,483.352,483.352,7,483.853,485.369,0,485.485,0.117,0.117,0.116,0.116,0.118,0.117,0.116,0.116,0.116,0.118,0.116,485.486,486.354,right,0.857,,486.354,486.803,left,0.441,,24,0,64,486.803,487.803,,,,,,1_AB,L5_T1P_T2A,5,1,0,6,11,5,3,14,Kiwi,Did you see the Kiwi,0.12,0,resources/,pics/candleholder01.jpg,pics/kangaroo.jpg,pics/banjo.jpg,pics/binoculars01b.jpg,pics/microscope.jpg,pics/kiwi03.jpg,pics/bowtie.jpg,pics/peanut01.jpg,pics/backpack01a.jpg,pics/zebra.jpg,pics/toiletpaper01a.jpg,pics/hen.jpg,pics/spoon01.jpg,pics/calendar.jpg,blankImage,blankImage,blankImage,kiwi03,59,0.117,0.117,,,,,,,,,,,,,,,,,,,,,,,,,,,,,,,,,,,,,,,0,31,31,58,1,,,,,,,,,,,,,,,,,,,,,,,,,,,,,,,,,,,,,,,,,,,,,,,,,,,,,,,
,,,,,60cfb80f9613ba516472434c,6682b41eeb79ab8215dff63d,6682b95c868b9c229e4cf691,23,female,English,2024-07-01_15h14.03.961,ABmemTask3,2023.2.3,MacIntel,55.55555556,,,,,,,,,,,,,,,,,,,,,,,,,,,,,,,487.803,488.803,488.803,7,489.302,490.82,0.001,490.936,0.117,0.117,0.117,0.116,0.116,0.117,0.118,0.116,0.116,0.116,0.118,490.936,491.92,left,0.964,,491.92,492.52,left,0.593,,24,0,66,492.52,493.52,,,,,,1_AB,L5_T1A_T2P,5,0,1,4,9,3,5,14,lemon,Did you see the lemon,0.12,0,resources/,pics/seaturtle.jpg,pics/lightswitch01.jpg,pics/candle01.jpg,pics/cannon.jpg,pics/seagull.jpg,pics/spoon01.jpg,pics/spiderweb.jpg,pics/sewingmachine01a.jpg,pics/stapler05.jpg,pics/binoculars01b.jpg,pics/zebra.jpg,pics/sealion.jpg,pics/shovel01.jpg,pics/wheel01.jpg,blankImage,blankImage,blankImage,lemon02,56,0.117,0.116,,,,,,,,,,,,,,,,,,,,,,,,,,,,,,,,,,,,,,,0,32,32,55,1,,,,,,,,,,,,,,,,,,,,,,,,,,,,,,,,,,,,,,,,,,,,,,,,,,,,,,,
,,,,,60cfb80f9613ba516472434c,6682b41eeb79ab8215dff63d,6682b95c868b9c229e4cf691,23,female,English,2024-07-01_15h14.03.961,ABmemTask3,2023.2.3,MacIntel,55.55555556,,,,,,,,,,,,,,,,,,,,,,,,,,,,,,,493.52,494.521,494.521,7,495.02,496.654,0.001,496.77,0.116,0.117,0.117,0.117,0.116,0.116,0.117,0.117,0.117,0.116,0.116,496.771,497.236,right,0.448,,497.236,497.703,right,0.461,,26,0,68,497.703,498.704,,,,,,1_AB,L5_T1P_T2P,5,1,1,6,11,5,4,15,toast,Did you see the toast,0.12,0,resources/,pics/piggybank.jpg,pics/leaf02a.jpg,pics/carrot01.jpg,pics/birdhouse.jpg,pics/bowlingpin.jpg,pics/toast.jpg,pics/spiderweb.jpg,pics/cork02.jpg,pics/sink.jpg,pics/nutcracker01.jpg,pics/stapler02.jpg,pics/ashtray01.jpg,pics/fanblades.jpg,pics/pencil01.jpg,pics/lightswitch01.jpg,blankImage,blankImage,toast,46,0.118,0.117,0.116,,,,,,,,,,,,,,,,,,,,,,,,,,,,,,,,,,,,,,0,33,33,45,1,,,,,,,,,,,,,,,,,,,,,,,,,,,,,,,,,,,,,,,,,,,,,,,,,,,,,,,
,,,,,60cfb80f9613ba516472434c,6682b41eeb79ab8215dff63d,6682b95c868b9c229e4cf691,23,female,English,2024-07-01_15h14.03.961,ABmemTask3,2023.2.3,MacIntel,55.55555556,,,,,,,,,,,,,,,,,,,,,,,,,,,,,,,498.704,499.704,499.704,7,500.204,501.255,0.001,501.371,0.115,0.117,0.117,0.117,0.117,0.116,0.117,0.117,0.117,,,501.371,502.038,right,0.657,,502.038,502.454,left,0.404,,26,0,70,502.454,503.455,,,,,,1_AB,L1_T1P_T2P,1,1,1,4,5,3,5,10,flute,Did you see the flute,0.12,0,resources/,pics/peach01.jpg,pics/seaturtle.jpg,pics/dromedary.jpg,pics/recorder01.jpg,pics/stapler08.jpg,pics/giraffe.jpg,pics/blender.jpg,pics/necklace.jpg,pics/sink.jpg,pics/dustpan.jpg,blankImage,blankImage,blankImage,blankImage,blankImage,blankImage,blankImage,recorder01,7,,,,,,,,,,,,,,,,,,,,,,,,,,,,,,,,,,,,,,,,,0,34,34,6,1,,,,,,,,,,,,,,,,,,,,,,,,,,,,,,,,,,,,,,,,,,,,,,,,,,,,,,,
,,,,,60cfb80f9613ba516472434c,6682b41eeb79ab8215dff63d,6682b95c868b9c229e4cf691,23,female,English,2024-07-01_15h14.03.961,ABmemTask3,2023.2.3,MacIntel,55.55555556,,,,,,,,,,,,,,,,,,,,,,,,,,,,,,,503.455,504.453,504.453,7,504.955,506.355,0,506.471,0.116,0.117,0.116,0.117,0.117,0.117,0.116,0.116,0.117,0.117,0.117,506.471,506.871,right,0.391,,506.871,507.304,right,0.417,,28,0,72,507.304,508.304,,,,,,1_AB,L5_T1P_T2P,5,1,1,4,9,3,4,13,Forklift,Did you see the Forklift,0.12,0,resources/,pics/dustpan.jpg,pics/table01.jpg,pics/sink.jpg,pics/forklift.jpg,pics/dromedary.jpg,pics/proboscismonkey.jpg,pics/cymbal.jpg,pics/shovel01.jpg,pics/stapler10.jpg,pics/backpack01a.jpg,pics/binder03b.jpg,pics/banjo.jpg,pics/candleholder01.jpg,blankImage,blankImage,blankImage,blankImage,forklift,47,0.117,,,,,,,,,,,,,,,,,,,,,,,,,,,,,,,,,,,,,,,,0,35,35,46,1,,,,,,,,,,,,,,,,,,,,,,,,,,,,,,,,,,,,,,,,,,,,,,,,,,,,,,,
,,,,,60cfb80f9613ba516472434c,6682b41eeb79ab8215dff63d,6682b95c868b9c229e4cf691,23,female,English,2024-07-01_15h14.03.961,ABmemTask3,2023.2.3,MacIntel,55.55555556,,,,,,,,,,,,,,,,,,,,,,,,,,,,,,,508.305,509.304,509.304,7,509.805,510.972,0.001,511.088,0.116,0.116,0.116,0.118,0.117,0.116,0.116,0.116,0.118,0.117,,511.088,512.104,left,0.996,,512.104,512.538,left,0.417,,30,0,74,512.538,513.538,,,,,,1_AB,L1_T1A_T2A,1,0,0,7,8,6,3,11,Poker chips,Did you see the Poker chips,0.12,0,resources/,pics/candle01.jpg,pics/proboscismonkey.jpg,pics/fanblades.jpg,pics/dromedary.jpg,pics/aquarium.jpg,pics/salmon.jpg,pics/hose.jpg,pics/kangaroo.jpg,pics/noparkingsign.jpg,pics/carrot01.jpg,pics/leaf02a.jpg,blankImage,blankImage,blankImage,blankImage,blankImage,blankImage,pokerchips,41,,,,,,,,,,,,,,,,,,,,,,,,,,,,,,,,,,,,,,,,,0,36,36,40,1,,,,,,,,,,,,,,,,,,,,,,,,,,,,,,,,,,,,,,,,,,,,,,,,,,,,,,,
,,,,,60cfb80f9613ba516472434c,6682b41eeb79ab8215dff63d,6682b95c868b9c229e4cf691,23,female,English,2024-07-01_15h14.03.961,ABmemTask3,2023.2.3,MacIntel,55.55555556,,,,,,,,,,,,,,,,,,,,,,,,,,,,,,,513.538,514.539,514.539,7,515.039,516.206,0,516.322,0.116,0.116,0.118,0.116,0.117,0.116,0.117,0.117,0.117,0.117,,516.322,517.205,right,0.865,,517.206,517.621,right,0.404,,32,0,76,517.621,518.622,,,,,,1_AB,L1_T1P_T2P,1,1,1,7,8,6,3,11,toothpick,Did you see the toothpick,0.12,0,resources/,pics/candleholder01.jpg,pics/blender.jpg,pics/siamesecat.jpg,pics/peanut01.jpg,pics/spiderweb.jpg,pics/football.jpg,pics/toothpick02.jpg,pics/stapler04b.jpg,pics/seagull.jpg,pics/pictureframe04.jpg,pics/shipinabottle.jpg,blankImage,blankImage,blankImage,blankImage,blankImage,blankImage,toothpick02,17,,,,,,,,,,,,,,,,,,,,,,,,,,,,,,,,,,,,,,,,,0,37,37,16,1,,,,,,,,,,,,,,,,,,,,,,,,,,,,,,,,,,,,,,,,,,,,,,,,,,,,,,,
,,,,,60cfb80f9613ba516472434c,6682b41eeb79ab8215dff63d,6682b95c868b9c229e4cf691,23,female,English,2024-07-01_15h14.03.961,ABmemTask3,2023.2.3,MacIntel,55.55555556,,,,,,,,,,,,,,,,,,,,,,,,,,,,,,,518.622,519.622,519.622,7,520.121,521.288,0.001,521.406,0.117,0.116,0.117,0.117,0.116,0.117,0.117,0.116,0.117,0.116,,521.406,522.089,right,0.668,,522.089,522.489,left,0.385,,34,0,78,522.489,523.489,,,,,,1_AB,L1_T1P_T2A,1,1,0,7,8,6,3,11,garlic,Did you see the garlic,0.12,0,resources/,pics/zebra.jpg,pics/banjo.jpg,pics/pencilsharpener02a.jpg,pics/football.jpg,pics/candle01.jpg,pics/footballhelmet.jpg,pics/garlic01a.jpg,pics/birdhouse.jpg,pics/peach01.jpg,pics/pictureframe04.jpg,pics/binder03b.jpg,blankImage,blankImage,blankImage,blankImage,blankImage,blankImage,garlic01a,33,,,,,,,,,,,,,,,,,,,,,,,,,,,,,,,,,,,,,,,,,0,38,38,32,1,,,,,,,,,,,,,,,,,,,,,,,,,,,,,,,,,,,,,,,,,,,,,,,,,,,,,,,
,,,,,60cfb80f9613ba516472434c,6682b41eeb79ab8215dff63d,6682b95c868b9c229e4cf691,23,female,English,2024-07-01_15h14.03.961,ABmemTask3,2023.2.3,MacIntel,55.55555556,,,,,,,,,,,,,,,,,,,,,,,,,,,,,,,523.489,524.489,524.489,7,524.989,526.272,0,526.389,0.117,0.117,0.116,0.117,0.116,0.118,0.115,0.118,0.116,0.117,0.116,526.389,526.855,right,0.447,,526.855,527.305,right,0.438,,36,0,80,527.306,528.306,,,,,,1_AB,L1_T1P_T2P,1,1,1,6,7,5,5,12,jeep,Did you see the jeep,0.12,0,resources/,pics/sandbarshark.jpg,pics/laptop01a.jpg,pics/peach01.jpg,pics/binoculars01b.jpg,pics/giraffe.jpg,pics/jeep.jpg,pics/stapler03b.jpg,pics/fanblades.jpg,pics/cannon.jpg,pics/starfish01.jpg,pics/piggybank.jpg,pics/noparkingsign.jpg,blankImage,blankImage,blankImage,blankImage,blankImage,jeep,2,,,,,,,,,,,,,,,,,,,,,,,,,,,,,,,,,,,,,,,,,0,39,39,1,1,,,,,,,,,,,,,,,,,,,,,,,,,,,,,,,,,,,,,,,,,,,,,,,,,,,,,,,
,,,,,60cfb80f9613ba516472434c,6682b41eeb79ab8215dff63d,6682b95c868b9c229e4cf691,23,female,English,2024-07-01_15h14.03.961,ABmemTask3,2023.2.3,MacIntel,55.55555556,,,,,,,,,,,,,,,,,,,,,,,,,,,,,,,528.306,529.306,529.306,7,529.806,531.323,0.001,531.439,0.116,0.116,0.118,0.116,0.117,0.116,0.116,0.118,0.119,0.114,0.117,531.44,531.905,right,0.447,,531.905,532.423,right,0.501,,38,0,82,532.423,533.423,,,,,,1_AB,L5_T1P_T2P,5,1,1,6,11,5,3,14,truck,Did you see the truck,0.12,0,resources/,pics/calendar.jpg,pics/mummy.jpg,pics/ashtray01.jpg,pics/pencilsharpener02a.jpg,pics/dustpan.jpg,pics/boxtruck.jpg,pics/lightswitch01.jpg,pics/pictureframe04.jpg,pics/starfish01.jpg,pics/zebra.jpg,pics/stapler12.jpg,pics/bowtie.jpg,pics/candleholder01.jpg,pics/candle01.jpg,blankImage,blankImage,blankImage,boxtruck,50,0.116,0.117,,,,,,,,,,,,,,,,,,,,,,,,,,,,,,,,,,,,,,,0,40,40,49,1,,,,,,,,,,,,,,,,,,,,,,,,,,,,,,,,,,,,,,,,,,,,,,,,,,,,,,,
,,,,,60cfb80f9613ba516472434c,6682b41eeb79ab8215dff63d,6682b95c868b9c229e4cf691,23,female,English,2024-07-01_15h14.03.961,ABmemTask3,2023.2.3,MacIntel,55.55555556,,,,,,,,,,,,,,,,,,,,,,,,,,,,,,,533.423,534.423,534.423,7,534.923,535.856,0.001,535.973,0.116,0.116,0.117,0.117,0.117,0.117,0.116,0.116,,,,535.973,536.622,right,0.635,,536.622,537.022,right,0.389,,40,0,84,537.022,538.024,,,,,,1_AB,L1_T1P_T2P,1,1,1,4,5,3,4,9,antenna,Did you see the antenna,0.12,0,resources/,pics/microscope.jpg,pics/spoon01.jpg,pics/dromedary.jpg,pics/antenna.jpg,pics/stapler03.jpg,pics/hen.jpg,pics/leaf02a.jpg,pics/candle01.jpg,pics/sealion.jpg,blankImage,blankImage,blankImage,blankImage,blankImage,blankImage,blankImage,blankImage,antenna,9,,,,,,,,,,,,,,,,,,,,,,,,,,,,,,,,,,,,,,,,,0,41,41,8,1,,,,,,,,,,,,,,,,,,,,,,,,,,,,,,,,,,,,,,,,,,,,,,,,,,,,,,,
,,,,,60cfb80f9613ba516472434c,6682b41eeb79ab8215dff63d,6682b95c868b9c229e4cf691,23,female,English,2024-07-01_15h14.03.961,ABmemTask3,2023.2.3,MacIntel,55.55555556,,,,,,,,,,,,,,,,,,,,,,,,,,,,,,,538.024,539.023,539.023,7,539.524,540.807,0,540.923,0.117,0.116,0.116,0.118,0.116,0.116,0.117,0.116,0.118,0.116,0.117,540.923,541.607,right,0.664,,541.607,542.406,left,0.784,,42,0,86,542.407,543.407,,,,,,1_AB,L1_T1P_T2A,1,1,0,7,8,6,4,12,Tennis racket,Did you see the Tennis racket,0.12,0,resources/,pics/banjo.jpg,pics/leaf02a.jpg,pics/shovel01.jpg,pics/microscope.jpg,pics/cork02.jpg,pics/seagull.jpg,pics/tennisracket.jpg,pics/binder03b.jpg,pics/floortile02.jpg,pics/carrot01.jpg,pics/candle01.jpg,pics/siamesecat.jpg,blankImage,blankImage,blankImage,blankImage,blankImage,tennisracket,38,,,,,,,,,,,,,,,,,,,,,,,,,,,,,,,,,,,,,,,,,0,42,42,37,1,,,,,,,,,,,,,,,,,,,,,,,,,,,,,,,,,,,,,,,,,,,,,,,,,,,,,,,
,,,,,60cfb80f9613ba516472434c,6682b41eeb79ab8215dff63d,6682b95c868b9c229e4cf691,23,female,English,2024-07-01_15h14.03.961,ABmemTask3,2023.2.3,MacIntel,55.55555556,,,,,,,,,,,,,,,,,,,,,,,,,,,,,,,543.407,544.406,544.406,7,544.907,546.658,0.001,546.774,0.116,0.117,0.116,0.116,0.118,0.117,0.116,0.116,0.116,0.118,0.117,546.774,547.773,left,0.979,,547.773,548.124,left,0.343,,42,0,88,548.124,549.124,,,,,,1_AB,L5_T1P_T2A,5,1,0,7,12,6,4,16,boat,Did you see the boat,0.12,0,resources/,pics/butterfly.jpg,pics/onion.jpg,pics/hose.jpg,pics/ball02.jpg,pics/ashtray01.jpg,pics/bowtie.jpg,pics/boat.jpg,pics/seaturtle.jpg,pics/blender.jpg,pics/zebra.jpg,pics/pictureframe04.jpg,pics/shovel01.jpg,pics/spoon01.jpg,pics/peanut01.jpg,pics/nutcracker01.jpg,pics/aquarium.jpg,blankImage,boat,60,0.117,0.116,0.116,,,,,,,,,,,,,,,,,,,,,,,,,,,,,,,,,,,,,,0,43,43,59,1,0.118,,,,,,,,,,,,,,,,,,,,,,,,,,,,,,,,,,,,,,,,,,,,,,,,,,,,,,
,,,,,60cfb80f9613ba516472434c,6682b41eeb79ab8215dff63d,6682b95c868b9c229e4cf691,23,female,English,2024-07-01_15h14.03.961,ABmemTask3,2023.2.3,MacIntel,55.55555556,,,,,,,,,,,,,,,,,,,,,,,,,,,,,,,549.124,550.124,550.124,7,550.623,552.257,0.001,552.374,0.117,0.117,0.117,0.116,0.116,0.118,0.116,0.117,0.116,0.116,0.118,552.374,553.208,left,0.822,,553.208,553.691,left,0.471,,42,0,90,553.691,554.69,,,,,,1_AB,L5_T1A_T2P,5,0,1,5,10,4,5,15,scorpion,Did you see the scorpion,0.12,0,resources/,pics/pictureframe04.jpg,pics/binder03b.jpg,pics/pencil01.jpg,pics/leaf02a.jpg,pics/icecube01.jpg,pics/dromedary.jpg,pics/toiletpaper01a.jpg,pics/peanut01.jpg,pics/golfball.jpg,pics/stapler03.jpg,pics/carrot01.jpg,pics/peach01.jpg,pics/sealion.jpg,pics/football.jpg,pics/zebra.jpg,blankImage,blankImage,scorpion,54,0.117,0.117,0.115,,,,,,,,,,,,,,,,,,,,,,,,,,,,,,,,,,,,,,0,44,44,53,1,,,,,,,,,,,,,,,,,,,,,,,,,,,,,,,,,,,,,,,,,,,,,,,,,,,,,,,
,,,,,60cfb80f9613ba516472434c,6682b41eeb79ab8215dff63d,6682b95c868b9c229e4cf691,23,female,English,2024-07-01_15h14.03.961,ABmemTask3,2023.2.3,MacIntel,55.55555556,,,,,,,,,,,,,,,,,,,,,,,,,,,,,,,554.691,555.691,555.691,7,556.19,557.592,0.001,557.708,0.117,0.117,0.116,0.117,0.116,0.117,0.118,0.116,0.116,0.116,0.118,557.708,558.241,right,0.524,,558.241,559.058,left,0.808,,42,0,92,559.058,560.058,,,,,,1_AB,L1_T1P_T2P,1,1,1,7,8,6,5,13,Totem Pole,Did you see the Totem Pole,0.12,0,resources/,pics/laptop01a.jpg,pics/carrot01.jpg,pics/wheel01.jpg,pics/icecube01.jpg,pics/ashtray01.jpg,pics/lock03a.jpg,pics/totempole.jpg,pics/stapler08.jpg,pics/golfball.jpg,pics/pencil01.jpg,pics/banjo.jpg,pics/sandbarshark.jpg,pics/shipinabottle.jpg,blankImage,blankImage,blankImage,blankImage,totempole,22,0.117,,,,,,,,,,,,,,,,,,,,,,,,,,,,,,,,,,,,,,,,0,45,45,21,1,,,,,,,,,,,,,,,,,,,,,,,,,,,,,,,,,,,,,,,,,,,,,,,,,,,,,,,
,,,,,60cfb80f9613ba516472434c,6682b41eeb79ab8215dff63d,6682b95c868b9c229e4cf691,23,female,English,2024-07-01_15h14.03.961,ABmemTask3,2023.2.3,MacIntel,55.55555556,,,,,,,,,,,,,,,,,,,,,,,,,,,,,,,560.058,561.058,561.058,7,561.558,562.959,0.001,563.075,0.116,0.117,0.116,0.117,0.117,0.117,0.116,0.117,0.116,0.117,0.117,563.075,564.091,left,0.996,,564.091,564.558,right,0.454,,42,0,94,564.558,565.559,,,,,,1_AB,L1_T1P_T2P,1,1,1,7,8,6,5,13,strawberry,Did you see the strawberry,0.12,0,resources/,pics/sealion.jpg,pics/backpack01a.jpg,pics/binoculars01b.jpg,pics/ball02.jpg,pics/proboscismonkey.jpg,pics/pictureframe04.jpg,pics/strawberry.jpg,pics/stapler12.jpg,pics/seaturtle.jpg,pics/dustpan.jpg,pics/bowlingpin.jpg,pics/hammerheadshark.jpg,pics/hen.jpg,blankImage,blankImage,blankImage,blankImage,strawberry,10,0.117,,,,,,,,,,,,,,,,,,,,,,,,,,,,,,,,,,,,,,,,0,46,46,9,1,,,,,,,,,,,,,,,,,,,,,,,,,,,,,,,,,,,,,,,,,,,,,,,,,,,,,,,
,,,,,60cfb80f9613ba516472434c,6682b41eeb79ab8215dff63d,6682b95c868b9c229e4cf691,23,female,English,2024-07-01_15h14.03.961,ABmemTask3,2023.2.3,MacIntel,55.55555556,,,,,,,,,,,,,,,,,,,,,,,,,,,,,,,565.559,566.558,566.558,7,567.059,568.226,0,568.342,0.117,0.116,0.117,0.116,0.117,0.117,0.117,0.116,0.116,0.118,,568.342,569.008,right,0.648,,569.008,569.459,left,0.437,,42,0,96,569.459,570.459,,,,,,1_AB,L1_T1P_T2P,1,1,1,7,8,6,3,11,bird,Did you see the bird,0.12,0,resources/,pics/sealion.jpg,pics/backpack01a.jpg,pics/hose.jpg,pics/table01.jpg,pics/wheel01.jpg,pics/seaturtle.jpg,pics/americangoldfinch.jpg,pics/stapler08.jpg,pics/siamesecat.jpg,pics/hammerheadshark.jpg,pics/ashtray01.jpg,blankImage,blankImage,blankImage,blankImage,blankImage,blankImage,americangoldfinch,23,,,,,,,,,,,,,,,,,,,,,,,,,,,,,,,,,,,,,,,,,0,47,47,22,1,,,,,,,,,,,,,,,,,,,,,,,,,,,,,,,,,,,,,,,,,,,,,,,,,,,,,,,
,,,,,60cfb80f9613ba516472434c,6682b41eeb79ab8215dff63d,6682b95c868b9c229e4cf691,23,female,English,2024-07-01_15h14.03.961,ABmemTask3,2023.2.3,MacIntel,55.55555556,,,,,,,,,,,,,,,,,,,,,,,,,,,,,,,570.459,571.459,571.459,7,571.959,573.359,0.001,573.475,0.116,0.116,0.116,0.118,0.117,0.116,0.116,0.117,0.117,0.117,0.117,573.475,574.226,left,0.738,,574.226,574.693,left,0.459,,42,0,98,574.693,575.692,,,,,,1_AB,L1_T1A_T2P,1,0,1,7,8,6,5,13,Basketball,Did you see the Basketball,0.12,0,resources/,pics/cork02.jpg,pics/table01.jpg,pics/christmaslights.jpg,pics/nutcracker01.jpg,pics/golfball.jpg,pics/hammerheadshark.jpg,pics/seaturtle.jpg,pics/stapler04b.jpg,pics/lock03a.jpg,pics/snowshoe.jpg,pics/sewingmachine01a.jpg,pics/peach01.jpg,pics/hose.jpg,blankImage,blankImage,blankImage,blankImage,basketball01,24,0.116,,,,,,,,,,,,,,,,,,,,,,,,,,,,,,,,,,,,,,,,0,48,48,23,1,,,,,,,,,,,,,,,,,,,,,,,,,,,,,,,,,,,,,,,,,,,,,,,,,,,,,,,
,,,,,60cfb80f9613ba516472434c,6682b41eeb79ab8215dff63d,6682b95c868b9c229e4cf691,23,female,English,2024-07-01_15h14.03.961,ABmemTask3,2023.2.3,MacIntel,55.55555556,,,,,,,,,,,,,,,,,,,,,,,,,,,,,,,575.692,576.693,576.693,7,577.193,578.36,0.001,578.476,0.115,0.116,0.118,0.117,0.116,0.116,0.117,0.118,0.116,0.117,,578.476,579.159,right,0.666,,579.16,579.625,left,0.452,,44,0,100,579.625,580.626,,,,,,1_AB,L1_T1P_T2A,1,1,0,7,8,6,3,11,Spear,Did you see the Spear,0.12,0,resources/,pics/butterfly.jpg,pics/banjo.jpg,pics/chainsaw.jpg,pics/christmaslights.jpg,pics/dustpan.jpg,pics/shovel01.jpg,pics/spear02.jpg,pics/table01.jpg,pics/starfish01.jpg,pics/bowlingpin.jpg,pics/carrot01.jpg,blankImage,blankImage,blankImage,blankImage,blankImage,blankImage,spear02,39,,,,,,,,,,,,,,,,,,,,,,,,,,,,,,,,,,,,,,,,,0,49,49,38,1,,,,,,,,,,,,,,,,,,,,,,,,,,,,,,,,,,,,,,,,,,,,,,,,,,,,,,,
,,,,,60cfb80f9613ba516472434c,6682b41eeb79ab8215dff63d,6682b95c868b9c229e4cf691,23,female,English,2024-07-01_15h14.03.961,ABmemTask3,2023.2.3,MacIntel,55.55555556,,,,,,,,,,,,,,,,,,,,,,,,,,,,,,,580.627,581.626,581.626,7,582.127,583.642,0,583.76,0.116,0.116,0.117,0.118,0.116,0.116,0.117,0.116,0.118,0.117,0.116,583.76,584.226,right,0.452,,584.226,584.726,right,0.489,,46,0,102,584.726,585.726,,,,,,1_AB,L5_T1P_T2P,5,1,1,5,10,4,4,14,Fox,Did you see the Fox,0.12,0,resources/,pics/hammerheadshark.jpg,pics/bowlingpin.jpg,pics/pictureframe04.jpg,pics/peanut01.jpg,pics/redfox.jpg,pics/cymbal.jpg,pics/spoon01.jpg,pics/banjo.jpg,pics/butterfly.jpg,pics/stapler11.jpg,pics/football.jpg,pics/safetypin.jpg,pics/triangle.jpg,pics/onion.jpg,blankImage,blankImage,blankImage,redfox,45,0.116,0.116,,,,,,,,,,,,,,,,,,,,,,,,,,,,,,,,,,,,,,,0,50,50,44,1,,,,,,,,,,,,,,,,,,,,,,,,,,,,,,,,,,,,,,,,,,,,,,,,,,,,,,,
,,,,,60cfb80f9613ba516472434c,6682b41eeb79ab8215dff63d,6682b95c868b9c229e4cf691,23,female,English,2024-07-01_15h14.03.961,ABmemTask3,2023.2.3,MacIntel,55.55555556,,,,,,,,,,,,,,,,,,,,,,,,,,,,,,,585.726,586.727,586.727,7,587.227,588.394,0,588.51,0.116,0.116,0.118,0.117,0.116,0.116,0.118,0.116,0.117,0.117,,588.51,589.327,left,0.801,,589.327,589.844,right,0.501,,48,0,104,589.844,590.843,,,,,,1_AB,L1_T1A_T2P,1,0,1,7,8,6,3,11,turkey,Did you see the turkey,0.12,0,resources/,pics/proboscismonkey.jpg,pics/blender.jpg,pics/sealion.jpg,pics/snowshoe.jpg,pics/carrot01.jpg,pics/microscope.jpg,pics/piggybank.jpg,pics/stapler12.jpg,pics/peanut01.jpg,pics/dustpan.jpg,pics/footballhelmet.jpg,blankImage,blankImage,blankImage,blankImage,blankImage,blankImage,turkey,26,,,,,,,,,,,,,,,,,,,,,,,,,,,,,,,,,,,,,,,,,0,51,51,25,1,,,,,,,,,,,,,,,,,,,,,,,,,,,,,,,,,,,,,,,,,,,,,,,,,,,,,,,
,,,,,60cfb80f9613ba516472434c,6682b41eeb79ab8215dff63d,6682b95c868b9c229e4cf691,23,female,English,2024-07-01_15h14.03.961,ABmemTask3,2023.2.3,MacIntel,55.55555556,,,,,,,,,,,,,,,,,,,,,,,,,,,,,,,590.843,591.844,591.844,7,592.344,593.978,0,594.094,0.116,0.116,0.118,0.117,0.116,0.116,0.117,0.117,0.117,0.117,0.116,594.094,594.644,right,0.532,,594.644,595.177,right,0.52,,50,0,106,595.177,596.177,,,,,,1_AB,L5_T1P_T2P,5,1,1,5,10,4,5,15,dolphin,Did you see the dolphin,0.12,0,resources/,pics/banjo.jpg,pics/shipinabottle.jpg,pics/laptop01a.jpg,pics/onion.jpg,pics/dolphin01.jpg,pics/sink.jpg,pics/seaturtle.jpg,pics/butterfly.jpg,pics/hen.jpg,pics/stapler10.jpg,pics/proboscismonkey.jpg,pics/starfish01.jpg,pics/salmon.jpg,pics/spiderweb.jpg,pics/cymbal.jpg,blankImage,blankImage,dolphin01,49,0.116,0.118,0.117,,,,,,,,,,,,,,,,,,,,,,,,,,,,,,,,,,,,,,0,52,52,48,1,,,,,,,,,,,,,,,,,,,,,,,,,,,,,,,,,,,,,,,,,,,,,,,,,,,,,,,
,,,,,60cfb80f9613ba516472434c,6682b41eeb79ab8215dff63d,6682b95c868b9c229e4cf691,23,female,English,2024-07-01_15h14.03.961,ABmemTask3,2023.2.3,MacIntel,55.55555556,,,,,,,,,,,,,,,,,,,,,,,,,,,,,,,596.178,597.177,597.177,7,597.677,599.194,0.001,599.31,0.117,0.116,0.116,0.116,0.118,0.117,0.116,0.116,0.117,0.116,0.118,599.31,600.227,right,0.899,,600.227,600.677,left,0.439,,52,0,108,600.677,601.677,,,,,,1_AB,L5_T1P_T2A,5,1,0,4,9,3,5,14,Frisbee,Did you see the Frisbee,0.12,0,resources/,pics/giraffe.jpg,pics/christmaslights.jpg,pics/bowtie.jpg,pics/frisbee.jpg,pics/banjo.jpg,pics/calendar.jpg,pics/butterfly.jpg,pics/onion.jpg,pics/starfish01.jpg,pics/footballhelmet.jpg,pics/blender.jpg,pics/candleholder01.jpg,pics/hairdryer02a.jpg,pics/dromedary.jpg,blankImage,blankImage,blankImage,frisbee,58,0.117,0.116,,,,,,,,,,,,,,,,,,,,,,,,,,,,,,,,,,,,,,,0,53,53,57,1,,,,,,,,,,,,,,,,,,,,,,,,,,,,,,,,,,,,,,,,,,,,,,,,,,,,,,,
,,,,,60cfb80f9613ba516472434c,6682b41eeb79ab8215dff63d,6682b95c868b9c229e4cf691,23,female,English,2024-07-01_15h14.03.961,ABmemTask3,2023.2.3,MacIntel,55.55555556,,,,,,,,,,,,,,,,,,,,,,,,,,,,,,,601.677,602.677,602.677,7,603.178,604.228,0.001,604.345,0.116,0.116,0.116,0.117,0.117,0.117,0.117,0.116,0.117,,,604.345,605.428,right,1.065,,605.428,606.011,right,0.567,,54,0,110,606.011,607.011,,,,,,1_AB,L1_T1P_T2P,1,1,1,5,6,4,4,10,thermometer,Did you see the thermometer,0.12,0,resources/,pics/triangle.jpg,pics/shovel01.jpg,pics/mummy.jpg,pics/noparkingsign.jpg,pics/thermometer02b.jpg,pics/stapler04.jpg,pics/piggybank.jpg,pics/golfball.jpg,pics/laptop01a.jpg,pics/aquarium.jpg,blankImage,blankImage,blankImage,blankImage,blankImage,blankImage,blankImage,thermometer02b,8,,,,,,,,,,,,,,,,,,,,,,,,,,,,,,,,,,,,,,,,,0,54,54,7,1,,,,,,,,,,,,,,,,,,,,,,,,,,,,,,,,,,,,,,,,,,,,,,,,,,,,,,,
,,,,,60cfb80f9613ba516472434c,6682b41eeb79ab8215dff63d,6682b95c868b9c229e4cf691,23,female,English,2024-07-01_15h14.03.961,ABmemTask3,2023.2.3,MacIntel,55.55555556,,,,,,,,,,,,,,,,,,,,,,,,,,,,,,,607.012,608.011,608.011,7,608.511,609.678,0,609.795,0.117,0.117,0.117,0.116,0.116,0.117,0.118,0.116,0.117,0.116,,609.795,610.429,right,0.618,,610.429,610.862,right,0.427,,56,0,112,610.862,611.861,,,,,,1_AB,L1_T1P_T2P,1,1,1,7,8,6,3,11,sock,Did you see the sock,0.12,0,resources/,pics/hen.jpg,pics/christmaslights.jpg,pics/salmon.jpg,pics/sealion.jpg,pics/seaturtle.jpg,pics/giraffe.jpg,pics/athleticsock.jpg,pics/stapler01.jpg,pics/shovel01.jpg,pics/leaf02a.jpg,pics/backpack01a.jpg,blankImage,blankImage,blankImage,blankImage,blankImage,blankImage,athleticsock,11,,,,,,,,,,,,,,,,,,,,,,,,,,,,,,,,,,,,,,,,,0,55,55,10,1,,,,,,,,,,,,,,,,,,,,,,,,,,,,,,,,,,,,,,,,,,,,,,,,,,,,,,,
,,,,,60cfb80f9613ba516472434c,6682b41eeb79ab8215dff63d,6682b95c868b9c229e4cf691,23,female,English,2024-07-01_15h14.03.961,ABmemTask3,2023.2.3,MacIntel,55.55555556,,,,,,,,,,,,,,,,,,,,,,,,,,,,,,,611.862,612.862,612.862,7,613.361,614.879,0.001,614.995,0.117,0.117,0.116,0.116,0.116,0.118,0.117,0.117,0.116,0.116,0.117,614.995,615.496,right,0.486,,615.496,615.962,right,0.449,,58,0,114,615.962,616.962,,,,,,1_AB,L5_T1P_T2P,5,1,1,4,9,3,5,14,pliers,Did you see the pliers,0.12,0,resources/,pics/calendar.jpg,pics/footballhelmet.jpg,pics/seaturtle.jpg,pics/pliers02b.jpg,pics/wheel01.jpg,pics/cannon.jpg,pics/proboscismonkey.jpg,pics/shovel01.jpg,pics/stapler06.jpg,pics/football.jpg,pics/hose.jpg,pics/dustpan.jpg,pics/spiderweb.jpg,pics/golfball.jpg,blankImage,blankImage,blankImage,pliers02b,48,0.117,0.117,,,,,,,,,,,,,,,,,,,,,,,,,,,,,,,,,,,,,,,0,56,56,47,1,,,,,,,,,,,,,,,,,,,,,,,,,,,,,,,,,,,,,,,,,,,,,,,,,,,,,,,
,,,,,60cfb80f9613ba516472434c,6682b41eeb79ab8215dff63d,6682b95c868b9c229e4cf691,23,female,English,2024-07-01_15h14.03.961,ABmemTask3,2023.2.3,MacIntel,55.55555556,,,,,,,,,,,,,,,,,,,,,,,,,,,,,,,616.963,617.961,617.961,7,618.462,620.212,0.001,620.329,0.116,0.117,0.116,0.116,0.118,0.115,0.118,0.116,0.116,0.118,0.117,620.329,620.812,right,0.462,,620.812,621.279,right,0.452,,60,0,116,621.279,622.279,,,,,,1_AB,L5_T1P_T2P,5,1,1,6,11,5,5,16,cruise ship,Did you see the cruise ship,0.12,0,resources/,pics/seaturtle.jpg,pics/ashtray01.jpg,pics/pencil01.jpg,pics/fanblades.jpg,pics/triangle.jpg,pics/cruiseship.jpg,pics/wheel01.jpg,pics/dustpan.jpg,pics/starfish01.jpg,pics/banjo.jpg,pics/stapler12.jpg,pics/match.jpg,pics/cannon.jpg,pics/sandbarshark.jpg,pics/sink.jpg,pics/zebra.jpg,blankImage,cruiseship,51,0.117,0.116,0.116,,,,,,,,,,,,,,,,,,,,,,,,,,,,,,,,,,,,,,0,57,57,50,1,0.118,,,,,,,,,,,,,,,,,,,,,,,,,,,,,,,,,,,,,,,,,,,,,,,,,,,,,,
,,,,,60cfb80f9613ba516472434c,6682b41eeb79ab8215dff63d,6682b95c868b9c229e4cf691,23,female,English,2024-07-01_15h14.03.961,ABmemTask3,2023.2.3,MacIntel,55.55555556,,,,,,,,,,,,,,,,,,,,,,,,,,,,,,,622.279,623.279,623.279,7,623.779,624.946,0.001,625.063,0.116,0.117,0.116,0.116,0.118,0.117,0.116,0.116,0.117,0.117,,625.063,625.895,right,0.818,,625.895,626.629,left,0.718,,62,0,118,626.629,627.629,,,,,,1_AB,L1_T1P_T2A,1,1,0,7,8,6,3,11,eggplant,Did you see the eggplant,0.12,0,resources/,pics/salmon.jpg,pics/fanblades.jpg,pics/hammerheadshark.jpg,pics/wheel01.jpg,pics/snowshoe.jpg,pics/birdhouse.jpg,pics/eggplant.jpg,pics/spiderweb.jpg,pics/zebra.jpg,pics/pencilsharpener02a.jpg,pics/backpack01a.jpg,blankImage,blankImage,blankImage,blankImage,blankImage,blankImage,eggplant,32,,,,,,,,,,,,,,,,,,,,,,,,,,,,,,,,,,,,,,,,,0,58,58,31,1,,,,,,,,,,,,,,,,,,,,,,,,,,,,,,,,,,,,,,,,,,,,,,,,,,,,,,,
,,,,,60cfb80f9613ba516472434c,6682b41eeb79ab8215dff63d,6682b95c868b9c229e4cf691,23,female,English,2024-07-01_15h14.03.961,ABmemTask3,2023.2.3,MacIntel,55.55555556,,,,,,,,,,,,,,,,,,,,,,,,,,,,,,,627.629,628.629,628.629,7,629.13,630.413,0,630.529,0.116,0.116,0.118,0.117,0.116,0.117,0.116,0.117,0.117,0.117,0.116,630.529,631.08,right,0.53,,631.08,631.513,right,0.419,,64,0,120,631.513,632.513,,,,,,1_AB,L5_T1P_T2P,5,1,1,4,9,3,3,12,Sheep,Did you see the Sheep,0.12,0,resources/,pics/icecube01.jpg,pics/cymbal.jpg,pics/wheel01.jpg,pics/sheep.jpg,pics/starfish01.jpg,pics/safetypin.jpg,pics/siamesecat.jpg,pics/lock03a.jpg,pics/stapler01.jpg,pics/sink.jpg,pics/fanblades.jpg,pics/bowlingpin.jpg,blankImage,blankImage,blankImage,blankImage,blankImage,sheep,52,,,,,,,,,,,,,,,,,,,,,,,,,,,,,,,,,,,,,,,,,0,59,59,51,1,,,,,,,,,,,,,,,,,,,,,,,,,,,,,,,,,,,,,,,,,,,,,,,,,,,,,,,
,,,,,60cfb80f9613ba516472434c,6682b41eeb79ab8215dff63d,6682b95c868b9c229e4cf691,23,female,English,2024-07-01_15h14.03.961,ABmemTask3,2023.2.3,MacIntel,55.55555556,,,,,,,,,,,,,,,,,,,,,,,,,,,,,,,632.514,633.513,633.513,7,634.012,635.646,0.001,635.762,0.117,0.117,0.116,0.116,0.117,0.118,0.116,0.117,0.116,0.116,0.118,635.762,636.23,right,0.459,,636.231,636.73,right,0.485,,66,0,122,636.73,637.73,,,,,,1_AB,L5_T1P_T2P,5,1,1,5,10,4,5,15,ribbon,Did you see the ribbon,0.12,0,resources/,pics/giraffe.jpg,pics/boot02b.jpg,pics/cymbal.jpg,pics/leaf02a.jpg,pics/ribbon04.jpg,pics/lightswitch01.jpg,pics/necklace.jpg,pics/calendar.jpg,pics/kangaroo.jpg,pics/stapler12.jpg,pics/hose.jpg,pics/carrot01.jpg,pics/match.jpg,pics/sink.jpg,pics/candleholder01.jpg,blankImage,blankImage,ribbon04,53,0.117,0.116,0.116,,,,,,,,,,,,,,,,,,,,,,,,,,,,,,,,,,,,,,0,60,60,52,1,,,,,,,,,,,,,,,,,,,,,,,,,,,,,,,,,,,,,,,,,,,,,,,,,,,,,,,
,,,,,60cfb80f9613ba516472434c,6682b41eeb79ab8215dff63d,6682b95c868b9c229e4cf691,23,female,English,2024-07-01_15h14.03.961,ABmemTask3,2023.2.3,MacIntel,55.55555556,,,,,,,,,,,,,,,,,,,,,,,,,,,,,,,637.73,638.73,638.73,7,639.23,640.28,0.001,640.397,0.116,0.116,0.117,0.117,0.117,0.116,0.116,0.118,0.116,,,640.397,641.013,right,0.606,,641.013,641.447,left,0.419,,68,0,124,641.447,642.447,,,,,,1_AB,L1_T1P_T2A,1,1,0,6,7,5,3,10,Duct tape,Did you see the Duct tape,0.12,0,resources/,pics/butterfly.jpg,pics/noparkingsign.jpg,pics/pictureframe04.jpg,pics/cork02.jpg,pics/fanblades.jpg,pics/ducttape.jpg,pics/icecube01.jpg,pics/siamesecat.jpg,pics/sink.jpg,pics/sandbarshark.jpg,blankImage,blankImage,blankImage,blankImage,blankImage,blankImage,blankImage,ducttape,36,,,,,,,,,,,,,,,,,,,,,,,,,,,,,,,,,,,,,,,,,0,61,61,35,1,,,,,,,,,,,,,,,,,,,,,,,,,,,,,,,,,,,,,,,,,,,,,,,,,,,,,,,
