consent1.started,consent1.stopped,key_resp_8.keys,key_resp_8.rt,key_resp_8.duration,PROLIFIC_PID,STUDY_ID,SESSION_ID,age,sex,native language,date,expName,psychopyVersion,OS,frameRate,consent2.started,consent2.stopped,key_resp_9.keys,key_resp_9.rt,key_resp_9.duration,consent3.started,consent3.stopped,key_resp_10.keys,key_resp_10.rt,key_resp_10.duration,consent4.started,consent4.stopped,key_resp_11.keys,key_resp_11.rt,key_resp_11.duration,consent5.started,consent5.stopped,key_resp_12.keys,key_resp_12.rt,key_resp_12.duration,bonusInstruct.started,bonusInstruct.stopped,key_resp_14.keys,key_resp_14.rt,key_resp_14.duration,practiceInstruct.started,practiceInstruct.stopped,key_resp.keys,key_resp.rt,key_resp.duration,cueWord_2.started,cueWord_2.stopped,fix.started,frameTarget,fix.stopped,trial.started,img1Add,trial.stopped,img2Add,img3Add,img4Add,img5Add,img6Add,img7Add,img8Add,img9Add,img10Add,img11Add,img12Add,prompt1.started,prompt1.stopped,key_resp_2.keys,key_resp_2.rt,key_resp_2.duration,prompt2.started,prompt2.stopped,key_resp_3.keys,key_resp_3.rt,key_resp_3.duration,runningAcc_AB,runningTotal,runningCount_AB,feedback.started,feedback.stopped,trials.thisRepN,trials.thisTrialN,trials.thisN,trials.thisIndex,trials.ran,TrialType,CondType,Lag,T1_PA,T2_PA,T1Loc,T2Loc,PreDistractor,PostDistractor,TotalImg,cueWord,T1cue,StimLength,isi,PicFolder,Img1,Img2,Img3,Img4,Img5,Img6,Img7,Img8,Img9,Img10,Img11,Img12,Img13,Img14,Img15,Img16,Img17,T1_Identity,trialID,img13Add,img14Add,img15Add,ABfeedback.started,ABfeedback.stopped,key_resp_13.keys,key_resp_13.rt,key_resp_13.duration,MemPracticeInstruction.started,MemPracticeInstruction.stopped,key_resp_5.keys,key_resp_5.rt,key_resp_5.duration,memTrial.started,memTrial.stopped,Mem_runningPoints,key_resp_4.keys,key_resp_4.rt,key_resp_4.duration,memTrialFeedback.started,memTrialFeedback.stopped,trials_2.thisRepN,trials_2.thisTrialN,trials_2.thisN,trials_2.thisIndex,trials_2.ran,ABtrialID,priorLag,image,memFeedback.started,memFeedback.frame,memFeedback.ended,memFeedback.stopped,bonus.started,bonus.stopped,memoryBlockABInstruct.started,memoryBlockABInstruct.stopped,key_resp_6.keys,key_resp_6.rt,key_resp_6.duration,AB_block_1.thisRepN,AB_block_1.thisTrialN,AB_block_1.thisN,AB_block_1.thisIndex,AB_block_1.ran,img16Add,img17Add,AB_break1.started,AB_break1.stopped,PerceiveBlockABInstruct.started,PerceiveBlockABInstruct.stopped,key_resp_7.keys,key_resp_7.rt,key_resp_7.duration,AB_block_2.thisRepN,AB_block_2.thisTrialN,AB_block_2.thisN,AB_block_2.thisIndex,AB_block_2.ran,AB_break2.started,AB_break2.stopped,AB_block_3.thisRepN,AB_block_3.thisTrialN,AB_block_3.thisN,AB_block_3.thisIndex,AB_block_3.ran,AB_break3.started,AB_break3.stopped,AB_block_4.thisRepN,AB_block_4.thisTrialN,AB_block_4.thisN,AB_block_4.thisIndex,AB_block_4.ran,AB_break4.started,AB_break4.stopped,AB_block_5.thisRepN,AB_block_5.thisTrialN,AB_block_5.thisN,AB_block_5.thisIndex,AB_block_5.ran,AB_break5.started,AB_break5.stopped,AB_block_6.thisRepN,AB_block_6.thisTrialN,AB_block_6.thisN,AB_block_6.thisIndex,AB_block_6.ran,AB_break6.started,AB_break6.stopped,MemInstructionSURPRISE.started,MemInstructionSURPRISE.stopped,MemInstruction.started,MemInstruction.stopped,memBreak.started,memBreak.stopped,Mem_block_1.thisRepN,Mem_block_1.thisTrialN,Mem_block_1.thisN,Mem_block_1.thisIndex,Mem_block_1.ran
0.0013,6.5956,space,6.0608,,5fa2e56fe794555527f2c8ef,6682b41eeb79ab8215dff63d,6682b5f219f7e4d55acfa83c,24,Female,English,2024-07-01_15h00.54.210,ABmemTask3,2023.2.3,Win32,2.99850075,,,,,,,,,,,,,,,,,,,,,,,,,,,,,,,,,,,,,,,,,,,,,,,,,,,,,,,,,,,,,,,,,,,,,,,,,,,,,,,,,,,,,,,,,,,,,,,,,,,,,,,,,,,,,,,,,,,,,,,,,,,,,,,,,,,,,,,,,,,,,,,,,,,,,,,,,,,,,,,,,,,,,,,,,,,,,,,,,,,,,,,,,,,,,,,,,,,,,,,,,,,
,,,,,5fa2e56fe794555527f2c8ef,6682b41eeb79ab8215dff63d,6682b5f219f7e4d55acfa83c,24,Female,English,2024-07-01_15h00.54.210,ABmemTask3,2023.2.3,Win32,2.99850075,6.5961,9.4523,space,2.3588,0.0009,,,,,,,,,,,,,,,,,,,,,,,,,,,,,,,,,,,,,,,,,,,,,,,,,,,,,,,,,,,,,,,,,,,,,,,,,,,,,,,,,,,,,,,,,,,,,,,,,,,,,,,,,,,,,,,,,,,,,,,,,,,,,,,,,,,,,,,,,,,,,,,,,,,,,,,,,,,,,,,,,,,,,,,,,,,,,,,,,,,,,,,,,,,,,,,,,,,,,,
,,,,,5fa2e56fe794555527f2c8ef,6682b41eeb79ab8215dff63d,6682b5f219f7e4d55acfa83c,24,Female,English,2024-07-01_15h00.54.210,ABmemTask3,2023.2.3,Win32,2.99850075,,,,,,9.4525,10.8455,space,0.9218,0.0007,,,,,,,,,,,,,,,,,,,,,,,,,,,,,,,,,,,,,,,,,,,,,,,,,,,,,,,,,,,,,,,,,,,,,,,,,,,,,,,,,,,,,,,,,,,,,,,,,,,,,,,,,,,,,,,,,,,,,,,,,,,,,,,,,,,,,,,,,,,,,,,,,,,,,,,,,,,,,,,,,,,,,,,,,,,,,,,,,,,,,,,,,,,,,,,,,
,,,,,5fa2e56fe794555527f2c8ef,6682b41eeb79ab8215dff63d,6682b5f219f7e4d55acfa83c,24,Female,English,2024-07-01_15h00.54.210,ABmemTask3,2023.2.3,Win32,2.99850075,,,,,,,,,,,10.8458,11.9436,space,0.5427,0.0019,,,,,,,,,,,,,,,,,,,,,,,,,,,,,,,,,,,,,,,,,,,,,,,,,,,,,,,,,,,,,,,,,,,,,,,,,,,,,,,,,,,,,,,,,,,,,,,,,,,,,,,,,,,,,,,,,,,,,,,,,,,,,,,,,,,,,,,,,,,,,,,,,,,,,,,,,,,,,,,,,,,,,,,,,,,,,,,,,,,,,,,,,,,,
,,,,,5fa2e56fe794555527f2c8ef,6682b41eeb79ab8215dff63d,6682b5f219f7e4d55acfa83c,24,Female,English,2024-07-01_15h00.54.210,ABmemTask3,2023.2.3,Win32,2.99850075,,,,,,,,,,,,,,,,11.9439,13.0658,space,0.5518,,,,,,,,,,,,,,,,,,,,,,,,,,,,,,,,,,,,,,,,,,,,,,,,,,,,,,,,,,,,,,,,,,,,,,,,,,,,,,,,,,,,,,,,,,,,,,,,,,,,,,,,,,,,,,,,,,,,,,,,,,,,,,,,,,,,,,,,,,,,,,,,,,,,,,,,,,,,,,,,,,,,,,,,,,,,,,,,,,,,,,,,
,,,,,5fa2e56fe794555527f2c8ef,6682b41eeb79ab8215dff63d,6682b5f219f7e4d55acfa83c,24,Female,English,2024-07-01_15h00.54.210,ABmemTask3,2023.2.3,Win32,2.99850075,,,,,,,,,,,,,,,,,,,,,13.0665,18.1483,space,4.5783,0.0017,,,,,,,,,,,,,,,,,,,,,,,,,,,,,,,,,,,,,,,,,,,,,,,,,,,,,,,,,,,,,,,,,,,,,,,,,,,,,,,,,,,,,,,,,,,,,,,,,,,,,,,,,,,,,,,,,,,,,,,,,,,,,,,,,,,,,,,,,,,,,,,,,,,,,,,,,,,,,,,,,,,,,,,,,,,,,,,,,,
,,,,,5fa2e56fe794555527f2c8ef,6682b41eeb79ab8215dff63d,6682b5f219f7e4d55acfa83c,24,Female,English,2024-07-01_15h00.54.210,ABmemTask3,2023.2.3,Win32,2.99850075,,,,,,,,,,,,,,,,,,,,,,,,,,18.1486,29.2835,space,10.6286,0.0006,,,,,,,,,,,,,,,,,,,,,,,,,,,,,,,,,,,,,,,,,,,,,,,,,,,,,,,,,,,,,,,,,,,,,,,,,,,,,,,,,,,,,,,,,,,,,,,,,,,,,,,,,,,,,,,,,,,,,,,,,,,,,,,,,,,,,,,,,,,,,,,,,,,,,,,,,,,,,,,,,,,,,,,,,,,,,
,,,,,5fa2e56fe794555527f2c8ef,6682b41eeb79ab8215dff63d,6682b5f219f7e4d55acfa83c,24,Female,English,2024-07-01_15h00.54.210,ABmemTask3,2023.2.3,Win32,2.99850075,,,,,,,,,,,,,,,,,,,,,,,,,,,,,,,29.3098,30.1125,30.1128,1,30.5195,35.6814,0.0034,36.133,0.4806,0.4987,0.4987,0.4317,0.4658,0.504,0.4623,0.4419,0.5155,0.4274,0.4321,36.1343,37.3805,right,0.7995,,37.3808,38.9849,left,1.2116,0.0004,2,0,2,38.9854,39.9332,0,0,0,0,1,prac_AB,L1_T1P_T2A,1,1,0,6,7,5,5,12,cat,Did you see the cat,0.25,0,resources/,pics/shipinabottle.jpg,pics/table01.jpg,pics/dustpan.jpg,pics/golfball.jpg,pics/giraffe.jpg,pics/cat.jpg,pics/peanut01.jpg,pics/pictureframe04.jpg,pics/fanblades.jpg,pics/laptop01a.jpg,pics/ball02.jpg,pics/blender.jpg,blankImage,blankImage,blankImage,blankImage,blankImage,cat,8,,,,,,,,,,,,,,,,,,,,,,,,,,,,,,,,,,,,,,,,,,,,,,,,,,,,,,,,,,,,,,,,,,,,,,,,,,,,,,,,,,,,,,,,,,,,,,,,,,,,
,,,,,5fa2e56fe794555527f2c8ef,6682b41eeb79ab8215dff63d,6682b5f219f7e4d55acfa83c,24,Female,English,2024-07-01_15h00.54.210,ABmemTask3,2023.2.3,Win32,2.99850075,,,,,,,,,,,,,,,,,,,,,,,,,,,,,,,39.9355,40.8224,40.8225,1,41.2248,45.6615,0.0021,46.0848,0.5367,0.4928,0.5754,0.4584,0.485,0.4575,0.4953,0.4485,0.4852,,,46.0849,48.5813,right,2.1088,0.0004,48.5815,49.855,right,0.8188,0.0004,4,0,4,49.8551,50.7623,0,1,1,1,1,prac_AB,L1_T1P_T2P,1,1,1,5,6,4,4,10,tree,Did you see the tree,0.24,0,resources/,pics/carrot01.jpg,pics/hammerheadshark.jpg,pics/kangaroo.jpg,pics/proboscismonkey.jpg,pics/tree.jpg,pics/stapler07.jpg,pics/siamesecat.jpg,pics/ball02.jpg,pics/pictureframe04.jpg,pics/mummy.jpg,blankImage,blankImage,blankImage,blankImage,blankImage,blankImage,blankImage,tree,1,,,,,,,,,,,,,,,,,,,,,,,,,,,,,,,,,,,,,,,,,,,,,,,,,,,,,,,,,,,,,,,,,,,,,,,,,,,,,,,,,,,,,,,,,,,,,,,,,,,,
,,,,,5fa2e56fe794555527f2c8ef,6682b41eeb79ab8215dff63d,6682b5f219f7e4d55acfa83c,24,Female,English,2024-07-01_15h00.54.210,ABmemTask3,2023.2.3,Win32,2.99850075,,,,,,,,,,,,,,,,,,,,,,,,,,,,,,,50.763,51.5799,51.58,1,52.0267,57.1613,0.002,57.7124,0.4702,0.4333,0.4287,0.4378,0.4443,0.4861,0.4819,0.5256,0.4868,0.4927,0.4456,57.7125,59.0872,left,0.9376,0.0003,59.0874,60.3799,right,0.8296,,6,0,6,60.3801,61.2131,0,2,2,2,1,prac_AB,L1_T1A_T2P,1,0,1,7,8,6,4,12,grapes,Did you see the grapes,0.23,0,resources/,pics/sailboat.jpg,pics/butterfly.jpg,pics/giraffe.jpg,pics/spoon01.jpg,pics/hose.jpg,pics/nutcracker01.jpg,pics/table01.jpg,pics/stapler13.jpg,pics/pencil01.jpg,pics/football.jpg,pics/triangle.jpg,pics/hairdryer02a.jpg,blankImage,blankImage,blankImage,blankImage,blankImage,grape01,6,,,,,,,,,,,,,,,,,,,,,,,,,,,,,,,,,,,,,,,,,,,,,,,,,,,,,,,,,,,,,,,,,,,,,,,,,,,,,,,,,,,,,,,,,,,,,,,,,,,,
,,,,,5fa2e56fe794555527f2c8ef,6682b41eeb79ab8215dff63d,6682b5f219f7e4d55acfa83c,24,Female,English,2024-07-01_15h00.54.210,ABmemTask3,2023.2.3,Win32,2.99850075,,,,,,,,,,,,,,,,,,,,,,,,,,,,,,,61.214,62.1325,62.1326,1,62.5342,68.9326,0.0022,69.3948,0.4933,0.4378,0.4308,0.4474,0.4361,0.4263,0.4421,0.439,0.5231,0.4263,0.4584,69.3948,70.7262,right,0.8871,0.0005,70.7262,71.9553,right,0.834,0.0004,8,0,8,71.9554,72.9046,0,3,3,3,1,prac_AB,L5_T1P_T2P,5,1,1,7,12,6,3,15,Human skull,Did you see the Human skull,0.22,0,resources/,pics/peach01.jpg,pics/proboscismonkey.jpg,pics/hose.jpg,pics/laptop01a.jpg,pics/hammerheadshark.jpg,pics/nutcracker01.jpg,pics/humanskull.jpg,pics/table01.jpg,pics/icecube01.jpg,pics/boot02b.jpg,pics/calendar.jpg,pics/stapler03a.jpg,pics/ashtray01.jpg,pics/giraffe.jpg,pics/dromedary.jpg,blankImage,blankImage,humanskull,12,0.4787,0.443,0.5144,,,,,,,,,,,,,,,,,,,,,,,,,,,,,,,,,,,,,,,,,,,,,,,,,,,,,,,,,,,,,,,,,,,,,,,,,,,,,,,,,,,,,,,,,,,,,,,,,
,,,,,5fa2e56fe794555527f2c8ef,6682b41eeb79ab8215dff63d,6682b5f219f7e4d55acfa83c,24,Female,English,2024-07-01_15h00.54.210,ABmemTask3,2023.2.3,Win32,2.99850075,,,,,,,,,,,,,,,,,,,,,,,,,,,,,,,72.9059,73.8008,73.8009,1,74.2051,79.0895,0.0023,79.6109,0.4316,0.4463,0.5012,0.4991,0.4453,0.4271,0.427,0.5628,0.4729,0.6692,,79.611,86.94,left,6.8107,0.0004,86.9401,88.182,left,0.8185,0.0005,8,0,10,88.1821,89.1476,0,4,4,4,1,prac_AB,L1_T1A_T2P,1,0,1,7,8,6,3,11,dog,Did you see the dog,0.21,0,resources/,pics/ball02.jpg,pics/binder03b.jpg,pics/dromedary.jpg,pics/shipinabottle.jpg,pics/proboscismonkey.jpg,pics/laptop01a.jpg,pics/chainsaw.jpg,pics/stapler13.jpg,pics/nutcracker01.jpg,pics/carrot01.jpg,pics/calendar.jpg,blankImage,blankImage,blankImage,blankImage,blankImage,blankImage,saintbernard,7,,,,,,,,,,,,,,,,,,,,,,,,,,,,,,,,,,,,,,,,,,,,,,,,,,,,,,,,,,,,,,,,,,,,,,,,,,,,,,,,,,,,,,,,,,,,,,,,,,,,
,,,,,5fa2e56fe794555527f2c8ef,6682b41eeb79ab8215dff63d,6682b5f219f7e4d55acfa83c,24,Female,English,2024-07-01_15h00.54.210,ABmemTask3,2023.2.3,Win32,2.99850075,,,,,,,,,,,,,,,,,,,,,,,,,,,,,,,89.1683,90.0281,90.0282,1,90.4378,96.88,0.002,97.3774,0.4285,0.433,0.4262,0.4921,0.4742,0.4846,0.5006,0.4523,0.4432,0.4708,0.4417,97.3775,99.0208,right,1.226,0.0004,99.021,99.8739,right,0.4729,,10,0,12,99.8741,100.7317,0,5,5,5,1,prac_AB,L5_T1P_T2P,5,1,1,5,10,4,5,15,grater,Did you see the grater,0.2,0,resources/,pics/pencil01.jpg,pics/laptop01a.jpg,pics/hammerheadshark.jpg,pics/cork02.jpg,pics/grater01a.jpg,pics/shipinabottle.jpg,pics/binder03b.jpg,pics/dromedary.jpg,pics/pictureframe04.jpg,pics/stapler04b.jpg,pics/fanblades.jpg,pics/aquarium.jpg,pics/hairdryer02a.jpg,pics/lightswitch01.jpg,pics/piggybank.jpg,blankImage,blankImage,grater01a,11,0.4314,0.5018,0.4606,,,,,,,,,,,,,,,,,,,,,,,,,,,,,,,,,,,,,,,,,,,,,,,,,,,,,,,,,,,,,,,,,,,,,,,,,,,,,,,,,,,,,,,,,,,,,,,,,
,,,,,5fa2e56fe794555527f2c8ef,6682b41eeb79ab8215dff63d,6682b5f219f7e4d55acfa83c,24,Female,English,2024-07-01_15h00.54.210,ABmemTask3,2023.2.3,Win32,2.99850075,,,,,,,,,,,,,,,,,,,,,,,,,,,,,,,100.7326,101.6004,101.6005,1,102.0037,105.6775,0.0016,106.1266,0.4494,0.4387,0.4437,0.431,0.4855,0.4717,0.5029,0.4497,,,,106.1267,107.4654,right,0.9364,0.0004,107.4656,108.2997,left,0.4459,,12,0,14,108.2998,109.1511,0,6,6,6,1,prac_AB,L1_T1P_T2A,1,1,0,4,5,3,4,9,chalk,Did you see the chalk,0.19,0,resources/,pics/necklace.jpg,pics/starfish01.jpg,pics/safetypin.jpg,pics/chalk.jpg,pics/candleholder01.jpg,pics/bowtie.jpg,pics/match.jpg,pics/candle01.jpg,pics/pencilsharpener02a.jpg,blankImage,blankImage,blankImage,blankImage,blankImage,blankImage,blankImage,blankImage,chalk,9,,,,,,,,,,,,,,,,,,,,,,,,,,,,,,,,,,,,,,,,,,,,,,,,,,,,,,,,,,,,,,,,,,,,,,,,,,,,,,,,,,,,,,,,,,,,,,,,,,,,
,,,,,5fa2e56fe794555527f2c8ef,6682b41eeb79ab8215dff63d,6682b5f219f7e4d55acfa83c,24,Female,English,2024-07-01_15h00.54.210,ABmemTask3,2023.2.3,Win32,2.99850075,,,,,,,,,,,,,,,,,,,,,,,,,,,,,,,109.1519,109.9609,109.961,1,110.3709,114.5777,0.0021,115.0664,0.4595,0.4296,0.4755,0.4979,0.4493,0.4652,0.4961,0.4901,0.4418,,,115.0664,116.3149,right,0.8397,0.0002,116.3151,117.9872,right,1.265,0.0005,14,0,16,117.9874,118.7976,0,7,7,7,1,prac_AB,L1_T1P_T2P,1,1,1,5,6,4,4,10,pants,Did you see the pants,0.18,0,resources/,pics/kangaroo.jpg,pics/safetypin.jpg,pics/salmon.jpg,pics/sandbarshark.jpg,pics/pants.jpg,pics/stapler03a.jpg,pics/sink.jpg,pics/calendar.jpg,pics/butterfly.jpg,pics/fanblades.jpg,blankImage,blankImage,blankImage,blankImage,blankImage,blankImage,blankImage,pants,2,,,,,,,,,,,,,,,,,,,,,,,,,,,,,,,,,,,,,,,,,,,,,,,,,,,,,,,,,,,,,,,,,,,,,,,,,,,,,,,,,,,,,,,,,,,,,,,,,,,,
,,,,,5fa2e56fe794555527f2c8ef,6682b41eeb79ab8215dff63d,6682b5f219f7e4d55acfa83c,24,Female,English,2024-07-01_15h00.54.210,ABmemTask3,2023.2.3,Win32,2.99850075,,,,,,,,,,,,,,,,,,,,,,,,,,,,,,,118.8184,119.6054,119.6055,1,120.0056,126.7358,0.0024,127.2335,0.44,0.4875,0.4951,0.4963,0.4473,0.4288,0.498,0.4606,0.4881,0.5317,0.4865,127.2337,128.9776,left,1.3335,0.0004,128.9776,130.368,right,0.9109,0.0004,16,0,18,130.3682,131.2211,0,8,8,8,1,prac_AB,L5_T1A_T2P,5,0,1,7,12,6,3,15,shirt,Did you see the shirt,0.17,0,resources/,pics/banjo.jpg,pics/chainsaw.jpg,pics/sailboat.jpg,pics/shipinabottle.jpg,pics/lightswitch01.jpg,pics/starfish01.jpg,pics/hen.jpg,pics/ball02.jpg,pics/bowlingpin.jpg,pics/hammerheadshark.jpg,pics/footballhelmet.jpg,pics/stapler10.jpg,pics/laptop01a.jpg,pics/cannon.jpg,pics/golfball.jpg,blankImage,blankImage,shirt02,13,0.4268,0.5237,0.5176,,,,,,,,,,,,,,,,,,,,,,,,,,,,,,,,,,,,,,,,,,,,,,,,,,,,,,,,,,,,,,,,,,,,,,,,,,,,,,,,,,,,,,,,,,,,,,,,,
,,,,,5fa2e56fe794555527f2c8ef,6682b41eeb79ab8215dff63d,6682b5f219f7e4d55acfa83c,24,Female,English,2024-07-01_15h00.54.210,ABmemTask3,2023.2.3,Win32,2.99850075,,,,,,,,,,,,,,,,,,,,,,,,,,,,,,,131.2219,132.1029,132.103,0,132.5158,132.5311,0.0017,132.532,0.0014,0.0014,0.0009,0.0016,0.0012,0.0012,0.0024,0.0011,0.0012,0.0013,,132.5322,150.9883,left,18.0645,0.0012,150.9886,152.577,left,0.1649,0.0233,14,0,20,152.5771,153.0344,0,9,9,9,1,prac_AB,L1_T1P_T2P,1,1,1,7,8,6,3,11,tongs,Did you see the tongs,0.16,0,resources/,pics/sewingmachine01a.jpg,pics/shovel01.jpg,pics/football.jpg,pics/hen.jpg,pics/banjo.jpg,pics/zebra.jpg,pics/tongs01b.jpg,pics/stapler11.jpg,pics/shipinabottle.jpg,pics/match.jpg,pics/candle01.jpg,blankImage,blankImage,blankImage,blankImage,blankImage,blankImage,tongs01b,5,,,,,,,,,,,,,,,,,,,,,,,,,,,,,,,,,,,,,,,,,,,,,,,,,,,,,,,,,,,,,,,,,,,,,,,,,,,,,,,,,,,,,,,,,,,,,,,,,,,,
,,,,,5fa2e56fe794555527f2c8ef,6682b41eeb79ab8215dff63d,6682b5f219f7e4d55acfa83c,24,Female,English,2024-07-01_15h00.54.210,ABmemTask3,2023.2.3,Win32,2.99850075,,,,,,,,,,,,,,,,,,,,,,,,,,,,,,,153.0577,153.061,153.061,0,153.0611,153.0877,0.0034,153.089,0.0018,0.0014,0.0021,0.0021,0.0019,0.0033,0.0038,0.0023,0.0018,0.0014,0.0018,153.0891,153.5145,left,0.0351,0.0003,153.5146,156.4829,left,2.5604,0.0005,16,0,22,156.4829,157.3685,0,10,10,10,1,prac_AB,L1_T1A_T2A,1,0,0,7,8,6,4,12,camera,Did you see the camera,0.15,0,resources/,pics/lightswitch01.jpg,pics/table01.jpg,pics/aquarium.jpg,pics/boot02b.jpg,pics/butterfly.jpg,pics/chainsaw.jpg,pics/binoculars01b.jpg,pics/giraffe.jpg,pics/triangle.jpg,pics/microscope.jpg,pics/mummy.jpg,pics/icecube01.jpg,blankImage,blankImage,blankImage,blankImage,blankImage,camera01a,10,,,,,,,,,,,,,,,,,,,,,,,,,,,,,,,,,,,,,,,,,,,,,,,,,,,,,,,,,,,,,,,,,,,,,,,,,,,,,,,,,,,,,,,,,,,,,,,,,,,,
,,,,,5fa2e56fe794555527f2c8ef,6682b41eeb79ab8215dff63d,6682b5f219f7e4d55acfa83c,24,Female,English,2024-07-01_15h00.54.210,ABmemTask3,2023.2.3,Win32,2.99850075,,,,,,,,,,,,,,,,,,,,,,,,,,,,,,,157.3694,158.2306,158.2306,0,158.6505,158.6624,0.0017,158.6636,0.0011,0.0011,0.0016,0.0012,0.0013,0.001,0.0009,0.0011,0.0012,,,158.6637,160.441,left,1.3923,0.0005,160.4411,162.1078,left,1.2272,0.0004,14,0,24,162.1079,162.919,0,11,11,11,1,prac_AB,L1_T1P_T2P,1,1,1,6,7,5,3,10,shorts,Did you see the shorts,0.14,0,resources/,pics/snowshoe.jpg,pics/chainsaw.jpg,pics/sailboat.jpg,pics/ball02.jpg,pics/candleholder01.jpg,pics/shorts01.jpg,pics/stapler07.jpg,pics/peach01.jpg,pics/proboscismonkey.jpg,pics/hen.jpg,blankImage,blankImage,blankImage,blankImage,blankImage,blankImage,blankImage,shorts01,4,,,,,,,,,,,,,,,,,,,,,,,,,,,,,,,,,,,,,,,,,,,,,,,,,,,,,,,,,,,,,,,,,,,,,,,,,,,,,,,,,,,,,,,,,,,,,,,,,,,,
,,,,,5fa2e56fe794555527f2c8ef,6682b41eeb79ab8215dff63d,6682b5f219f7e4d55acfa83c,24,Female,English,2024-07-01_15h00.54.210,ABmemTask3,2023.2.3,Win32,2.99850075,,,,,,,,,,,,,,,,,,,,,,,,,,,,,,,162.9199,163.7824,163.7825,0,164.2113,164.23,0.0021,164.2316,0.0012,0.0016,0.0012,0.0015,0.0013,0.0017,0.0012,0.0013,0.0012,0.0017,0.0014,164.2316,165.4391,left,0.8325,0.0004,165.4392,166.6934,left,0.877,,14,0,26,166.6936,167.4896,0,12,12,12,1,prac_AB,L5_T1P_T2A,5,1,0,5,10,4,3,13,fish,Did you see the fish,0.13,0,resources/,pics/football.jpg,pics/safetypin.jpg,pics/shovel01.jpg,pics/sink.jpg,pics/holdfast.jpg,pics/nutcracker01.jpg,pics/starfish01.jpg,pics/onion.jpg,pics/footballhelmet.jpg,pics/boot02b.jpg,pics/sewingmachine01a.jpg,pics/kangaroo.jpg,pics/banjo.jpg,blankImage,blankImage,blankImage,blankImage,holdfast,14,0.0018,,,,,,,,,,,,,,,,,,,,,,,,,,,,,,,,,,,,,,,,,,,,,,,,,,,,,,,,,,,,,,,,,,,,,,,,,,,,,,,,,,,,,,,,,,,,,,,,,,,
,,,,,5fa2e56fe794555527f2c8ef,6682b41eeb79ab8215dff63d,6682b5f219f7e4d55acfa83c,24,Female,English,2024-07-01_15h00.54.210,ABmemTask3,2023.2.3,Win32,2.99850075,,,,,,,,,,,,,,,,,,,,,,,,,,,,,,,167.4906,168.3971,168.3971,0,168.7939,168.8078,0.0015,168.8088,0.0013,0.0014,0.0016,0.0015,0.0016,0.0015,0.0012,0.0013,0.0013,,,168.8089,170.4116,left,1.2331,0.0004,170.4118,171.3108,left,0.5145,,12,0,28,171.3109,172.1834,0,13,13,13,1,prac_AB,L1_T1P_T2P,1,1,1,5,6,4,4,10,fish,Did you see the fish,0.12,0,resources/,pics/butterfly.jpg,pics/banjo.jpg,pics/leaf02a.jpg,pics/dustpan.jpg,pics/sturgeon.jpg,pics/stapler02.jpg,pics/necklace.jpg,pics/shovel01.jpg,pics/starfish01.jpg,pics/chainsaw.jpg,blankImage,blankImage,blankImage,blankImage,blankImage,blankImage,blankImage,sturgeon,3,,,,,,,,,,,,,,,,,,,,,,,,,,,,,,,,,,,,,,,,,,,,,,,,,,,,,,,,,,,,,,,,,,,,,,,,,,,,,,,,,,,,,,,,,,,,,,,,,,,,
,,,,,5fa2e56fe794555527f2c8ef,6682b41eeb79ab8215dff63d,6682b5f219f7e4d55acfa83c,24,Female,English,2024-07-01_15h00.54.210,ABmemTask3,2023.2.3,Win32,2.99850075,,,,,,,,,,,,,,,,,,,,,,,,,,,,,,,,,,,,,,,,,,,,,,,,,,,,,,,,,,,,,,,,,,,,,,,,,,,,,,,,,,,,,,,,,,,,,,,,,,,,,,,,,,,172.186,177.3856,space,4.6261,0.0005,,,,,,,,,,,,,,,,,,,,,,,,,,,,,,,,,,,,,,,,,,,,,,,,,,,,,,,,,,,,,,,,,,,,,,,,,,,,,,,,,,,,,,,,,,,,
,,,,,5fa2e56fe794555527f2c8ef,6682b41eeb79ab8215dff63d,6682b5f219f7e4d55acfa83c,24,Female,English,2024-07-01_15h00.54.210,ABmemTask3,2023.2.3,Win32,2.99850075,,,,,,,,,,,,,,,,,,,,,,,,,,,,,,,177.4191,178.2462,178.2463,1,178.6387,183.6304,0.0019,184.1132,0.5198,0.4723,0.4363,0.4297,0.431,0.4958,0.4332,0.4381,0.4283,0.4473,0.4581,184.1134,185.7751,right,1.2736,0.0004,185.7751,186.6192,left,0.4275,,2,0,2,186.6192,187.4585,0,0,0,0,1,prac_AB,L1_T1P_T2A,1,1,0,6,7,5,5,12,cat,Did you see the cat,0.25,0,resources/,pics/shipinabottle.jpg,pics/table01.jpg,pics/dustpan.jpg,pics/golfball.jpg,pics/giraffe.jpg,pics/cat.jpg,pics/peanut01.jpg,pics/pictureframe04.jpg,pics/fanblades.jpg,pics/laptop01a.jpg,pics/ball02.jpg,pics/blender.jpg,blankImage,blankImage,blankImage,blankImage,blankImage,cat,8,,,,,,,,,,,,,,,,,,,,,,,,,,,,,,,,,,,,,,,,,,,,,,,,,,,,,,,,,,,,,,,,,,,,,,,,,,,,,,,,,,,,,,,,,,,,,,,,,,,,
,,,,,5fa2e56fe794555527f2c8ef,6682b41eeb79ab8215dff63d,6682b5f219f7e4d55acfa83c,24,Female,English,2024-07-01_15h00.54.210,ABmemTask3,2023.2.3,Win32,2.99850075,,,,,,,,,,,,,,,,,,,,,,,,,,,,,,,187.4789,188.3435,188.3435,1,188.7388,192.833,0.0021,193.2723,0.4472,0.4417,0.436,0.4997,0.4868,0.4383,0.4819,0.4315,0.4294,,,193.2724,194.6501,right,0.8635,,194.6501,195.4503,right,0.4126,,4,0,4,195.4504,196.3214,0,1,1,1,1,prac_AB,L1_T1P_T2P,1,1,1,5,6,4,4,10,tree,Did you see the tree,0.24,0,resources/,pics/carrot01.jpg,pics/hammerheadshark.jpg,pics/kangaroo.jpg,pics/proboscismonkey.jpg,pics/tree.jpg,pics/stapler07.jpg,pics/siamesecat.jpg,pics/ball02.jpg,pics/pictureframe04.jpg,pics/mummy.jpg,blankImage,blankImage,blankImage,blankImage,blankImage,blankImage,blankImage,tree,1,,,,,,,,,,,,,,,,,,,,,,,,,,,,,,,,,,,,,,,,,,,,,,,,,,,,,,,,,,,,,,,,,,,,,,,,,,,,,,,,,,,,,,,,,,,,,,,,,,,,
,,,,,5fa2e56fe794555527f2c8ef,6682b41eeb79ab8215dff63d,6682b5f219f7e4d55acfa83c,24,Female,English,2024-07-01_15h00.54.210,ABmemTask3,2023.2.3,Win32,2.99850075,,,,,,,,,,,,,,,,,,,,,,,,,,,,,,,196.3222,197.1324,197.1325,1,197.5855,202.5143,0.0021,202.941,0.4309,0.4297,0.4833,0.4281,0.4905,0.4397,0.4445,0.427,0.4807,0.4419,0.4308,202.9411,211.0953,left,7.7647,0.0003,211.0954,212.2997,right,0.8263,0.0004,6,0,6,212.2998,213.118,0,2,2,2,1,prac_AB,L1_T1A_T2P,1,0,1,7,8,6,4,12,grapes,Did you see the grapes,0.23,0,resources/,pics/sailboat.jpg,pics/butterfly.jpg,pics/giraffe.jpg,pics/spoon01.jpg,pics/hose.jpg,pics/nutcracker01.jpg,pics/table01.jpg,pics/stapler13.jpg,pics/pencil01.jpg,pics/football.jpg,pics/triangle.jpg,pics/hairdryer02a.jpg,blankImage,blankImage,blankImage,blankImage,blankImage,grape01,6,,,,,,,,,,,,,,,,,,,,,,,,,,,,,,,,,,,,,,,,,,,,,,,,,,,,,,,,,,,,,,,,,,,,,,,,,,,,,,,,,,,,,,,,,,,,,,,,,,,,
,,,,,5fa2e56fe794555527f2c8ef,6682b41eeb79ab8215dff63d,6682b5f219f7e4d55acfa83c,24,Female,English,2024-07-01_15h00.54.210,ABmemTask3,2023.2.3,Win32,2.99850075,,,,,,,,,,,,,,,,,,,,,,,,,,,,,,,213.1421,213.9362,213.9363,1,214.3338,220.5463,0.0018,220.9843,0.4362,0.4572,0.4289,0.44,0.4414,0.5002,0.4304,0.4273,0.4323,0.4291,0.4236,220.9844,222.2048,right,0.8352,,222.2048,223.0482,right,0.4601,,8,0,8,223.0483,223.9057,0,3,3,3,1,prac_AB,L5_T1P_T2P,5,1,1,7,12,6,3,15,Human skull,Did you see the Human skull,0.22,0,resources/,pics/peach01.jpg,pics/proboscismonkey.jpg,pics/hose.jpg,pics/laptop01a.jpg,pics/hammerheadshark.jpg,pics/nutcracker01.jpg,pics/humanskull.jpg,pics/table01.jpg,pics/icecube01.jpg,pics/boot02b.jpg,pics/calendar.jpg,pics/stapler03a.jpg,pics/ashtray01.jpg,pics/giraffe.jpg,pics/dromedary.jpg,blankImage,blankImage,humanskull,12,0.4288,0.4969,0.4387,,,,,,,,,,,,,,,,,,,,,,,,,,,,,,,,,,,,,,,,,,,,,,,,,,,,,,,,,,,,,,,,,,,,,,,,,,,,,,,,,,,,,,,,,,,,,,,,,
,,,,,5fa2e56fe794555527f2c8ef,6682b41eeb79ab8215dff63d,6682b5f219f7e4d55acfa83c,24,Female,English,2024-07-01_15h00.54.210,ABmemTask3,2023.2.3,Win32,2.99850075,,,,,,,,,,,,,,,,,,,,,,,,,,,,,,,223.9065,224.7196,224.7197,1,225.159,229.6493,0.0017,230.0767,0.4369,0.5009,0.4339,0.4345,0.4427,0.4359,0.4355,0.4862,0.4564,0.4261,,230.0768,231.3139,left,0.8208,0.0003,231.314,232.19,right,0.467,,10,0,10,232.1901,233.0615,0,4,4,4,1,prac_AB,L1_T1A_T2P,1,0,1,7,8,6,3,11,dog,Did you see the dog,0.21,0,resources/,pics/ball02.jpg,pics/binder03b.jpg,pics/dromedary.jpg,pics/shipinabottle.jpg,pics/proboscismonkey.jpg,pics/laptop01a.jpg,pics/chainsaw.jpg,pics/stapler13.jpg,pics/nutcracker01.jpg,pics/carrot01.jpg,pics/calendar.jpg,blankImage,blankImage,blankImage,blankImage,blankImage,blankImage,saintbernard,7,,,,,,,,,,,,,,,,,,,,,,,,,,,,,,,,,,,,,,,,,,,,,,,,,,,,,,,,,,,,,,,,,,,,,,,,,,,,,,,,,,,,,,,,,,,,,,,,,,,,
,,,,,5fa2e56fe794555527f2c8ef,6682b41eeb79ab8215dff63d,6682b5f219f7e4d55acfa83c,24,Female,English,2024-07-01_15h00.54.210,ABmemTask3,2023.2.3,Win32,2.99850075,,,,,,,,,,,,,,,,,,,,,,,,,,,,,,,233.0622,233.9122,233.9122,1,234.3057,240.8156,0.0022,241.2485,0.4938,0.4424,0.4278,0.5086,0.4444,0.4471,0.4334,0.5024,0.4318,0.5001,0.428,241.2487,242.5308,right,0.842,,242.5309,243.3428,right,0.4159,,12,0,12,243.3428,244.2195,0,5,5,5,1,prac_AB,L5_T1P_T2P,5,1,1,5,10,4,5,15,grater,Did you see the grater,0.2,0,resources/,pics/pencil01.jpg,pics/laptop01a.jpg,pics/hammerheadshark.jpg,pics/cork02.jpg,pics/grater01a.jpg,pics/shipinabottle.jpg,pics/binder03b.jpg,pics/dromedary.jpg,pics/pictureframe04.jpg,pics/stapler04b.jpg,pics/fanblades.jpg,pics/aquarium.jpg,pics/hairdryer02a.jpg,pics/lightswitch01.jpg,pics/piggybank.jpg,blankImage,blankImage,grater01a,11,0.4975,0.4581,0.4926,,,,,,,,,,,,,,,,,,,,,,,,,,,,,,,,,,,,,,,,,,,,,,,,,,,,,,,,,,,,,,,,,,,,,,,,,,,,,,,,,,,,,,,,,,,,,,,,,
,,,,,5fa2e56fe794555527f2c8ef,6682b41eeb79ab8215dff63d,6682b5f219f7e4d55acfa83c,24,Female,English,2024-07-01_15h00.54.210,ABmemTask3,2023.2.3,Win32,2.99850075,,,,,,,,,,,,,,,,,,,,,,,,,,,,,,,244.242,245.0572,245.0572,1,245.4554,248.9976,0.0021,249.4456,0.4391,0.4361,0.4374,0.503,0.4293,0.4342,0.4348,0.4267,,,,249.4457,251.1774,right,1.3358,0.0004,251.1774,252.4718,left,0.8689,0.0004,14,0,14,252.4719,253.3024,0,6,6,6,1,prac_AB,L1_T1P_T2A,1,1,0,4,5,3,4,9,chalk,Did you see the chalk,0.19,0,resources/,pics/necklace.jpg,pics/starfish01.jpg,pics/safetypin.jpg,pics/chalk.jpg,pics/candleholder01.jpg,pics/bowtie.jpg,pics/match.jpg,pics/candle01.jpg,pics/pencilsharpener02a.jpg,blankImage,blankImage,blankImage,blankImage,blankImage,blankImage,blankImage,blankImage,chalk,9,,,,,,,,,,,,,,,,,,,,,,,,,,,,,,,,,,,,,,,,,,,,,,,,,,,,,,,,,,,,,,,,,,,,,,,,,,,,,,,,,,,,,,,,,,,,,,,,,,,,
,,,,,5fa2e56fe794555527f2c8ef,6682b41eeb79ab8215dff63d,6682b5f219f7e4d55acfa83c,24,Female,English,2024-07-01_15h00.54.210,ABmemTask3,2023.2.3,Win32,2.99850075,,,,,,,,,,,,,,,,,,,,,,,,,,,,,,,253.3243,254.1952,254.1953,1,254.595,258.7058,0.0019,259.1585,0.4457,0.4446,0.4412,0.4506,0.4431,0.4985,0.502,0.4576,0.4263,,,259.1587,260.7928,right,1.2525,0.0004,260.7929,261.621,right,0.4187,,16,0,16,261.6212,262.4904,0,7,7,7,1,prac_AB,L1_T1P_T2P,1,1,1,5,6,4,4,10,pants,Did you see the pants,0.18,0,resources/,pics/kangaroo.jpg,pics/safetypin.jpg,pics/salmon.jpg,pics/sandbarshark.jpg,pics/pants.jpg,pics/stapler03a.jpg,pics/sink.jpg,pics/calendar.jpg,pics/butterfly.jpg,pics/fanblades.jpg,blankImage,blankImage,blankImage,blankImage,blankImage,blankImage,blankImage,pants,2,,,,,,,,,,,,,,,,,,,,,,,,,,,,,,,,,,,,,,,,,,,,,,,,,,,,,,,,,,,,,,,,,,,,,,,,,,,,,,,,,,,,,,,,,,,,,,,,,,,,
,,,,,5fa2e56fe794555527f2c8ef,6682b41eeb79ab8215dff63d,6682b5f219f7e4d55acfa83c,24,Female,English,2024-07-01_15h00.54.210,ABmemTask3,2023.2.3,Win32,2.99850075,,,,,,,,,,,,,,,,,,,,,,,,,,,,,,,262.5118,263.3079,263.308,1,263.7151,270.3036,0.0021,270.7468,0.454,0.4906,0.504,0.4868,0.4547,0.4368,0.5099,0.4407,0.4485,0.4948,0.5023,270.7469,272.0325,left,0.8562,,272.0326,273.3556,right,0.8841,,18,0,18,273.3556,274.1681,0,8,8,8,1,prac_AB,L5_T1A_T2P,5,0,1,7,12,6,3,15,shirt,Did you see the shirt,0.17,0,resources/,pics/banjo.jpg,pics/chainsaw.jpg,pics/sailboat.jpg,pics/shipinabottle.jpg,pics/lightswitch01.jpg,pics/starfish01.jpg,pics/hen.jpg,pics/ball02.jpg,pics/bowlingpin.jpg,pics/hammerheadshark.jpg,pics/footballhelmet.jpg,pics/stapler10.jpg,pics/laptop01a.jpg,pics/cannon.jpg,pics/golfball.jpg,blankImage,blankImage,shirt02,13,0.4324,0.4873,0.4437,,,,,,,,,,,,,,,,,,,,,,,,,,,,,,,,,,,,,,,,,,,,,,,,,,,,,,,,,,,,,,,,,,,,,,,,,,,,,,,,,,,,,,,,,,,,,,,,,
,,,,,5fa2e56fe794555527f2c8ef,6682b41eeb79ab8215dff63d,6682b5f219f7e4d55acfa83c,24,Female,English,2024-07-01_15h00.54.210,ABmemTask3,2023.2.3,Win32,2.99850075,,,,,,,,,,,,,,,,,,,,,,,,,,,,,,,274.1893,275.0648,275.0648,0,275.4682,275.4843,0.0019,275.4857,0.0014,0.0014,0.0009,0.0015,0.0011,0.0029,0.0013,0.0012,0.0017,0.0011,,275.4858,277.6478,left,1.7171,,277.648,279.3709,left,1.3384,0.0004,16,0,20,279.3709,280.3283,0,9,9,9,1,prac_AB,L1_T1P_T2P,1,1,1,7,8,6,3,11,tongs,Did you see the tongs,0.16,0,resources/,pics/sewingmachine01a.jpg,pics/shovel01.jpg,pics/football.jpg,pics/hen.jpg,pics/banjo.jpg,pics/zebra.jpg,pics/tongs01b.jpg,pics/stapler11.jpg,pics/shipinabottle.jpg,pics/match.jpg,pics/candle01.jpg,blankImage,blankImage,blankImage,blankImage,blankImage,blankImage,tongs01b,5,,,,,,,,,,,,,,,,,,,,,,,,,,,,,,,,,,,,,,,,,,,,,,,,,,,,,,,,,,,,,,,,,,,,,,,,,,,,,,,,,,,,,,,,,,,,,,,,,,,,
,,,,,5fa2e56fe794555527f2c8ef,6682b41eeb79ab8215dff63d,6682b5f219f7e4d55acfa83c,24,Female,English,2024-07-01_15h00.54.210,ABmemTask3,2023.2.3,Win32,2.99850075,,,,,,,,,,,,,,,,,,,,,,,,,,,,,,,280.3504,281.3575,281.3575,0,281.8725,281.8912,0.0024,281.8931,0.0016,0.0013,0.0012,0.0016,0.0013,0.0013,0.0013,0.0012,0.0013,0.002,0.0029,281.8933,282.3923,left,0.0135,,282.3924,283.8219,left,0.9592,,18,0,22,283.822,284.6892,0,10,10,10,1,prac_AB,L1_T1A_T2A,1,0,0,7,8,6,4,12,camera,Did you see the camera,0.15,0,resources/,pics/lightswitch01.jpg,pics/table01.jpg,pics/aquarium.jpg,pics/boot02b.jpg,pics/butterfly.jpg,pics/chainsaw.jpg,pics/binoculars01b.jpg,pics/giraffe.jpg,pics/triangle.jpg,pics/microscope.jpg,pics/mummy.jpg,pics/icecube01.jpg,blankImage,blankImage,blankImage,blankImage,blankImage,camera01a,10,,,,,,,,,,,,,,,,,,,,,,,,,,,,,,,,,,,,,,,,,,,,,,,,,,,,,,,,,,,,,,,,,,,,,,,,,,,,,,,,,,,,,,,,,,,,,,,,,,,,
,,,,,5fa2e56fe794555527f2c8ef,6682b41eeb79ab8215dff63d,6682b5f219f7e4d55acfa83c,24,Female,English,2024-07-01_15h00.54.210,ABmemTask3,2023.2.3,Win32,2.99850075,,,,,,,,,,,,,,,,,,,,,,,,,,,,,,,284.6901,285.4894,285.4895,0,285.9289,285.9421,0.002,285.9432,0.0012,0.0009,0.0014,0.0012,0.0015,0.0015,0.0013,0.0015,0.001,,,285.9435,286.7492,left,0.4275,0.0004,286.7493,288.0354,left,0.8936,0.0003,16,0,24,288.0356,288.9013,0,11,11,11,1,prac_AB,L1_T1P_T2P,1,1,1,6,7,5,3,10,shorts,Did you see the shorts,0.14,0,resources/,pics/snowshoe.jpg,pics/chainsaw.jpg,pics/sailboat.jpg,pics/ball02.jpg,pics/candleholder01.jpg,pics/shorts01.jpg,pics/stapler07.jpg,pics/peach01.jpg,pics/proboscismonkey.jpg,pics/hen.jpg,blankImage,blankImage,blankImage,blankImage,blankImage,blankImage,blankImage,shorts01,4,,,,,,,,,,,,,,,,,,,,,,,,,,,,,,,,,,,,,,,,,,,,,,,,,,,,,,,,,,,,,,,,,,,,,,,,,,,,,,,,,,,,,,,,,,,,,,,,,,,,
,,,,,5fa2e56fe794555527f2c8ef,6682b41eeb79ab8215dff63d,6682b5f219f7e4d55acfa83c,24,Female,English,2024-07-01_15h00.54.210,ABmemTask3,2023.2.3,Win32,2.99850075,,,,,,,,,,,,,,,,,,,,,,,,,,,,,,,288.902,289.7596,289.7596,0,290.2141,290.234,0.0025,290.2347,0.0016,0.0014,0.0013,0.0013,0.0014,0.0012,0.0013,0.0017,0.0016,0.0012,0.0018,290.2347,291.575,right,0.8986,0.0004,291.5751,292.7951,right,0.8314,0.0006,14,0,26,292.7952,293.66,0,12,12,12,1,prac_AB,L5_T1P_T2A,5,1,0,5,10,4,3,13,fish,Did you see the fish,0.13,0,resources/,pics/football.jpg,pics/safetypin.jpg,pics/shovel01.jpg,pics/sink.jpg,pics/holdfast.jpg,pics/nutcracker01.jpg,pics/starfish01.jpg,pics/onion.jpg,pics/footballhelmet.jpg,pics/boot02b.jpg,pics/sewingmachine01a.jpg,pics/kangaroo.jpg,pics/banjo.jpg,blankImage,blankImage,blankImage,blankImage,holdfast,14,0.0017,,,,,,,,,,,,,,,,,,,,,,,,,,,,,,,,,,,,,,,,,,,,,,,,,,,,,,,,,,,,,,,,,,,,,,,,,,,,,,,,,,,,,,,,,,,,,,,,,,,
,,,,,5fa2e56fe794555527f2c8ef,6682b41eeb79ab8215dff63d,6682b5f219f7e4d55acfa83c,24,Female,English,2024-07-01_15h00.54.210,ABmemTask3,2023.2.3,Win32,2.99850075,,,,,,,,,,,,,,,,,,,,,,,,,,,,,,,293.661,294.5618,294.5618,0,294.9589,294.972,0.0018,294.9733,0.0011,0.0015,0.0013,0.0013,0.0012,0.0011,0.001,0.0016,0.0017,,,294.9734,296.6646,right,1.2895,0.0004,296.6647,297.4749,right,0.4121,,16,0,28,297.475,298.3481,0,13,13,13,1,prac_AB,L1_T1P_T2P,1,1,1,5,6,4,4,10,fish,Did you see the fish,0.12,0,resources/,pics/butterfly.jpg,pics/banjo.jpg,pics/leaf02a.jpg,pics/dustpan.jpg,pics/sturgeon.jpg,pics/stapler02.jpg,pics/necklace.jpg,pics/shovel01.jpg,pics/starfish01.jpg,pics/chainsaw.jpg,blankImage,blankImage,blankImage,blankImage,blankImage,blankImage,blankImage,sturgeon,3,,,,,,,,,,,,,,,,,,,,,,,,,,,,,,,,,,,,,,,,,,,,,,,,,,,,,,,,,,,,,,,,,,,,,,,,,,,,,,,,,,,,,,,,,,,,,,,,,,,,
,,,,,5fa2e56fe794555527f2c8ef,6682b41eeb79ab8215dff63d,6682b5f219f7e4d55acfa83c,24,Female,English,2024-07-01_15h00.54.210,ABmemTask3,2023.2.3,Win32,2.99850075,,,,,,,,,,,,,,,,,,,,,,,,,,,,,,,,,,,,,,,,,,,,,,,,,,,,,,,,,,,,,,,,,,,,,,,,,,,,,,,,,,,,,,,,,,,,,,,,,,,,,,,,,,,298.3483,304.2157,space,5.3136,0.0008,,,,,,,,,,,,,,,,,,,,,,,,,,,,,,,,,,,,,,,,,,,,,,,,,,,,,,,,,,,,,,,,,,,,,,,,,,,,,,,,,,,,,,,,,,,,
,,,,,5fa2e56fe794555527f2c8ef,6682b41eeb79ab8215dff63d,6682b5f219f7e4d55acfa83c,24,Female,English,2024-07-01_15h00.54.210,ABmemTask3,2023.2.3,Win32,2.99850075,,,,,,,,,,,,,,,,,,,,,,,,,,,,,,,304.2408,305.0891,305.0892,1,305.5195,310.6847,0.0013,311.1543,0.4421,0.4681,0.4766,0.4877,0.4448,0.4594,0.4819,0.4471,0.5047,0.459,0.4934,311.1544,313.0986,right,1.5273,0.0009,313.0987,313.9093,right,0.445,0.0007,-2,0,2,313.9095,314.7869,0,0,0,0,1,prac_AB,L1_T1P_T2A,1,1,0,6,7,5,5,12,cat,Did you see the cat,0.25,0,resources/,pics/shipinabottle.jpg,pics/table01.jpg,pics/dustpan.jpg,pics/golfball.jpg,pics/giraffe.jpg,pics/cat.jpg,pics/peanut01.jpg,pics/pictureframe04.jpg,pics/fanblades.jpg,pics/laptop01a.jpg,pics/ball02.jpg,pics/blender.jpg,blankImage,blankImage,blankImage,blankImage,blankImage,cat,8,,,,,,,,,,,,,,,,,,,,,,,,,,,,,,,,,,,,,,,,,,,,,,,,,,,,,,,,,,,,,,,,,,,,,,,,,,,,,,,,,,,,,,,,,,,,,,,,,,,,
,,,,,5fa2e56fe794555527f2c8ef,6682b41eeb79ab8215dff63d,6682b5f219f7e4d55acfa83c,24,Female,English,2024-07-01_15h00.54.210,ABmemTask3,2023.2.3,Win32,2.99850075,,,,,,,,,,,,,,,,,,,,,,,,,,,,,,,314.8069,315.6687,315.6688,1,316.1008,320.4065,0.0017,320.8556,0.5101,0.5063,0.5183,0.4722,0.4541,0.4536,0.426,0.4792,0.4848,,,320.8556,322.4748,right,1.2242,,322.475,323.3388,right,0.4157,,0,0,4,323.3388,324.185,0,1,1,1,1,prac_AB,L1_T1P_T2P,1,1,1,5,6,4,4,10,tree,Did you see the tree,0.24,0,resources/,pics/carrot01.jpg,pics/hammerheadshark.jpg,pics/kangaroo.jpg,pics/proboscismonkey.jpg,pics/tree.jpg,pics/stapler07.jpg,pics/siamesecat.jpg,pics/ball02.jpg,pics/pictureframe04.jpg,pics/mummy.jpg,blankImage,blankImage,blankImage,blankImage,blankImage,blankImage,blankImage,tree,1,,,,,,,,,,,,,,,,,,,,,,,,,,,,,,,,,,,,,,,,,,,,,,,,,,,,,,,,,,,,,,,,,,,,,,,,,,,,,,,,,,,,,,,,,,,,,,,,,,,,
,,,,,5fa2e56fe794555527f2c8ef,6682b41eeb79ab8215dff63d,6682b5f219f7e4d55acfa83c,24,Female,English,2024-07-01_15h00.54.210,ABmemTask3,2023.2.3,Win32,2.99850075,,,,,,,,,,,,,,,,,,,,,,,,,,,,,,,324.1857,324.9779,324.9779,1,325.4171,330.4513,0.0019,330.8997,0.4857,0.4333,0.4454,0.4317,0.4374,0.4911,0.4305,0.4915,0.4333,0.5123,0.4404,330.8998,332.231,left,0.9172,0.0003,332.2311,333.5144,right,0.8439,0.0004,2,0,6,333.5145,334.395,0,2,2,2,1,prac_AB,L1_T1A_T2P,1,0,1,7,8,6,4,12,grapes,Did you see the grapes,0.23,0,resources/,pics/sailboat.jpg,pics/butterfly.jpg,pics/giraffe.jpg,pics/spoon01.jpg,pics/hose.jpg,pics/nutcracker01.jpg,pics/table01.jpg,pics/stapler13.jpg,pics/pencil01.jpg,pics/football.jpg,pics/triangle.jpg,pics/hairdryer02a.jpg,blankImage,blankImage,blankImage,blankImage,blankImage,grape01,6,,,,,,,,,,,,,,,,,,,,,,,,,,,,,,,,,,,,,,,,,,,,,,,,,,,,,,,,,,,,,,,,,,,,,,,,,,,,,,,,,,,,,,,,,,,,,,,,,,,,
,,,,,5fa2e56fe794555527f2c8ef,6682b41eeb79ab8215dff63d,6682b5f219f7e4d55acfa83c,24,Female,English,2024-07-01_15h00.54.210,ABmemTask3,2023.2.3,Win32,2.99850075,,,,,,,,,,,,,,,,,,,,,,,,,,,,,,,334.3958,335.2679,335.268,1,335.667,342.0839,0.002,342.5167,0.4912,0.549,0.4419,0.4441,0.4417,0.4432,0.4536,0.4298,0.4471,0.4344,0.4911,342.5168,343.7748,right,0.8299,0.0005,343.7749,344.696,right,0.489,,4,0,8,344.6961,345.5804,0,3,3,3,1,prac_AB,L5_T1P_T2P,5,1,1,7,12,6,3,15,Human skull,Did you see the Human skull,0.22,0,resources/,pics/peach01.jpg,pics/proboscismonkey.jpg,pics/hose.jpg,pics/laptop01a.jpg,pics/hammerheadshark.jpg,pics/nutcracker01.jpg,pics/humanskull.jpg,pics/table01.jpg,pics/icecube01.jpg,pics/boot02b.jpg,pics/calendar.jpg,pics/stapler03a.jpg,pics/ashtray01.jpg,pics/giraffe.jpg,pics/dromedary.jpg,blankImage,blankImage,humanskull,12,0.4691,0.438,0.4412,,,,,,,,,,,,,,,,,,,,,,,,,,,,,,,,,,,,,,,,,,,,,,,,,,,,,,,,,,,,,,,,,,,,,,,,,,,,,,,,,,,,,,,,,,,,,,,,,
,,,,,5fa2e56fe794555527f2c8ef,6682b41eeb79ab8215dff63d,6682b5f219f7e4d55acfa83c,24,Female,English,2024-07-01_15h00.54.210,ABmemTask3,2023.2.3,Win32,2.99850075,,,,,,,,,,,,,,,,,,,,,,,,,,,,,,,345.5812,346.4301,346.4302,1,346.8354,351.5046,0.0017,351.9585,0.4662,0.4518,0.4889,0.4785,0.4459,0.4534,0.4584,0.5026,0.4755,0.4467,,351.9586,353.5924,left,1.2529,0.0004,353.5925,356.7112,left,2.7144,0.0005,4,0,10,356.7113,357.5752,0,4,4,4,1,prac_AB,L1_T1A_T2P,1,0,1,7,8,6,3,11,dog,Did you see the dog,0.21,0,resources/,pics/ball02.jpg,pics/binder03b.jpg,pics/dromedary.jpg,pics/shipinabottle.jpg,pics/proboscismonkey.jpg,pics/laptop01a.jpg,pics/chainsaw.jpg,pics/stapler13.jpg,pics/nutcracker01.jpg,pics/carrot01.jpg,pics/calendar.jpg,blankImage,blankImage,blankImage,blankImage,blankImage,blankImage,saintbernard,7,,,,,,,,,,,,,,,,,,,,,,,,,,,,,,,,,,,,,,,,,,,,,,,,,,,,,,,,,,,,,,,,,,,,,,,,,,,,,,,,,,,,,,,,,,,,,,,,,,,,
,,,,,5fa2e56fe794555527f2c8ef,6682b41eeb79ab8215dff63d,6682b5f219f7e4d55acfa83c,24,Female,English,2024-07-01_15h00.54.210,ABmemTask3,2023.2.3,Win32,2.99850075,,,,,,,,,,,,,,,,,,,,,,,,,,,,,,,357.5993,358.5097,358.5098,1,358.9365,365.2054,0.0019,365.6736,0.4361,0.4295,0.4347,0.4896,0.4315,0.4559,0.4277,0.4346,0.4458,0.4308,0.4327,365.6737,367.2811,right,1.2245,0.0005,367.2812,368.4778,right,0.8151,0.0009,6,0,12,368.4778,369.3036,0,5,5,5,1,prac_AB,L5_T1P_T2P,5,1,1,5,10,4,5,15,grater,Did you see the grater,0.2,0,resources/,pics/pencil01.jpg,pics/laptop01a.jpg,pics/hammerheadshark.jpg,pics/cork02.jpg,pics/grater01a.jpg,pics/shipinabottle.jpg,pics/binder03b.jpg,pics/dromedary.jpg,pics/pictureframe04.jpg,pics/stapler04b.jpg,pics/fanblades.jpg,pics/aquarium.jpg,pics/hairdryer02a.jpg,pics/lightswitch01.jpg,pics/piggybank.jpg,blankImage,blankImage,grater01a,11,0.4271,0.4926,0.4987,,,,,,,,,,,,,,,,,,,,,,,,,,,,,,,,,,,,,,,,,,,,,,,,,,,,,,,,,,,,,,,,,,,,,,,,,,,,,,,,,,,,,,,,,,,,,,,,,
,,,,,5fa2e56fe794555527f2c8ef,6682b41eeb79ab8215dff63d,6682b5f219f7e4d55acfa83c,24,Female,English,2024-07-01_15h00.54.210,ABmemTask3,2023.2.3,Win32,2.99850075,,,,,,,,,,,,,,,,,,,,,,,,,,,,,,,369.3044,370.1342,370.1343,1,370.5412,374.1967,0.0022,374.6309,0.4439,0.4692,0.4467,0.4907,0.4481,0.4558,0.4524,0.4467,,,,374.631,375.9174,right,0.8832,0.0002,375.9175,377.1031,left,0.7997,0.0004,8,0,14,377.1033,377.9195,0,6,6,6,1,prac_AB,L1_T1P_T2A,1,1,0,4,5,3,4,9,chalk,Did you see the chalk,0.19,0,resources/,pics/necklace.jpg,pics/starfish01.jpg,pics/safetypin.jpg,pics/chalk.jpg,pics/candleholder01.jpg,pics/bowtie.jpg,pics/match.jpg,pics/candle01.jpg,pics/pencilsharpener02a.jpg,blankImage,blankImage,blankImage,blankImage,blankImage,blankImage,blankImage,blankImage,chalk,9,,,,,,,,,,,,,,,,,,,,,,,,,,,,,,,,,,,,,,,,,,,,,,,,,,,,,,,,,,,,,,,,,,,,,,,,,,,,,,,,,,,,,,,,,,,,,,,,,,,,
,,,,,5fa2e56fe794555527f2c8ef,6682b41eeb79ab8215dff63d,6682b5f219f7e4d55acfa83c,24,Female,English,2024-07-01_15h00.54.210,ABmemTask3,2023.2.3,Win32,2.99850075,,,,,,,,,,,,,,,,,,,,,,,,,,,,,,,377.938,378.7733,378.7734,1,379.1722,383.1366,0.0017,383.5597,0.4398,0.4289,0.4738,0.4597,0.4268,0.4393,0.4343,0.426,0.4344,,,383.5597,385.1597,right,1.2109,0.0003,385.1599,385.9646,right,0.4111,,10,0,16,385.9647,386.7733,0,7,7,7,1,prac_AB,L1_T1P_T2P,1,1,1,5,6,4,4,10,pants,Did you see the pants,0.18,0,resources/,pics/kangaroo.jpg,pics/safetypin.jpg,pics/salmon.jpg,pics/sandbarshark.jpg,pics/pants.jpg,pics/stapler03a.jpg,pics/sink.jpg,pics/calendar.jpg,pics/butterfly.jpg,pics/fanblades.jpg,blankImage,blankImage,blankImage,blankImage,blankImage,blankImage,blankImage,pants,2,,,,,,,,,,,,,,,,,,,,,,,,,,,,,,,,,,,,,,,,,,,,,,,,,,,,,,,,,,,,,,,,,,,,,,,,,,,,,,,,,,,,,,,,,,,,,,,,,,,,
,,,,,5fa2e56fe794555527f2c8ef,6682b41eeb79ab8215dff63d,6682b5f219f7e4d55acfa83c,24,Female,English,2024-07-01_15h00.54.210,ABmemTask3,2023.2.3,Win32,2.99850075,,,,,,,,,,,,,,,,,,,,,,,,,,,,,,,386.7741,387.576,387.576,1,387.982,394.1868,0.0018,394.6183,0.4473,0.4379,0.4651,0.4347,0.4403,0.4405,0.4527,0.4363,0.4632,0.4249,0.4671,394.6184,396.6163,left,1.6137,,396.6164,397.8267,left,0.8293,0.0003,10,0,18,397.8268,398.6137,0,8,8,8,1,prac_AB,L5_T1A_T2P,5,0,1,7,12,6,3,15,shirt,Did you see the shirt,0.17,0,resources/,pics/banjo.jpg,pics/chainsaw.jpg,pics/sailboat.jpg,pics/shipinabottle.jpg,pics/lightswitch01.jpg,pics/starfish01.jpg,pics/hen.jpg,pics/ball02.jpg,pics/bowlingpin.jpg,pics/hammerheadshark.jpg,pics/footballhelmet.jpg,pics/stapler10.jpg,pics/laptop01a.jpg,pics/cannon.jpg,pics/golfball.jpg,blankImage,blankImage,shirt02,13,0.4272,0.4332,0.4329,,,,,,,,,,,,,,,,,,,,,,,,,,,,,,,,,,,,,,,,,,,,,,,,,,,,,,,,,,,,,,,,,,,,,,,,,,,,,,,,,,,,,,,,,,,,,,,,,
,,,,,5fa2e56fe794555527f2c8ef,6682b41eeb79ab8215dff63d,6682b5f219f7e4d55acfa83c,24,Female,English,2024-07-01_15h00.54.210,ABmemTask3,2023.2.3,Win32,2.99850075,,,,,,,,,,,,,,,,,,,,,,,,,,,,,,,398.6301,399.4042,399.4042,0,399.8036,399.8184,0.0019,399.8196,0.0013,0.0012,0.0012,0.0009,0.002,0.0016,0.0016,0.0011,0.0011,0.0014,,399.8198,401.4079,left,1.1927,,401.4079,402.2124,left,0.4076,,8,0,20,402.2125,403.0038,0,9,9,9,1,prac_AB,L1_T1P_T2P,1,1,1,7,8,6,3,11,tongs,Did you see the tongs,0.16,0,resources/,pics/sewingmachine01a.jpg,pics/shovel01.jpg,pics/football.jpg,pics/hen.jpg,pics/banjo.jpg,pics/zebra.jpg,pics/tongs01b.jpg,pics/stapler11.jpg,pics/shipinabottle.jpg,pics/match.jpg,pics/candle01.jpg,blankImage,blankImage,blankImage,blankImage,blankImage,blankImage,tongs01b,5,,,,,,,,,,,,,,,,,,,,,,,,,,,,,,,,,,,,,,,,,,,,,,,,,,,,,,,,,,,,,,,,,,,,,,,,,,,,,,,,,,,,,,,,,,,,,,,,,,,,
,,,,,5fa2e56fe794555527f2c8ef,6682b41eeb79ab8215dff63d,6682b5f219f7e4d55acfa83c,24,Female,English,2024-07-01_15h00.54.210,ABmemTask3,2023.2.3,Win32,2.99850075,,,,,,,,,,,,,,,,,,,,,,,,,,,,,,,403.0046,403.7891,403.7891,0,404.1908,404.2044,0.0018,404.2053,0.0011,0.0008,0.0009,0.0011,0.0008,0.0009,0.0008,0.0011,0.0016,0.0016,0.0013,404.2053,405.3897,left,0.8047,0.0003,405.3899,405.8123,left,0.0122,,10,0,22,405.8124,406.6077,0,10,10,10,1,prac_AB,L1_T1A_T2A,1,0,0,7,8,6,4,12,camera,Did you see the camera,0.15,0,resources/,pics/lightswitch01.jpg,pics/table01.jpg,pics/aquarium.jpg,pics/boot02b.jpg,pics/butterfly.jpg,pics/chainsaw.jpg,pics/binoculars01b.jpg,pics/giraffe.jpg,pics/triangle.jpg,pics/microscope.jpg,pics/mummy.jpg,pics/icecube01.jpg,blankImage,blankImage,blankImage,blankImage,blankImage,camera01a,10,,,,,,,,,,,,,,,,,,,,,,,,,,,,,,,,,,,,,,,,,,,,,,,,,,,,,,,,,,,,,,,,,,,,,,,,,,,,,,,,,,,,,,,,,,,,,,,,,,,,
,,,,,5fa2e56fe794555527f2c8ef,6682b41eeb79ab8215dff63d,6682b5f219f7e4d55acfa83c,24,Female,English,2024-07-01_15h00.54.210,ABmemTask3,2023.2.3,Win32,2.99850075,,,,,,,,,,,,,,,,,,,,,,,,,,,,,,,406.6082,407.4319,407.432,0,407.8227,407.833,0.0019,407.8337,0.0009,0.0011,0.0009,0.0013,0.001,0.0008,0.0008,0.0009,0.0009,,,407.8337,409.0485,left,0.8424,0.0003,409.0485,409.434,left,0.0121,,8,0,24,409.4341,410.2755,0,11,11,11,1,prac_AB,L1_T1P_T2P,1,1,1,6,7,5,3,10,shorts,Did you see the shorts,0.14,0,resources/,pics/snowshoe.jpg,pics/chainsaw.jpg,pics/sailboat.jpg,pics/ball02.jpg,pics/candleholder01.jpg,pics/shorts01.jpg,pics/stapler07.jpg,pics/peach01.jpg,pics/proboscismonkey.jpg,pics/hen.jpg,blankImage,blankImage,blankImage,blankImage,blankImage,blankImage,blankImage,shorts01,4,,,,,,,,,,,,,,,,,,,,,,,,,,,,,,,,,,,,,,,,,,,,,,,,,,,,,,,,,,,,,,,,,,,,,,,,,,,,,,,,,,,,,,,,,,,,,,,,,,,,
,,,,,5fa2e56fe794555527f2c8ef,6682b41eeb79ab8215dff63d,6682b5f219f7e4d55acfa83c,24,Female,English,2024-07-01_15h00.54.210,ABmemTask3,2023.2.3,Win32,2.99850075,,,,,,,,,,,,,,,,,,,,,,,,,,,,,,,410.2761,411.0463,411.0463,0,411.4322,411.4473,0.002,411.4478,0.0012,0.0009,0.001,0.0009,0.002,0.0012,0.0012,0.0008,0.0012,0.001,0.0009,411.4479,412.6223,left,0.8006,0.0004,412.6224,413.0286,left,0.0115,,8,0,26,413.0287,413.8209,0,12,12,12,1,prac_AB,L5_T1P_T2A,5,1,0,5,10,4,3,13,fish,Did you see the fish,0.13,0,resources/,pics/football.jpg,pics/safetypin.jpg,pics/shovel01.jpg,pics/sink.jpg,pics/holdfast.jpg,pics/nutcracker01.jpg,pics/starfish01.jpg,pics/onion.jpg,pics/footballhelmet.jpg,pics/boot02b.jpg,pics/sewingmachine01a.jpg,pics/kangaroo.jpg,pics/banjo.jpg,blankImage,blankImage,blankImage,blankImage,holdfast,14,0.001,,,,,,,,,,,,,,,,,,,,,,,,,,,,,,,,,,,,,,,,,,,,,,,,,,,,,,,,,,,,,,,,,,,,,,,,,,,,,,,,,,,,,,,,,,,,,,,,,,,
,,,,,5fa2e56fe794555527f2c8ef,6682b41eeb79ab8215dff63d,6682b5f219f7e4d55acfa83c,24,Female,English,2024-07-01_15h00.54.210,ABmemTask3,2023.2.3,Win32,2.99850075,,,,,,,,,,,,,,,,,,,,,,,,,,,,,,,413.8216,414.6889,414.6889,0,415.1164,415.126,0.0016,415.1266,0.001,0.0011,0.0008,0.0008,0.0009,0.0009,0.0008,0.0011,0.0006,,,415.1266,416.3479,left,0.8009,,416.3481,417.1651,left,0.3962,0.0003,6,0,28,417.1652,417.9923,0,13,13,13,1,prac_AB,L1_T1P_T2P,1,1,1,5,6,4,4,10,fish,Did you see the fish,0.12,0,resources/,pics/butterfly.jpg,pics/banjo.jpg,pics/leaf02a.jpg,pics/dustpan.jpg,pics/sturgeon.jpg,pics/stapler02.jpg,pics/necklace.jpg,pics/shovel01.jpg,pics/starfish01.jpg,pics/chainsaw.jpg,blankImage,blankImage,blankImage,blankImage,blankImage,blankImage,blankImage,sturgeon,3,,,,,,,,,,,,,,,,,,,,,,,,,,,,,,,,,,,,,,,,,,,,,,,,,,,,,,,,,,,,,,,,,,,,,,,,,,,,,,,,,,,,,,,,,,,,,,,,,,,,
,,,,,5fa2e56fe794555527f2c8ef,6682b41eeb79ab8215dff63d,6682b5f219f7e4d55acfa83c,24,Female,English,2024-07-01_15h00.54.210,ABmemTask3,2023.2.3,Win32,2.99850075,,,,,,,,,,,,,,,,,,,,,,,,,,,,,,,,,,,,,,,,,,,,,,,,,,,,,,,,,,,,,,,,,,,,,,,,,,,,,,,,,,,,,,,,,,,,,,,,,,,,,,,,,,,417.9925,422.8387,space,4.3677,0.0007,,,,,,,,,,,,,,,,,,,,,,,,,,,,,,,,,,,,,,,,,,,,,,,,,,,,,,,,,,,,,,,,,,,,,,,,,,,,,,,,,,,,,,,,,,,,
,,,,,5fa2e56fe794555527f2c8ef,6682b41eeb79ab8215dff63d,6682b5f219f7e4d55acfa83c,24,Female,English,2024-07-01_15h00.54.210,ABmemTask3,2023.2.3,Win32,2.99850075,,,,,,,,,,,,,,,,,,,,,,,,,,,,,,,422.8601,423.7219,423.7219,1,424.1139,429.0054,0.0023,429.4287,0.4658,0.4366,0.44,0.4408,0.4746,0.4283,0.4347,0.471,0.4324,0.4416,0.4235,429.4288,430.6754,right,0.8399,0.0005,430.6755,431.4588,left,0.4015,,2,0,2,431.4589,432.2801,0,0,0,0,1,prac_AB,L1_T1P_T2A,1,1,0,6,7,5,5,12,cat,Did you see the cat,0.25,0,resources/,pics/shipinabottle.jpg,pics/table01.jpg,pics/dustpan.jpg,pics/golfball.jpg,pics/giraffe.jpg,pics/cat.jpg,pics/peanut01.jpg,pics/pictureframe04.jpg,pics/fanblades.jpg,pics/laptop01a.jpg,pics/ball02.jpg,pics/blender.jpg,blankImage,blankImage,blankImage,blankImage,blankImage,cat,8,,,,,,,,,,,,,,,,,,,,,,,,,,,,,,,,,,,,,,,,,,,,,,,,,,,,,,,,,,,,,,,,,,,,,,,,,,,,,,,,,,,,,,,,,,,,,,,,,,,,
,,,,,5fa2e56fe794555527f2c8ef,6682b41eeb79ab8215dff63d,6682b5f219f7e4d55acfa83c,24,Female,English,2024-07-01_15h00.54.210,ABmemTask3,2023.2.3,Win32,2.99850075,,,,,,,,,,,,,,,,,,,,,,,,,,,,,,,432.281,433.0648,433.0649,1,433.4633,437.5314,0.0018,437.979,0.5976,0.4189,0.427,0.4248,0.4303,0.4681,0.4316,0.4385,0.4297,,,437.9792,439.2073,right,0.8041,0.0003,439.2074,439.9801,left,0.3996,,2,0,4,439.9802,440.797,0,1,1,1,1,prac_AB,L1_T1P_T2P,1,1,1,5,6,4,4,10,tree,Did you see the tree,0.24,0,resources/,pics/carrot01.jpg,pics/hammerheadshark.jpg,pics/kangaroo.jpg,pics/proboscismonkey.jpg,pics/tree.jpg,pics/stapler07.jpg,pics/siamesecat.jpg,pics/ball02.jpg,pics/pictureframe04.jpg,pics/mummy.jpg,blankImage,blankImage,blankImage,blankImage,blankImage,blankImage,blankImage,tree,1,,,,,,,,,,,,,,,,,,,,,,,,,,,,,,,,,,,,,,,,,,,,,,,,,,,,,,,,,,,,,,,,,,,,,,,,,,,,,,,,,,,,,,,,,,,,,,,,,,,,
,,,,,5fa2e56fe794555527f2c8ef,6682b41eeb79ab8215dff63d,6682b5f219f7e4d55acfa83c,24,Female,English,2024-07-01_15h00.54.210,ABmemTask3,2023.2.3,Win32,2.99850075,,,,,,,,,,,,,,,,,,,,,,,,,,,,,,,440.7976,441.6034,441.6034,1,441.9965,446.6936,0.0012,447.1337,0.4371,0.4311,0.4213,0.4225,0.4212,0.4238,0.4255,0.4241,0.4259,0.4321,0.4313,447.1338,448.351,left,0.8289,,448.3512,449.1706,left,0.4213,,2,0,6,449.1708,450.0097,0,2,2,2,1,prac_AB,L1_T1A_T2P,1,0,1,7,8,6,4,12,grapes,Did you see the grapes,0.23,0,resources/,pics/sailboat.jpg,pics/butterfly.jpg,pics/giraffe.jpg,pics/spoon01.jpg,pics/hose.jpg,pics/nutcracker01.jpg,pics/table01.jpg,pics/stapler13.jpg,pics/pencil01.jpg,pics/football.jpg,pics/triangle.jpg,pics/hairdryer02a.jpg,blankImage,blankImage,blankImage,blankImage,blankImage,grape01,6,,,,,,,,,,,,,,,,,,,,,,,,,,,,,,,,,,,,,,,,,,,,,,,,,,,,,,,,,,,,,,,,,,,,,,,,,,,,,,,,,,,,,,,,,,,,,,,,,,,,
,,,,,5fa2e56fe794555527f2c8ef,6682b41eeb79ab8215dff63d,6682b5f219f7e4d55acfa83c,24,Female,English,2024-07-01_15h00.54.210,ABmemTask3,2023.2.3,Win32,2.99850075,,,,,,,,,,,,,,,,,,,,,,,,,,,,,,,450.0264,450.8297,450.8299,1,451.2212,457.3081,0.0017,457.7413,0.4296,0.4345,0.4272,0.4352,0.4329,0.451,0.4465,0.4238,0.4247,0.4243,0.4514,457.7414,459.7297,right,1.5996,0.0003,459.7298,460.5189,right,0.3981,,4,0,8,460.519,461.308,0,3,3,3,1,prac_AB,L5_T1P_T2P,5,1,1,7,12,6,3,15,Human skull,Did you see the Human skull,0.22,0,resources/,pics/peach01.jpg,pics/proboscismonkey.jpg,pics/hose.jpg,pics/laptop01a.jpg,pics/hammerheadshark.jpg,pics/nutcracker01.jpg,pics/humanskull.jpg,pics/table01.jpg,pics/icecube01.jpg,pics/boot02b.jpg,pics/calendar.jpg,pics/stapler03a.jpg,pics/ashtray01.jpg,pics/giraffe.jpg,pics/dromedary.jpg,blankImage,blankImage,humanskull,12,0.4313,0.4508,0.4224,,,,,,,,,,,,,,,,,,,,,,,,,,,,,,,,,,,,,,,,,,,,,,,,,,,,,,,,,,,,,,,,,,,,,,,,,,,,,,,,,,,,,,,,,,,,,,,,,
,,,,,5fa2e56fe794555527f2c8ef,6682b41eeb79ab8215dff63d,6682b5f219f7e4d55acfa83c,24,Female,English,2024-07-01_15h00.54.210,ABmemTask3,2023.2.3,Win32,2.99850075,,,,,,,,,,,,,,,,,,,,,,,,,,,,,,,461.3248,462.1463,462.1464,1,462.547,467.2027,0.0015,467.6672,0.4182,0.4187,0.4632,0.823,0.3963,0.4126,0.4174,0.413,0.4265,0.4656,,467.6673,468.8264,left,0.7758,,468.8266,469.6174,left,0.4043,,4,0,10,469.6175,470.4445,0,4,4,4,1,prac_AB,L1_T1A_T2P,1,0,1,7,8,6,3,11,dog,Did you see the dog,0.21,0,resources/,pics/ball02.jpg,pics/binder03b.jpg,pics/dromedary.jpg,pics/shipinabottle.jpg,pics/proboscismonkey.jpg,pics/laptop01a.jpg,pics/chainsaw.jpg,pics/stapler13.jpg,pics/nutcracker01.jpg,pics/carrot01.jpg,pics/calendar.jpg,blankImage,blankImage,blankImage,blankImage,blankImage,blankImage,saintbernard,7,,,,,,,,,,,,,,,,,,,,,,,,,,,,,,,,,,,,,,,,,,,,,,,,,,,,,,,,,,,,,,,,,,,,,,,,,,,,,,,,,,,,,,,,,,,,,,,,,,,,
,,,,,5fa2e56fe794555527f2c8ef,6682b41eeb79ab8215dff63d,6682b5f219f7e4d55acfa83c,24,Female,English,2024-07-01_15h00.54.210,ABmemTask3,2023.2.3,Win32,2.99850075,,,,,,,,,,,,,,,,,,,,,,,,,,,,,,,470.445,471.2548,471.2549,1,471.6464,477.7697,0.0018,478.1948,0.4431,0.4595,0.4205,0.4225,0.4189,0.4313,0.4276,0.4364,0.4202,0.4242,0.438,478.1949,480.1621,right,1.581,,480.1622,481.7394,left,1.1984,0.0003,4,0,12,481.7394,482.5233,0,5,5,5,1,prac_AB,L5_T1P_T2P,5,1,1,5,10,4,5,15,grater,Did you see the grater,0.2,0,resources/,pics/pencil01.jpg,pics/laptop01a.jpg,pics/hammerheadshark.jpg,pics/cork02.jpg,pics/grater01a.jpg,pics/shipinabottle.jpg,pics/binder03b.jpg,pics/dromedary.jpg,pics/pictureframe04.jpg,pics/stapler04b.jpg,pics/fanblades.jpg,pics/aquarium.jpg,pics/hairdryer02a.jpg,pics/lightswitch01.jpg,pics/piggybank.jpg,blankImage,blankImage,grater01a,11,0.4243,0.5126,0.4424,,,,,,,,,,,,,,,,,,,,,,,,,,,,,,,,,,,,,,,,,,,,,,,,,,,,,,,,,,,,,,,,,,,,,,,,,,,,,,,,,,,,,,,,,,,,,,,,,
,,,,,5fa2e56fe794555527f2c8ef,6682b41eeb79ab8215dff63d,6682b5f219f7e4d55acfa83c,24,Female,English,2024-07-01_15h00.54.210,ABmemTask3,2023.2.3,Win32,2.99850075,,,,,,,,,,,,,,,,,,,,,,,,,,,,,,,482.5397,483.3277,483.3277,1,483.716,487.2001,0.0013,487.6307,0.4203,0.4615,0.4225,0.4233,0.4392,0.4635,0.4219,0.4308,,,,487.6308,488.8462,right,0.7974,0.0006,488.8464,489.6217,left,0.3988,,6,0,14,489.6218,490.4521,0,6,6,6,1,prac_AB,L1_T1P_T2A,1,1,0,4,5,3,4,9,chalk,Did you see the chalk,0.19,0,resources/,pics/necklace.jpg,pics/starfish01.jpg,pics/safetypin.jpg,pics/chalk.jpg,pics/candleholder01.jpg,pics/bowtie.jpg,pics/match.jpg,pics/candle01.jpg,pics/pencilsharpener02a.jpg,blankImage,blankImage,blankImage,blankImage,blankImage,blankImage,blankImage,blankImage,chalk,9,,,,,,,,,,,,,,,,,,,,,,,,,,,,,,,,,,,,,,,,,,,,,,,,,,,,,,,,,,,,,,,,,,,,,,,,,,,,,,,,,,,,,,,,,,,,,,,,,,,,
,,,,,5fa2e56fe794555527f2c8ef,6682b41eeb79ab8215dff63d,6682b5f219f7e4d55acfa83c,24,Female,English,2024-07-01_15h00.54.210,ABmemTask3,2023.2.3,Win32,2.99850075,,,,,,,,,,,,,,,,,,,,,,,,,,,,,,,490.4529,491.2526,491.2527,1,491.6698,495.558,0.0012,495.9894,0.4331,0.4327,0.4365,0.4201,0.4694,0.4197,0.4282,0.4279,0.4199,,,495.9895,499.9733,right,3.6117,0.0003,499.9733,500.7893,right,0.4449,,8,0,16,500.7893,501.5999,0,7,7,7,1,prac_AB,L1_T1P_T2P,1,1,1,5,6,4,4,10,pants,Did you see the pants,0.18,0,resources/,pics/kangaroo.jpg,pics/safetypin.jpg,pics/salmon.jpg,pics/sandbarshark.jpg,pics/pants.jpg,pics/stapler03a.jpg,pics/sink.jpg,pics/calendar.jpg,pics/butterfly.jpg,pics/fanblades.jpg,blankImage,blankImage,blankImage,blankImage,blankImage,blankImage,blankImage,pants,2,,,,,,,,,,,,,,,,,,,,,,,,,,,,,,,,,,,,,,,,,,,,,,,,,,,,,,,,,,,,,,,,,,,,,,,,,,,,,,,,,,,,,,,,,,,,,,,,,,,,
,,,,,5fa2e56fe794555527f2c8ef,6682b41eeb79ab8215dff63d,6682b5f219f7e4d55acfa83c,24,Female,English,2024-07-01_15h00.54.210,ABmemTask3,2023.2.3,Win32,2.99850075,,,,,,,,,,,,,,,,,,,,,,,,,,,,,,,501.6176,502.4397,502.4398,1,502.8312,508.9548,0.0016,509.4038,0.4191,0.4661,0.4197,0.4277,0.4326,0.4557,0.4224,0.4189,0.4231,0.4381,0.4204,509.4039,510.7393,left,0.8764,0.0003,510.7394,511.5356,right,0.4042,,10,0,18,511.5357,512.3368,0,8,8,8,1,prac_AB,L5_T1A_T2P,5,0,1,7,12,6,3,15,shirt,Did you see the shirt,0.17,0,resources/,pics/banjo.jpg,pics/chainsaw.jpg,pics/sailboat.jpg,pics/shipinabottle.jpg,pics/lightswitch01.jpg,pics/starfish01.jpg,pics/hen.jpg,pics/ball02.jpg,pics/bowlingpin.jpg,pics/hammerheadshark.jpg,pics/footballhelmet.jpg,pics/stapler10.jpg,pics/laptop01a.jpg,pics/cannon.jpg,pics/golfball.jpg,blankImage,blankImage,shirt02,13,0.4246,0.4465,0.5075,,,,,,,,,,,,,,,,,,,,,,,,,,,,,,,,,,,,,,,,,,,,,,,,,,,,,,,,,,,,,,,,,,,,,,,,,,,,,,,,,,,,,,,,,,,,,,,,,
,,,,,5fa2e56fe794555527f2c8ef,6682b41eeb79ab8215dff63d,6682b5f219f7e4d55acfa83c,24,Female,English,2024-07-01_15h00.54.210,ABmemTask3,2023.2.3,Win32,2.99850075,,,,,,,,,,,,,,,,,,,,,,,,,,,,,,,512.3532,513.1529,513.1529,0,513.5463,513.5652,0.0021,513.5678,0.0018,0.002,0.0015,0.0011,0.0012,0.0011,0.0032,0.0015,0.002,0.0023,,513.568,516.383,left,2.4325,0.0004,516.3831,517.5864,left,0.8222,0.0004,8,0,20,517.5865,518.4475,0,9,9,9,1,prac_AB,L1_T1P_T2P,1,1,1,7,8,6,3,11,tongs,Did you see the tongs,0.16,0,resources/,pics/sewingmachine01a.jpg,pics/shovel01.jpg,pics/football.jpg,pics/hen.jpg,pics/banjo.jpg,pics/zebra.jpg,pics/tongs01b.jpg,pics/stapler11.jpg,pics/shipinabottle.jpg,pics/match.jpg,pics/candle01.jpg,blankImage,blankImage,blankImage,blankImage,blankImage,blankImage,tongs01b,5,,,,,,,,,,,,,,,,,,,,,,,,,,,,,,,,,,,,,,,,,,,,,,,,,,,,,,,,,,,,,,,,,,,,,,,,,,,,,,,,,,,,,,,,,,,,,,,,,,,,
,,,,,5fa2e56fe794555527f2c8ef,6682b41eeb79ab8215dff63d,6682b5f219f7e4d55acfa83c,24,Female,English,2024-07-01_15h00.54.210,ABmemTask3,2023.2.3,Win32,2.99850075,,,,,,,,,,,,,,,,,,,,,,,,,,,,,,,518.4681,519.2521,519.2521,0,519.6457,519.6588,0.0018,519.6595,0.0012,0.0011,0.0007,0.0012,0.0011,0.001,0.0009,0.001,0.001,0.0011,0.0013,519.6597,520.8917,left,0.8285,,520.8918,521.6932,right,0.4129,,6,0,22,521.6933,522.554,0,10,10,10,1,prac_AB,L1_T1A_T2A,1,0,0,7,8,6,4,12,camera,Did you see the camera,0.15,0,resources/,pics/lightswitch01.jpg,pics/table01.jpg,pics/aquarium.jpg,pics/boot02b.jpg,pics/butterfly.jpg,pics/chainsaw.jpg,pics/binoculars01b.jpg,pics/giraffe.jpg,pics/triangle.jpg,pics/microscope.jpg,pics/mummy.jpg,pics/icecube01.jpg,blankImage,blankImage,blankImage,blankImage,blankImage,camera01a,10,,,,,,,,,,,,,,,,,,,,,,,,,,,,,,,,,,,,,,,,,,,,,,,,,,,,,,,,,,,,,,,,,,,,,,,,,,,,,,,,,,,,,,,,,,,,,,,,,,,,
,,,,,5fa2e56fe794555527f2c8ef,6682b41eeb79ab8215dff63d,6682b5f219f7e4d55acfa83c,24,Female,English,2024-07-01_15h00.54.210,ABmemTask3,2023.2.3,Win32,2.99850075,,,,,,,,,,,,,,,,,,,,,,,,,,,,,,,522.5547,523.3536,523.3536,0,523.7693,523.779,0.0017,523.7797,0.0012,0.001,0.0009,0.0008,0.0008,0.0011,0.0008,0.0008,0.0008,,,523.7797,525.3853,left,1.2249,0.0007,525.3854,526.6009,left,0.8415,,4,0,24,526.601,527.3826,0,11,11,11,1,prac_AB,L1_T1P_T2P,1,1,1,6,7,5,3,10,shorts,Did you see the shorts,0.14,0,resources/,pics/snowshoe.jpg,pics/chainsaw.jpg,pics/sailboat.jpg,pics/ball02.jpg,pics/candleholder01.jpg,pics/shorts01.jpg,pics/stapler07.jpg,pics/peach01.jpg,pics/proboscismonkey.jpg,pics/hen.jpg,blankImage,blankImage,blankImage,blankImage,blankImage,blankImage,blankImage,shorts01,4,,,,,,,,,,,,,,,,,,,,,,,,,,,,,,,,,,,,,,,,,,,,,,,,,,,,,,,,,,,,,,,,,,,,,,,,,,,,,,,,,,,,,,,,,,,,,,,,,,,,
,,,,,5fa2e56fe794555527f2c8ef,6682b41eeb79ab8215dff63d,6682b5f219f7e4d55acfa83c,24,Female,English,2024-07-01_15h00.54.210,ABmemTask3,2023.2.3,Win32,2.99850075,,,,,,,,,,,,,,,,,,,,,,,,,,,,,,,527.3832,528.1687,528.1688,0,528.598,528.61,0.0018,528.6107,0.0009,0.0012,0.0008,0.0009,0.0007,0.0009,0.0009,0.0008,0.0009,0.0008,0.0008,528.6108,529.8745,left,0.8422,,529.8746,530.3053,left,0.0116,,4,0,26,530.3055,531.0993,0,12,12,12,1,prac_AB,L5_T1P_T2A,5,1,0,5,10,4,3,13,fish,Did you see the fish,0.13,0,resources/,pics/football.jpg,pics/safetypin.jpg,pics/shovel01.jpg,pics/sink.jpg,pics/holdfast.jpg,pics/nutcracker01.jpg,pics/starfish01.jpg,pics/onion.jpg,pics/footballhelmet.jpg,pics/boot02b.jpg,pics/sewingmachine01a.jpg,pics/kangaroo.jpg,pics/banjo.jpg,blankImage,blankImage,blankImage,blankImage,holdfast,14,0.0009,,,,,,,,,,,,,,,,,,,,,,,,,,,,,,,,,,,,,,,,,,,,,,,,,,,,,,,,,,,,,,,,,,,,,,,,,,,,,,,,,,,,,,,,,,,,,,,,,,,
,,,,,5fa2e56fe794555527f2c8ef,6682b41eeb79ab8215dff63d,6682b5f219f7e4d55acfa83c,24,Female,English,2024-07-01_15h00.54.210,ABmemTask3,2023.2.3,Win32,2.99850075,,,,,,,,,,,,,,,,,,,,,,,,,,,,,,,531.1,531.9017,531.9017,0,532.3294,532.3385,0.0014,532.3393,0.0009,0.0012,0.0007,0.0007,0.0008,0.0009,0.0008,0.001,0.0009,,,532.3393,533.5402,left,0.8311,,533.5403,534.7396,left,0.8092,,2,0,28,534.7397,535.5468,0,13,13,13,1,prac_AB,L1_T1P_T2P,1,1,1,5,6,4,4,10,fish,Did you see the fish,0.12,0,resources/,pics/butterfly.jpg,pics/banjo.jpg,pics/leaf02a.jpg,pics/dustpan.jpg,pics/sturgeon.jpg,pics/stapler02.jpg,pics/necklace.jpg,pics/shovel01.jpg,pics/starfish01.jpg,pics/chainsaw.jpg,blankImage,blankImage,blankImage,blankImage,blankImage,blankImage,blankImage,sturgeon,3,,,,,,,,,,,,,,,,,,,,,,,,,,,,,,,,,,,,,,,,,,,,,,,,,,,,,,,,,,,,,,,,,,,,,,,,,,,,,,,,,,,,,,,,,,,,,,,,,,,,
,,,,,5fa2e56fe794555527f2c8ef,6682b41eeb79ab8215dff63d,6682b5f219f7e4d55acfa83c,24,Female,English,2024-07-01_15h00.54.210,ABmemTask3,2023.2.3,Win32,2.99850075,,,,,,,,,,,,,,,,,,,,,,,,,,,,,,,,,,,,,,,,,,,,,,,,,,,,,,,,,,,,,,,,,,,,,,,,,,,,,,,,,,,,,,,,,,,,,,,,,,,,,,,,,,,535.5469,542.9909,space,6.9105,0.0005,,,,,,,,,,,,,,,,,,,,,,,,,,,,,,,,,,,,,,,,,,,,,,,,,,,,,,,,,,,,,,,,,,,,,,,,,,,,,,,,,,,,,,,,,,,,
,,,,,5fa2e56fe794555527f2c8ef,6682b41eeb79ab8215dff63d,6682b5f219f7e4d55acfa83c,24,Female,English,2024-07-01_15h00.54.210,ABmemTask3,2023.2.3,Win32,2.99850075,,,,,,,,,,,,,,,,,,,,,,,,,,,,,,,543.0141,543.7957,543.7957,1,544.2252,549.0237,0.0016,549.4531,0.426,0.4311,0.4336,0.4789,0.4285,0.4451,0.4398,0.4241,0.4313,0.4252,0.4337,549.4531,551.0657,right,1.191,0.0005,551.0658,551.8833,left,0.4057,,2,0,2,551.8835,552.669,0,0,0,0,1,prac_AB,L1_T1P_T2A,1,1,0,6,7,5,5,12,cat,Did you see the cat,0.25,0,resources/,pics/shipinabottle.jpg,pics/table01.jpg,pics/dustpan.jpg,pics/golfball.jpg,pics/giraffe.jpg,pics/cat.jpg,pics/peanut01.jpg,pics/pictureframe04.jpg,pics/fanblades.jpg,pics/laptop01a.jpg,pics/ball02.jpg,pics/blender.jpg,blankImage,blankImage,blankImage,blankImage,blankImage,cat,8,,,,,,,,,,,,,,,,,,,,,,,,,,,,,,,,,,,,,,,,,,,,,,,,,,,,,,,,,,,,,,,,,,,,,,,,,,,,,,,,,,,,,,,,,,,,,,,,,,,,
,,,,,5fa2e56fe794555527f2c8ef,6682b41eeb79ab8215dff63d,6682b5f219f7e4d55acfa83c,24,Female,English,2024-07-01_15h00.54.210,ABmemTask3,2023.2.3,Win32,2.99850075,,,,,,,,,,,,,,,,,,,,,,,,,,,,,,,552.6699,553.4569,553.457,1,553.855,557.9552,0.0021,558.3758,0.6614,0.4295,0.4379,0.4195,0.4174,0.4287,0.4457,0.4293,0.429,,,558.376,559.5511,right,0.8003,0.0004,559.5512,560.3445,right,0.4103,,4,0,4,560.3447,561.146,0,1,1,1,1,prac_AB,L1_T1P_T2P,1,1,1,5,6,4,4,10,tree,Did you see the tree,0.24,0,resources/,pics/carrot01.jpg,pics/hammerheadshark.jpg,pics/kangaroo.jpg,pics/proboscismonkey.jpg,pics/tree.jpg,pics/stapler07.jpg,pics/siamesecat.jpg,pics/ball02.jpg,pics/pictureframe04.jpg,pics/mummy.jpg,blankImage,blankImage,blankImage,blankImage,blankImage,blankImage,blankImage,tree,1,,,,,,,,,,,,,,,,,,,,,,,,,,,,,,,,,,,,,,,,,,,,,,,,,,,,,,,,,,,,,,,,,,,,,,,,,,,,,,,,,,,,,,,,,,,,,,,,,,,,
,,,,,5fa2e56fe794555527f2c8ef,6682b41eeb79ab8215dff63d,6682b5f219f7e4d55acfa83c,24,Female,English,2024-07-01_15h00.54.210,ABmemTask3,2023.2.3,Win32,2.99850075,,,,,,,,,,,,,,,,,,,,,,,,,,,,,,,561.1468,561.9666,561.9666,1,562.3541,567.1928,0.0015,567.6732,0.4314,0.4504,0.4365,0.442,0.4299,0.4268,0.4742,0.4351,0.4288,0.4226,0.4597,567.6733,569.2605,left,1.1971,0.0003,569.2606,570.053,left,0.4189,,4,0,6,570.053,570.8609,0,2,2,2,1,prac_AB,L1_T1A_T2P,1,0,1,7,8,6,4,12,grapes,Did you see the grapes,0.23,0,resources/,pics/sailboat.jpg,pics/butterfly.jpg,pics/giraffe.jpg,pics/spoon01.jpg,pics/hose.jpg,pics/nutcracker01.jpg,pics/table01.jpg,pics/stapler13.jpg,pics/pencil01.jpg,pics/football.jpg,pics/triangle.jpg,pics/hairdryer02a.jpg,blankImage,blankImage,blankImage,blankImage,blankImage,grape01,6,,,,,,,,,,,,,,,,,,,,,,,,,,,,,,,,,,,,,,,,,,,,,,,,,,,,,,,,,,,,,,,,,,,,,,,,,,,,,,,,,,,,,,,,,,,,,,,,,,,,
,,,,,5fa2e56fe794555527f2c8ef,6682b41eeb79ab8215dff63d,6682b5f219f7e4d55acfa83c,24,Female,English,2024-07-01_15h00.54.210,ABmemTask3,2023.2.3,Win32,2.99850075,,,,,,,,,,,,,,,,,,,,,,,,,,,,,,,570.8615,571.6427,571.6427,1,572.043,578.192,0.0018,578.6237,0.4233,0.4325,0.4274,0.4542,0.4398,0.4232,0.4437,0.4263,0.4314,0.4753,0.476,578.6238,580.2963,right,1.2804,0.0003,580.2964,581.0948,right,0.4193,,6,0,8,581.0949,581.8953,0,3,3,3,1,prac_AB,L5_T1P_T2P,5,1,1,7,12,6,3,15,Human skull,Did you see the Human skull,0.22,0,resources/,pics/peach01.jpg,pics/proboscismonkey.jpg,pics/hose.jpg,pics/laptop01a.jpg,pics/hammerheadshark.jpg,pics/nutcracker01.jpg,pics/humanskull.jpg,pics/table01.jpg,pics/icecube01.jpg,pics/boot02b.jpg,pics/calendar.jpg,pics/stapler03a.jpg,pics/ashtray01.jpg,pics/giraffe.jpg,pics/dromedary.jpg,blankImage,blankImage,humanskull,12,0.4337,0.4361,0.4246,,,,,,,,,,,,,,,,,,,,,,,,,,,,,,,,,,,,,,,,,,,,,,,,,,,,,,,,,,,,,,,,,,,,,,,,,,,,,,,,,,,,,,,,,,,,,,,,,
,,,,,5fa2e56fe794555527f2c8ef,6682b41eeb79ab8215dff63d,6682b5f219f7e4d55acfa83c,24,Female,English,2024-07-01_15h00.54.210,ABmemTask3,2023.2.3,Win32,2.99850075,,,,,,,,,,,,,,,,,,,,,,,,,,,,,,,581.8959,582.6818,582.6818,1,583.0813,587.5096,0.0015,587.9909,0.4313,0.4435,0.4259,0.484,0.4318,0.4279,0.4393,0.4318,0.4542,0.4574,,587.991,589.5664,left,1.1969,0.0006,589.5665,590.3566,left,0.4068,,6,0,10,590.3566,591.1493,0,4,4,4,1,prac_AB,L1_T1A_T2P,1,0,1,7,8,6,3,11,dog,Did you see the dog,0.21,0,resources/,pics/ball02.jpg,pics/binder03b.jpg,pics/dromedary.jpg,pics/shipinabottle.jpg,pics/proboscismonkey.jpg,pics/laptop01a.jpg,pics/chainsaw.jpg,pics/stapler13.jpg,pics/nutcracker01.jpg,pics/carrot01.jpg,pics/calendar.jpg,blankImage,blankImage,blankImage,blankImage,blankImage,blankImage,saintbernard,7,,,,,,,,,,,,,,,,,,,,,,,,,,,,,,,,,,,,,,,,,,,,,,,,,,,,,,,,,,,,,,,,,,,,,,,,,,,,,,,,,,,,,,,,,,,,,,,,,,,,
,,,,,5fa2e56fe794555527f2c8ef,6682b41eeb79ab8215dff63d,6682b5f219f7e4d55acfa83c,24,Female,English,2024-07-01_15h00.54.210,ABmemTask3,2023.2.3,Win32,2.99850075,,,,,,,,,,,,,,,,,,,,,,,,,,,,,,,591.1502,591.9457,591.9457,1,592.3763,598.4874,0.0032,598.9604,0.4383,0.4507,0.4293,0.4402,0.4354,0.438,0.4322,0.4386,0.4276,0.4348,0.4492,598.9605,600.175,right,0.8309,0.0003,600.1751,601.007,right,0.4057,,8,0,12,601.0072,601.8357,0,5,5,5,1,prac_AB,L5_T1P_T2P,5,1,1,5,10,4,5,15,grater,Did you see the grater,0.2,0,resources/,pics/pencil01.jpg,pics/laptop01a.jpg,pics/hammerheadshark.jpg,pics/cork02.jpg,pics/grater01a.jpg,pics/shipinabottle.jpg,pics/binder03b.jpg,pics/dromedary.jpg,pics/pictureframe04.jpg,pics/stapler04b.jpg,pics/fanblades.jpg,pics/aquarium.jpg,pics/hairdryer02a.jpg,pics/lightswitch01.jpg,pics/piggybank.jpg,blankImage,blankImage,grater01a,11,0.4257,0.4343,0.4341,,,,,,,,,,,,,,,,,,,,,,,,,,,,,,,,,,,,,,,,,,,,,,,,,,,,,,,,,,,,,,,,,,,,,,,,,,,,,,,,,,,,,,,,,,,,,,,,,
,,,,,5fa2e56fe794555527f2c8ef,6682b41eeb79ab8215dff63d,6682b5f219f7e4d55acfa83c,24,Female,English,2024-07-01_15h00.54.210,ABmemTask3,2023.2.3,Win32,2.99850075,,,,,,,,,,,,,,,,,,,,,,,,,,,,,,,601.8545,602.6446,602.6447,1,603.0619,606.6086,0.0014,607.0435,0.4311,0.4519,0.4385,0.4358,0.4361,0.4323,0.4893,0.4307,,,,607.0435,608.255,right,0.8305,,608.255,609.0526,left,0.4188,,10,0,14,609.0527,609.8431,0,6,6,6,1,prac_AB,L1_T1P_T2A,1,1,0,4,5,3,4,9,chalk,Did you see the chalk,0.19,0,resources/,pics/necklace.jpg,pics/starfish01.jpg,pics/safetypin.jpg,pics/chalk.jpg,pics/candleholder01.jpg,pics/bowtie.jpg,pics/match.jpg,pics/candle01.jpg,pics/pencilsharpener02a.jpg,blankImage,blankImage,blankImage,blankImage,blankImage,blankImage,blankImage,blankImage,chalk,9,,,,,,,,,,,,,,,,,,,,,,,,,,,,,,,,,,,,,,,,,,,,,,,,,,,,,,,,,,,,,,,,,,,,,,,,,,,,,,,,,,,,,,,,,,,,,,,,,,,,
,,,,,5fa2e56fe794555527f2c8ef,6682b41eeb79ab8215dff63d,6682b5f219f7e4d55acfa83c,24,Female,English,2024-07-01_15h00.54.210,ABmemTask3,2023.2.3,Win32,2.99850075,,,,,,,,,,,,,,,,,,,,,,,,,,,,,,,609.8616,610.6439,610.644,1,611.041,615.0457,0.002,615.4874,0.4336,0.4487,0.4377,0.4378,0.4831,0.4257,0.4503,0.4406,0.4454,,,615.4875,617.1351,right,1.2617,0.0004,617.1352,617.937,right,0.4252,,12,0,16,617.9371,618.7742,0,7,7,7,1,prac_AB,L1_T1P_T2P,1,1,1,5,6,4,4,10,pants,Did you see the pants,0.18,0,resources/,pics/kangaroo.jpg,pics/safetypin.jpg,pics/salmon.jpg,pics/sandbarshark.jpg,pics/pants.jpg,pics/stapler03a.jpg,pics/sink.jpg,pics/calendar.jpg,pics/butterfly.jpg,pics/fanblades.jpg,blankImage,blankImage,blankImage,blankImage,blankImage,blankImage,blankImage,pants,2,,,,,,,,,,,,,,,,,,,,,,,,,,,,,,,,,,,,,,,,,,,,,,,,,,,,,,,,,,,,,,,,,,,,,,,,,,,,,,,,,,,,,,,,,,,,,,,,,,,,
,,,,,5fa2e56fe794555527f2c8ef,6682b41eeb79ab8215dff63d,6682b5f219f7e4d55acfa83c,24,Female,English,2024-07-01_15h00.54.210,ABmemTask3,2023.2.3,Win32,2.99850075,,,,,,,,,,,,,,,,,,,,,,,,,,,,,,,618.7749,619.5641,619.5641,1,619.9624,626.1771,0.0012,626.6105,0.4498,0.4426,0.4336,0.4335,0.4891,0.4745,0.433,0.4307,0.4256,0.4758,0.4396,626.6105,628.2436,left,1.2515,,628.2437,629.0583,right,0.4143,,14,0,18,629.0583,629.848,0,8,8,8,1,prac_AB,L5_T1A_T2P,5,0,1,7,12,6,3,15,shirt,Did you see the shirt,0.17,0,resources/,pics/banjo.jpg,pics/chainsaw.jpg,pics/sailboat.jpg,pics/shipinabottle.jpg,pics/lightswitch01.jpg,pics/starfish01.jpg,pics/hen.jpg,pics/ball02.jpg,pics/bowlingpin.jpg,pics/hammerheadshark.jpg,pics/footballhelmet.jpg,pics/stapler10.jpg,pics/laptop01a.jpg,pics/cannon.jpg,pics/golfball.jpg,blankImage,blankImage,shirt02,13,0.4271,0.4299,0.4288,,,,,,,,,,,,,,,,,,,,,,,,,,,,,,,,,,,,,,,,,,,,,,,,,,,,,,,,,,,,,,,,,,,,,,,,,,,,,,,,,,,,,,,,,,,,,,,,,
,,,,,5fa2e56fe794555527f2c8ef,6682b41eeb79ab8215dff63d,6682b5f219f7e4d55acfa83c,24,Female,English,2024-07-01_15h00.54.210,ABmemTask3,2023.2.3,Win32,2.99850075,,,,,,,,,,,,,,,,,,,,,,,,,,,,,,,629.8487,630.6659,630.666,0,631.0897,631.1031,0.0017,631.1038,0.0013,0.0014,0.0011,0.0008,0.0014,0.0012,0.0012,0.0011,0.0013,0.0008,,631.1039,633.5605,right,2.0772,0.0003,633.5606,634.8221,right,0.8526,0.0003,16,0,20,634.8222,635.6106,0,9,9,9,1,prac_AB,L1_T1P_T2P,1,1,1,7,8,6,3,11,tongs,Did you see the tongs,0.16,0,resources/,pics/sewingmachine01a.jpg,pics/shovel01.jpg,pics/football.jpg,pics/hen.jpg,pics/banjo.jpg,pics/zebra.jpg,pics/tongs01b.jpg,pics/stapler11.jpg,pics/shipinabottle.jpg,pics/match.jpg,pics/candle01.jpg,blankImage,blankImage,blankImage,blankImage,blankImage,blankImage,tongs01b,5,,,,,,,,,,,,,,,,,,,,,,,,,,,,,,,,,,,,,,,,,,,,,,,,,,,,,,,,,,,,,,,,,,,,,,,,,,,,,,,,,,,,,,,,,,,,,,,,,,,,
,,,,,5fa2e56fe794555527f2c8ef,6682b41eeb79ab8215dff63d,6682b5f219f7e4d55acfa83c,24,Female,English,2024-07-01_15h00.54.210,ABmemTask3,2023.2.3,Win32,2.99850075,,,,,,,,,,,,,,,,,,,,,,,,,,,,,,,635.6269,636.4346,636.4347,0,636.8277,636.8423,0.0024,636.8434,0.0014,0.001,0.0013,0.0011,0.0013,0.0011,0.0013,0.001,0.001,0.001,0.0011,636.8434,639.8067,left,2.5379,,639.8068,640.6535,right,0.4436,,14,0,22,640.6535,641.4787,0,10,10,10,1,prac_AB,L1_T1A_T2A,1,0,0,7,8,6,4,12,camera,Did you see the camera,0.15,0,resources/,pics/lightswitch01.jpg,pics/table01.jpg,pics/aquarium.jpg,pics/boot02b.jpg,pics/butterfly.jpg,pics/chainsaw.jpg,pics/binoculars01b.jpg,pics/giraffe.jpg,pics/triangle.jpg,pics/microscope.jpg,pics/mummy.jpg,pics/icecube01.jpg,blankImage,blankImage,blankImage,blankImage,blankImage,camera01a,10,,,,,,,,,,,,,,,,,,,,,,,,,,,,,,,,,,,,,,,,,,,,,,,,,,,,,,,,,,,,,,,,,,,,,,,,,,,,,,,,,,,,,,,,,,,,,,,,,,,,
,,,,,5fa2e56fe794555527f2c8ef,6682b41eeb79ab8215dff63d,6682b5f219f7e4d55acfa83c,24,Female,English,2024-07-01_15h00.54.210,ABmemTask3,2023.2.3,Win32,2.99850075,,,,,,,,,,,,,,,,,,,,,,,,,,,,,,,641.4957,642.2683,642.2684,0,642.6665,642.6778,0.0014,642.6788,0.0013,0.0013,0.001,0.0012,0.0011,0.001,0.001,0.001,0.0012,,,642.6789,645.1541,left,2.0808,,645.1542,645.9916,left,0.4172,,12,0,24,645.9917,646.8717,0,11,11,11,1,prac_AB,L1_T1P_T2P,1,1,1,6,7,5,3,10,shorts,Did you see the shorts,0.14,0,resources/,pics/snowshoe.jpg,pics/chainsaw.jpg,pics/sailboat.jpg,pics/ball02.jpg,pics/candleholder01.jpg,pics/shorts01.jpg,pics/stapler07.jpg,pics/peach01.jpg,pics/proboscismonkey.jpg,pics/hen.jpg,blankImage,blankImage,blankImage,blankImage,blankImage,blankImage,blankImage,shorts01,4,,,,,,,,,,,,,,,,,,,,,,,,,,,,,,,,,,,,,,,,,,,,,,,,,,,,,,,,,,,,,,,,,,,,,,,,,,,,,,,,,,,,,,,,,,,,,,,,,,,,
,,,,,5fa2e56fe794555527f2c8ef,6682b41eeb79ab8215dff63d,6682b5f219f7e4d55acfa83c,24,Female,English,2024-07-01_15h00.54.210,ABmemTask3,2023.2.3,Win32,2.99850075,,,,,,,,,,,,,,,,,,,,,,,,,,,,,,,646.8934,647.7313,647.7313,0,648.1513,648.168,0.0017,648.1688,0.001,0.0016,0.0012,0.0011,0.001,0.0035,0.0011,0.001,0.0009,0.0009,0.0009,648.1688,649.8426,left,1.2503,0.0004,649.8427,650.6452,right,0.4241,,8,0,26,650.6453,651.488,0,12,12,12,1,prac_AB,L5_T1P_T2A,5,1,0,5,10,4,3,13,fish,Did you see the fish,0.13,0,resources/,pics/football.jpg,pics/safetypin.jpg,pics/shovel01.jpg,pics/sink.jpg,pics/holdfast.jpg,pics/nutcracker01.jpg,pics/starfish01.jpg,pics/onion.jpg,pics/footballhelmet.jpg,pics/boot02b.jpg,pics/sewingmachine01a.jpg,pics/kangaroo.jpg,pics/banjo.jpg,blankImage,blankImage,blankImage,blankImage,holdfast,14,0.001,,,,,,,,,,,,,,,,,,,,,,,,,,,,,,,,,,,,,,,,,,,,,,,,,,,,,,,,,,,,,,,,,,,,,,,,,,,,,,,,,,,,,,,,,,,,,,,,,,,
,,,,,5fa2e56fe794555527f2c8ef,6682b41eeb79ab8215dff63d,6682b5f219f7e4d55acfa83c,24,Female,English,2024-07-01_15h00.54.210,ABmemTask3,2023.2.3,Win32,2.99850075,,,,,,,,,,,,,,,,,,,,,,,,,,,,,,,651.4888,652.3172,652.3173,0,652.7174,652.728,0.0017,652.7288,0.0012,0.0012,0.001,0.0012,0.0008,0.0011,0.0008,0.001,0.0008,,,652.7288,655.9736,left,2.8523,0.0005,655.9737,656.7674,right,0.4089,,8,0,28,656.7676,657.6375,0,13,13,13,1,prac_AB,L1_T1P_T2P,1,1,1,5,6,4,4,10,fish,Did you see the fish,0.12,0,resources/,pics/butterfly.jpg,pics/banjo.jpg,pics/leaf02a.jpg,pics/dustpan.jpg,pics/sturgeon.jpg,pics/stapler02.jpg,pics/necklace.jpg,pics/shovel01.jpg,pics/starfish01.jpg,pics/chainsaw.jpg,blankImage,blankImage,blankImage,blankImage,blankImage,blankImage,blankImage,sturgeon,3,,,,,,,,,,,,,,,,,,,,,,,,,,,,,,,,,,,,,,,,,,,,,,,,,,,,,,,,,,,,,,,,,,,,,,,,,,,,,,,,,,,,,,,,,,,,,,,,,,,,
,,,,,5fa2e56fe794555527f2c8ef,6682b41eeb79ab8215dff63d,6682b5f219f7e4d55acfa83c,24,Female,English,2024-07-01_15h00.54.210,ABmemTask3,2023.2.3,Win32,2.99850075,,,,,,,,,,,,,,,,,,,,,,,,,,,,,,,,,,,,,,,,,,,,,,,,,,,,,,,,,,,,,,,,,,,,,,,,,,,,,,,,,,,,,,,,,,,,,,,,,,,,,,,,,,,657.6377,666.2268,space,8.0981,0.0006,,,,,,,,,,,,,,,,,,,,,,,,,,,,,,,,,,,,,,,,,,,,,,,,,,,,,,,,,,,,,,,,,,,,,,,,,,,,,,,,,,,,,,,,,,,,
,,,,,5fa2e56fe794555527f2c8ef,6682b41eeb79ab8215dff63d,6682b5f219f7e4d55acfa83c,24,Female,English,2024-07-01_15h00.54.210,ABmemTask3,2023.2.3,Win32,2.99850075,,,,,,,,,,,,,,,,,,,,,,,,,,,,,,,666.2471,667.2937,667.2937,1,667.6409,671.8798,0.0017,672.257,0.3834,0.3722,0.4157,0.392,0.3737,0.3775,0.4192,0.3714,0.3751,0.3827,0.3745,672.2571,674.4063,right,1.7763,0.0004,674.4063,675.1015,left,0.3638,,2,0,2,675.1016,675.8518,0,0,0,0,1,prac_AB,L1_T1P_T2A,1,1,0,6,7,5,5,12,cat,Did you see the cat,0.25,0,resources/,pics/shipinabottle.jpg,pics/table01.jpg,pics/dustpan.jpg,pics/golfball.jpg,pics/giraffe.jpg,pics/cat.jpg,pics/peanut01.jpg,pics/pictureframe04.jpg,pics/fanblades.jpg,pics/laptop01a.jpg,pics/ball02.jpg,pics/blender.jpg,blankImage,blankImage,blankImage,blankImage,blankImage,cat,8,,,,,,,,,,,,,,,,,,,,,,,,,,,,,,,,,,,,,,,,,,,,,,,,,,,,,,,,,,,,,,,,,,,,,,,,,,,,,,,,,,,,,,,,,,,,,,,,,,,,
,,,,,5fa2e56fe794555527f2c8ef,6682b41eeb79ab8215dff63d,6682b5f219f7e4d55acfa83c,24,Female,English,2024-07-01_15h00.54.210,ABmemTask3,2023.2.3,Win32,2.99850075,,,,,,,,,,,,,,,,,,,,,,,,,,,,,,,675.8528,676.9006,676.9006,1,677.2425,680.7776,0.0017,681.157,0.4063,0.3985,0.3823,0.4233,0.4036,0.3808,0.3766,0.3774,0.3847,,,681.1571,683.3336,right,1.8028,0.0004,683.3338,684.4439,right,0.7199,0.0004,4,0,4,684.444,685.2142,0,1,1,1,1,prac_AB,L1_T1P_T2P,1,1,1,5,6,4,4,10,tree,Did you see the tree,0.24,0,resources/,pics/carrot01.jpg,pics/hammerheadshark.jpg,pics/kangaroo.jpg,pics/proboscismonkey.jpg,pics/tree.jpg,pics/stapler07.jpg,pics/siamesecat.jpg,pics/ball02.jpg,pics/pictureframe04.jpg,pics/mummy.jpg,blankImage,blankImage,blankImage,blankImage,blankImage,blankImage,blankImage,tree,1,,,,,,,,,,,,,,,,,,,,,,,,,,,,,,,,,,,,,,,,,,,,,,,,,,,,,,,,,,,,,,,,,,,,,,,,,,,,,,,,,,,,,,,,,,,,,,,,,,,,
,,,,,5fa2e56fe794555527f2c8ef,6682b41eeb79ab8215dff63d,6682b5f219f7e4d55acfa83c,24,Female,English,2024-07-01_15h00.54.210,ABmemTask3,2023.2.3,Win32,2.99850075,,,,,,,,,,,,,,,,,,,,,,,,,,,,,,,685.2331,686.2797,686.2798,1,686.6289,690.9565,0.0013,691.3447,0.3768,0.4125,0.391,0.3955,0.3741,0.4357,0.3761,0.3832,0.3781,0.428,0.3754,691.3448,692.8242,left,1.1396,0.0004,692.8243,693.9084,right,0.7188,,6,0,6,693.9085,694.9862,0,2,2,2,1,prac_AB,L1_T1A_T2P,1,0,1,7,8,6,4,12,grapes,Did you see the grapes,0.23,0,resources/,pics/sailboat.jpg,pics/butterfly.jpg,pics/giraffe.jpg,pics/spoon01.jpg,pics/hose.jpg,pics/nutcracker01.jpg,pics/table01.jpg,pics/stapler13.jpg,pics/pencil01.jpg,pics/football.jpg,pics/triangle.jpg,pics/hairdryer02a.jpg,blankImage,blankImage,blankImage,blankImage,blankImage,grape01,6,,,,,,,,,,,,,,,,,,,,,,,,,,,,,,,,,,,,,,,,,,,,,,,,,,,,,,,,,,,,,,,,,,,,,,,,,,,,,,,,,,,,,,,,,,,,,,,,,,,,
,,,,,5fa2e56fe794555527f2c8ef,6682b41eeb79ab8215dff63d,6682b5f219f7e4d55acfa83c,24,Female,English,2024-07-01_15h00.54.210,ABmemTask3,2023.2.3,Win32,2.99850075,,,,,,,,,,,,,,,,,,,,,,,,,,,,,,,695.0069,695.7896,695.7897,1,696.1478,701.4517,0.0017,701.8239,0.3703,0.3774,0.4095,0.3682,0.3756,0.3797,0.3711,0.3753,0.3683,0.3711,0.4032,701.8241,703.2255,right,1.0469,0.0003,703.2256,703.9398,right,0.3691,,8,0,8,703.9399,705.0268,0,3,3,3,1,prac_AB,L5_T1P_T2P,5,1,1,7,12,6,3,15,Human skull,Did you see the Human skull,0.22,0,resources/,pics/peach01.jpg,pics/proboscismonkey.jpg,pics/hose.jpg,pics/laptop01a.jpg,pics/hammerheadshark.jpg,pics/nutcracker01.jpg,pics/humanskull.jpg,pics/table01.jpg,pics/icecube01.jpg,pics/boot02b.jpg,pics/calendar.jpg,pics/stapler03a.jpg,pics/ashtray01.jpg,pics/giraffe.jpg,pics/dromedary.jpg,blankImage,blankImage,humanskull,12,0.3739,0.3885,0.3703,,,,,,,,,,,,,,,,,,,,,,,,,,,,,,,,,,,,,,,,,,,,,,,,,,,,,,,,,,,,,,,,,,,,,,,,,,,,,,,,,,,,,,,,,,,,,,,,,
,,,,,5fa2e56fe794555527f2c8ef,6682b41eeb79ab8215dff63d,6682b5f219f7e4d55acfa83c,24,Female,English,2024-07-01_15h00.54.210,ABmemTask3,2023.2.3,Win32,2.99850075,,,,,,,,,,,,,,,,,,,,,,,,,,,,,,,705.0429,706.0794,706.0795,1,706.4285,710.2662,0.0014,710.6383,0.412,0.3893,0.381,0.3723,0.3726,0.3731,0.4056,0.3664,0.3884,0.376,,710.6383,711.6985,left,0.7253,0.0003,711.6986,712.402,right,0.359,,10,0,10,712.4022,713.5063,0,4,4,4,1,prac_AB,L1_T1A_T2P,1,0,1,7,8,6,3,11,dog,Did you see the dog,0.21,0,resources/,pics/ball02.jpg,pics/binder03b.jpg,pics/dromedary.jpg,pics/shipinabottle.jpg,pics/proboscismonkey.jpg,pics/laptop01a.jpg,pics/chainsaw.jpg,pics/stapler13.jpg,pics/nutcracker01.jpg,pics/carrot01.jpg,pics/calendar.jpg,blankImage,blankImage,blankImage,blankImage,blankImage,blankImage,saintbernard,7,,,,,,,,,,,,,,,,,,,,,,,,,,,,,,,,,,,,,,,,,,,,,,,,,,,,,,,,,,,,,,,,,,,,,,,,,,,,,,,,,,,,,,,,,,,,,,,,,,,,
,,,,,5fa2e56fe794555527f2c8ef,6682b41eeb79ab8215dff63d,6682b5f219f7e4d55acfa83c,24,Female,English,2024-07-01_15h00.54.210,ABmemTask3,2023.2.3,Win32,2.99850075,,,,,,,,,,,,,,,,,,,,,,,,,,,,,,,713.5071,714.5464,714.5465,1,714.8952,720.2036,0.0014,720.5729,0.382,0.3762,0.3782,0.3696,0.379,0.4151,0.375,0.3808,0.3777,0.3708,0.3753,720.5731,722.0628,right,1.1528,,722.0629,724.1649,right,1.7629,0.0003,12,0,12,724.165,724.9086,0,5,5,5,1,prac_AB,L5_T1P_T2P,5,1,1,5,10,4,5,15,grater,Did you see the grater,0.2,0,resources/,pics/pencil01.jpg,pics/laptop01a.jpg,pics/hammerheadshark.jpg,pics/cork02.jpg,pics/grater01a.jpg,pics/shipinabottle.jpg,pics/binder03b.jpg,pics/dromedary.jpg,pics/pictureframe04.jpg,pics/stapler04b.jpg,pics/fanblades.jpg,pics/aquarium.jpg,pics/hairdryer02a.jpg,pics/lightswitch01.jpg,pics/piggybank.jpg,blankImage,blankImage,grater01a,11,0.3751,0.3782,0.3743,,,,,,,,,,,,,,,,,,,,,,,,,,,,,,,,,,,,,,,,,,,,,,,,,,,,,,,,,,,,,,,,,,,,,,,,,,,,,,,,,,,,,,,,,,,,,,,,,
,,,,,5fa2e56fe794555527f2c8ef,6682b41eeb79ab8215dff63d,6682b5f219f7e4d55acfa83c,24,Female,English,2024-07-01_15h00.54.210,ABmemTask3,2023.2.3,Win32,2.99850075,,,,,,,,,,,,,,,,,,,,,,,,,,,,,,,724.9263,725.9863,725.9863,1,726.3321,729.5022,0.0019,729.887,0.3755,0.3891,0.3758,0.4352,0.4279,0.387,0.3835,0.3948,,,,729.887,731.2849,right,1.0612,0.0004,731.2849,732.3234,left,0.7078,0.0004,14,0,14,732.3235,733.3985,0,6,6,6,1,prac_AB,L1_T1P_T2A,1,1,0,4,5,3,4,9,chalk,Did you see the chalk,0.19,0,resources/,pics/necklace.jpg,pics/starfish01.jpg,pics/safetypin.jpg,pics/chalk.jpg,pics/candleholder01.jpg,pics/bowtie.jpg,pics/match.jpg,pics/candle01.jpg,pics/pencilsharpener02a.jpg,blankImage,blankImage,blankImage,blankImage,blankImage,blankImage,blankImage,blankImage,chalk,9,,,,,,,,,,,,,,,,,,,,,,,,,,,,,,,,,,,,,,,,,,,,,,,,,,,,,,,,,,,,,,,,,,,,,,,,,,,,,,,,,,,,,,,,,,,,,,,,,,,,
,,,,,5fa2e56fe794555527f2c8ef,6682b41eeb79ab8215dff63d,6682b5f219f7e4d55acfa83c,24,Female,English,2024-07-01_15h00.54.210,ABmemTask3,2023.2.3,Win32,2.99850075,,,,,,,,,,,,,,,,,,,,,,,,,,,,,,,733.3991,734.433,734.433,1,734.7737,738.1725,0.0017,738.5502,0.383,0.3726,0.3815,0.3748,0.3786,0.3764,0.3871,0.3712,0.3721,,,738.5503,740.3562,right,1.4468,0.0004,740.3562,741.4383,right,0.7085,,16,0,16,741.4384,742.5163,0,7,7,7,1,prac_AB,L1_T1P_T2P,1,1,1,5,6,4,4,10,pants,Did you see the pants,0.18,0,resources/,pics/kangaroo.jpg,pics/safetypin.jpg,pics/salmon.jpg,pics/sandbarshark.jpg,pics/pants.jpg,pics/stapler03a.jpg,pics/sink.jpg,pics/calendar.jpg,pics/butterfly.jpg,pics/fanblades.jpg,blankImage,blankImage,blankImage,blankImage,blankImage,blankImage,blankImage,pants,2,,,,,,,,,,,,,,,,,,,,,,,,,,,,,,,,,,,,,,,,,,,,,,,,,,,,,,,,,,,,,,,,,,,,,,,,,,,,,,,,,,,,,,,,,,,,,,,,,,,,
,,,,,5fa2e56fe794555527f2c8ef,6682b41eeb79ab8215dff63d,6682b5f219f7e4d55acfa83c,24,Female,English,2024-07-01_15h00.54.210,ABmemTask3,2023.2.3,Win32,2.99850075,,,,,,,,,,,,,,,,,,,,,,,,,,,,,,,742.5329,743.5569,743.5569,1,743.9208,749.4357,0.0016,749.8095,0.3692,0.3803,0.3795,0.4148,0.4236,0.3715,0.3741,0.3797,0.4006,0.3768,0.3812,749.8096,751.748,left,1.5725,0.0003,751.7481,752.4679,right,0.372,,18,0,18,752.4679,753.2431,0,8,8,8,1,prac_AB,L5_T1A_T2P,5,0,1,7,12,6,3,15,shirt,Did you see the shirt,0.17,0,resources/,pics/banjo.jpg,pics/chainsaw.jpg,pics/sailboat.jpg,pics/shipinabottle.jpg,pics/lightswitch01.jpg,pics/starfish01.jpg,pics/hen.jpg,pics/ball02.jpg,pics/bowlingpin.jpg,pics/hammerheadshark.jpg,pics/footballhelmet.jpg,pics/stapler10.jpg,pics/laptop01a.jpg,pics/cannon.jpg,pics/golfball.jpg,blankImage,blankImage,shirt02,13,0.4057,0.4541,0.4024,,,,,,,,,,,,,,,,,,,,,,,,,,,,,,,,,,,,,,,,,,,,,,,,,,,,,,,,,,,,,,,,,,,,,,,,,,,,,,,,,,,,,,,,,,,,,,,,,
,,,,,5fa2e56fe794555527f2c8ef,6682b41eeb79ab8215dff63d,6682b5f219f7e4d55acfa83c,24,Female,English,2024-07-01_15h00.54.210,ABmemTask3,2023.2.3,Win32,2.99850075,,,,,,,,,,,,,,,,,,,,,,,,,,,,,,,753.264,754.0192,754.0192,0,754.4179,754.4319,0.0017,754.4333,0.0014,0.0014,0.0013,0.0011,0.0011,0.0013,0.0011,0.0011,0.0014,0.0016,,754.4334,755.5243,right,0.7562,,755.5244,756.2552,right,0.3905,,20,0,20,756.2553,757.0363,0,9,9,9,1,prac_AB,L1_T1P_T2P,1,1,1,7,8,6,3,11,tongs,Did you see the tongs,0.16,0,resources/,pics/sewingmachine01a.jpg,pics/shovel01.jpg,pics/football.jpg,pics/hen.jpg,pics/banjo.jpg,pics/zebra.jpg,pics/tongs01b.jpg,pics/stapler11.jpg,pics/shipinabottle.jpg,pics/match.jpg,pics/candle01.jpg,blankImage,blankImage,blankImage,blankImage,blankImage,blankImage,tongs01b,5,,,,,,,,,,,,,,,,,,,,,,,,,,,,,,,,,,,,,,,,,,,,,,,,,,,,,,,,,,,,,,,,,,,,,,,,,,,,,,,,,,,,,,,,,,,,,,,,,,,,
,,,,,5fa2e56fe794555527f2c8ef,6682b41eeb79ab8215dff63d,6682b5f219f7e4d55acfa83c,24,Female,English,2024-07-01_15h00.54.210,ABmemTask3,2023.2.3,Win32,2.99850075,,,,,,,,,,,,,,,,,,,,,,,,,,,,,,,757.0372,758.1719,758.172,0,758.5616,758.5772,0.002,758.5783,0.0013,0.0015,0.001,0.0014,0.0013,0.0012,0.0015,0.0009,0.0014,0.0007,0.002,758.5784,759.3642,right,0.3936,0.0003,759.3644,760.4617,right,0.7493,,14,0,22,760.4618,761.2213,0,10,10,10,1,prac_AB,L1_T1A_T2A,1,0,0,7,8,6,4,12,camera,Did you see the camera,0.15,0,resources/,pics/lightswitch01.jpg,pics/table01.jpg,pics/aquarium.jpg,pics/boot02b.jpg,pics/butterfly.jpg,pics/chainsaw.jpg,pics/binoculars01b.jpg,pics/giraffe.jpg,pics/triangle.jpg,pics/microscope.jpg,pics/mummy.jpg,pics/icecube01.jpg,blankImage,blankImage,blankImage,blankImage,blankImage,camera01a,10,,,,,,,,,,,,,,,,,,,,,,,,,,,,,,,,,,,,,,,,,,,,,,,,,,,,,,,,,,,,,,,,,,,,,,,,,,,,,,,,,,,,,,,,,,,,,,,,,,,,
,,,,,5fa2e56fe794555527f2c8ef,6682b41eeb79ab8215dff63d,6682b5f219f7e4d55acfa83c,24,Female,English,2024-07-01_15h00.54.210,ABmemTask3,2023.2.3,Win32,2.99850075,,,,,,,,,,,,,,,,,,,,,,,,,,,,,,,761.2222,761.9507,761.9508,0,762.3044,762.3171,0.0021,762.318,0.0012,0.0009,0.0017,0.0013,0.0011,0.001,0.0014,0.0012,0.0012,,,762.3181,764.2325,right,1.5519,,764.2326,764.9837,right,0.3889,,16,0,24,764.9838,765.7791,0,11,11,11,1,prac_AB,L1_T1P_T2P,1,1,1,6,7,5,3,10,shorts,Did you see the shorts,0.14,0,resources/,pics/snowshoe.jpg,pics/chainsaw.jpg,pics/sailboat.jpg,pics/ball02.jpg,pics/candleholder01.jpg,pics/shorts01.jpg,pics/stapler07.jpg,pics/peach01.jpg,pics/proboscismonkey.jpg,pics/hen.jpg,blankImage,blankImage,blankImage,blankImage,blankImage,blankImage,blankImage,shorts01,4,,,,,,,,,,,,,,,,,,,,,,,,,,,,,,,,,,,,,,,,,,,,,,,,,,,,,,,,,,,,,,,,,,,,,,,,,,,,,,,,,,,,,,,,,,,,,,,,,,,,
,,,,,5fa2e56fe794555527f2c8ef,6682b41eeb79ab8215dff63d,6682b5f219f7e4d55acfa83c,24,Female,English,2024-07-01_15h00.54.210,ABmemTask3,2023.2.3,Win32,2.99850075,,,,,,,,,,,,,,,,,,,,,,,,,,,,,,,765.7799,766.5275,766.5275,0,766.9415,766.9606,0.0016,766.9616,0.002,0.002,0.0015,0.0014,0.0015,0.0011,0.0007,0.0016,0.0013,0.0015,0.0018,766.9616,771.5379,right,4.2078,,771.538,772.3327,right,0.3993,0.0005,14,0,26,772.3328,773.1292,0,12,12,12,1,prac_AB,L5_T1P_T2A,5,1,0,5,10,4,3,13,fish,Did you see the fish,0.13,0,resources/,pics/football.jpg,pics/safetypin.jpg,pics/shovel01.jpg,pics/sink.jpg,pics/holdfast.jpg,pics/nutcracker01.jpg,pics/starfish01.jpg,pics/onion.jpg,pics/footballhelmet.jpg,pics/boot02b.jpg,pics/sewingmachine01a.jpg,pics/kangaroo.jpg,pics/banjo.jpg,blankImage,blankImage,blankImage,blankImage,holdfast,14,0.0015,,,,,,,,,,,,,,,,,,,,,,,,,,,,,,,,,,,,,,,,,,,,,,,,,,,,,,,,,,,,,,,,,,,,,,,,,,,,,,,,,,,,,,,,,,,,,,,,,,,
,,,,,5fa2e56fe794555527f2c8ef,6682b41eeb79ab8215dff63d,6682b5f219f7e4d55acfa83c,24,Female,English,2024-07-01_15h00.54.210,ABmemTask3,2023.2.3,Win32,2.99850075,,,,,,,,,,,,,,,,,,,,,,,,,,,,,,,773.1522,773.9164,773.9166,0,774.302,774.3151,0.002,774.3162,0.0012,0.0012,0.0012,0.0014,0.0009,0.0014,0.0014,0.0014,0.0011,,,774.3163,775.8221,right,1.1591,0.0005,775.8222,777.4033,right,1.1877,0.0003,16,0,28,777.4034,778.169,0,13,13,13,1,prac_AB,L1_T1P_T2P,1,1,1,5,6,4,4,10,fish,Did you see the fish,0.12,0,resources/,pics/butterfly.jpg,pics/banjo.jpg,pics/leaf02a.jpg,pics/dustpan.jpg,pics/sturgeon.jpg,pics/stapler02.jpg,pics/necklace.jpg,pics/shovel01.jpg,pics/starfish01.jpg,pics/chainsaw.jpg,blankImage,blankImage,blankImage,blankImage,blankImage,blankImage,blankImage,sturgeon,3,,,,,,,,,,,,,,,,,,,,,,,,,,,,,,,,,,,,,,,,,,,,,,,,,,,,,,,,,,,,,,,,,,,,,,,,,,,,,,,,,,,,,,,,,,,,,,,,,,,,
,,,,,5fa2e56fe794555527f2c8ef,6682b41eeb79ab8215dff63d,6682b5f219f7e4d55acfa83c,24,Female,English,2024-07-01_15h00.54.210,ABmemTask3,2023.2.3,Win32,2.99850075,,,,,,,,,,,,,,,,,,,,,,,,,,,,,,,,,,,,,,,,,,,,,,,,,,,,,,,,,,,,,,,,,,,,,,,,,,,,,,,,,,,,,,,,,,,,,,,,,,,,,,,,,,,778.1692,808.1992,space,29.5549,0.003,,,,,,,,,,,,,,,,,,,,,,,,,,,,,,,,,,,,,,,,,,,,,,,,,,,,,,,,,,,,,,,,,,,,,,,,,,,,,,,,,,,,,,,,,,,,
,,,,,5fa2e56fe794555527f2c8ef,6682b41eeb79ab8215dff63d,6682b5f219f7e4d55acfa83c,24,Female,English,2024-07-01_15h00.54.210,ABmemTask3,2023.2.3,Win32,2.99850075,,,,,,,,,,,,,,,,,,,,,,,,,,,,,,,808.2939,809.1742,809.1743,1,809.6392,814.7371,0.0041,815.1735,0.49,0.5654,0.4073,0.4161,0.4864,0.4335,0.4403,0.404,0.4751,0.5133,0.463,815.1738,816.3681,right,0.7574,,816.3682,817.254,left,0.4513,,2,0,2,817.2541,818.0815,0,0,0,0,1,prac_AB,L1_T1P_T2A,1,1,0,6,7,5,5,12,cat,Did you see the cat,0.25,0,resources/,pics/shipinabottle.jpg,pics/table01.jpg,pics/dustpan.jpg,pics/golfball.jpg,pics/giraffe.jpg,pics/cat.jpg,pics/peanut01.jpg,pics/pictureframe04.jpg,pics/fanblades.jpg,pics/laptop01a.jpg,pics/ball02.jpg,pics/blender.jpg,blankImage,blankImage,blankImage,blankImage,blankImage,cat,8,,,,,,,,,,,,,,,,,,,,,,,,,,,,,,,,,,,,,,,,,,,,,,,,,,,,,,,,,,,,,,,,,,,,,,,,,,,,,,,,,,,,,,,,,,,,,,,,,,,,
,,,,,5fa2e56fe794555527f2c8ef,6682b41eeb79ab8215dff63d,6682b5f219f7e4d55acfa83c,24,Female,English,2024-07-01_15h00.54.210,ABmemTask3,2023.2.3,Win32,2.99850075,,,,,,,,,,,,,,,,,,,,,,,,,,,,,,,818.0832,818.9109,818.9109,1,819.2781,823.109,0.0012,823.528,0.4014,0.457,0.4148,0.4024,0.4756,0.4381,0.4282,0.4,0.4134,,,823.5281,825.0655,right,1.1634,,825.0656,825.8486,right,0.428,,4,0,4,825.8487,826.6835,0,1,1,1,1,prac_AB,L1_T1P_T2P,1,1,1,5,6,4,4,10,tree,Did you see the tree,0.24,0,resources/,pics/carrot01.jpg,pics/hammerheadshark.jpg,pics/kangaroo.jpg,pics/proboscismonkey.jpg,pics/tree.jpg,pics/stapler07.jpg,pics/siamesecat.jpg,pics/ball02.jpg,pics/pictureframe04.jpg,pics/mummy.jpg,blankImage,blankImage,blankImage,blankImage,blankImage,blankImage,blankImage,tree,1,,,,,,,,,,,,,,,,,,,,,,,,,,,,,,,,,,,,,,,,,,,,,,,,,,,,,,,,,,,,,,,,,,,,,,,,,,,,,,,,,,,,,,,,,,,,,,,,,,,,
,,,,,5fa2e56fe794555527f2c8ef,6682b41eeb79ab8215dff63d,6682b5f219f7e4d55acfa83c,24,Female,English,2024-07-01_15h00.54.210,ABmemTask3,2023.2.3,Win32,2.99850075,,,,,,,,,,,,,,,,,,,,,,,,,,,,,,,826.6843,827.5214,827.5214,1,827.8997,832.7429,0.0019,833.2184,0.4661,0.4379,0.3865,0.4561,0.4658,0.4184,0.4315,0.4492,0.4706,0.4017,0.4577,833.2185,835.1635,left,1.5074,0.0004,835.1636,836.5432,right,0.8674,0.0004,6,0,6,836.5433,837.3099,0,2,2,2,1,prac_AB,L1_T1A_T2P,1,0,1,7,8,6,4,12,grapes,Did you see the grapes,0.23,0,resources/,pics/sailboat.jpg,pics/butterfly.jpg,pics/giraffe.jpg,pics/spoon01.jpg,pics/hose.jpg,pics/nutcracker01.jpg,pics/table01.jpg,pics/stapler13.jpg,pics/pencil01.jpg,pics/football.jpg,pics/triangle.jpg,pics/hairdryer02a.jpg,blankImage,blankImage,blankImage,blankImage,blankImage,grape01,6,,,,,,,,,,,,,,,,,,,,,,,,,,,,,,,,,,,,,,,,,,,,,,,,,,,,,,,,,,,,,,,,,,,,,,,,,,,,,,,,,,,,,,,,,,,,,,,,,,,,
,,,,,5fa2e56fe794555527f2c8ef,6682b41eeb79ab8215dff63d,6682b5f219f7e4d55acfa83c,24,Female,English,2024-07-01_15h00.54.210,ABmemTask3,2023.2.3,Win32,2.99850075,,,,,,,,,,,,,,,,,,,,,,,,,,,,,,,837.3327,838.0849,838.085,1,838.4902,844.6884,0.0018,845.1805,0.4421,0.442,0.4057,0.43,0.4376,0.4617,0.4166,0.4461,0.4635,0.4113,0.4566,845.1806,846.478,right,0.8903,0.0006,846.478,847.2919,right,0.4464,,8,0,8,847.292,848.0832,0,3,3,3,1,prac_AB,L5_T1P_T2P,5,1,1,7,12,6,3,15,Human skull,Did you see the Human skull,0.22,0,resources/,pics/peach01.jpg,pics/proboscismonkey.jpg,pics/hose.jpg,pics/laptop01a.jpg,pics/hammerheadshark.jpg,pics/nutcracker01.jpg,pics/humanskull.jpg,pics/table01.jpg,pics/icecube01.jpg,pics/boot02b.jpg,pics/calendar.jpg,pics/stapler03a.jpg,pics/ashtray01.jpg,pics/giraffe.jpg,pics/dromedary.jpg,blankImage,blankImage,humanskull,12,0.4157,0.5078,0.4596,,,,,,,,,,,,,,,,,,,,,,,,,,,,,,,,,,,,,,,,,,,,,,,,,,,,,,,,,,,,,,,,,,,,,,,,,,,,,,,,,,,,,,,,,,,,,,,,,
,,,,,5fa2e56fe794555527f2c8ef,6682b41eeb79ab8215dff63d,6682b5f219f7e4d55acfa83c,24,Female,English,2024-07-01_15h00.54.210,ABmemTask3,2023.2.3,Win32,2.99850075,,,,,,,,,,,,,,,,,,,,,,,,,,,,,,,848.084,848.8469,848.847,1,849.2226,853.5334,0.0019,854.0229,0.4251,0.4027,0.4718,0.4023,0.4535,0.406,0.4331,0.4008,0.4576,0.4562,,854.0229,855.638,left,1.2341,0.0004,855.638,856.8099,right,0.7661,0.0003,10,0,10,856.8101,857.6757,0,4,4,4,1,prac_AB,L1_T1A_T2P,1,0,1,7,8,6,3,11,dog,Did you see the dog,0.21,0,resources/,pics/ball02.jpg,pics/binder03b.jpg,pics/dromedary.jpg,pics/shipinabottle.jpg,pics/proboscismonkey.jpg,pics/laptop01a.jpg,pics/chainsaw.jpg,pics/stapler13.jpg,pics/nutcracker01.jpg,pics/carrot01.jpg,pics/calendar.jpg,blankImage,blankImage,blankImage,blankImage,blankImage,blankImage,saintbernard,7,,,,,,,,,,,,,,,,,,,,,,,,,,,,,,,,,,,,,,,,,,,,,,,,,,,,,,,,,,,,,,,,,,,,,,,,,,,,,,,,,,,,,,,,,,,,,,,,,,,,
,,,,,5fa2e56fe794555527f2c8ef,6682b41eeb79ab8215dff63d,6682b5f219f7e4d55acfa83c,24,Female,English,2024-07-01_15h00.54.210,ABmemTask3,2023.2.3,Win32,2.99850075,,,,,,,,,,,,,,,,,,,,,,,,,,,,,,,857.6763,858.4659,858.466,1,858.8547,864.9686,0.0016,865.3925,0.415,0.4215,0.4025,0.469,0.4092,0.453,0.4643,0.4562,0.4601,0.4713,0.4203,865.3926,866.5186,right,0.7666,0.0004,866.5187,867.3281,right,0.4358,0.0005,12,0,12,867.3283,868.1029,0,5,5,5,1,prac_AB,L5_T1P_T2P,5,1,1,5,10,4,5,15,grater,Did you see the grater,0.2,0,resources/,pics/pencil01.jpg,pics/laptop01a.jpg,pics/hammerheadshark.jpg,pics/cork02.jpg,pics/grater01a.jpg,pics/shipinabottle.jpg,pics/binder03b.jpg,pics/dromedary.jpg,pics/pictureframe04.jpg,pics/stapler04b.jpg,pics/fanblades.jpg,pics/aquarium.jpg,pics/hairdryer02a.jpg,pics/lightswitch01.jpg,pics/piggybank.jpg,blankImage,blankImage,grater01a,11,0.4599,0.3985,0.4123,,,,,,,,,,,,,,,,,,,,,,,,,,,,,,,,,,,,,,,,,,,,,,,,,,,,,,,,,,,,,,,,,,,,,,,,,,,,,,,,,,,,,,,,,,,,,,,,,
,,,,,5fa2e56fe794555527f2c8ef,6682b41eeb79ab8215dff63d,6682b5f219f7e4d55acfa83c,24,Female,English,2024-07-01_15h00.54.210,ABmemTask3,2023.2.3,Win32,2.99850075,,,,,,,,,,,,,,,,,,,,,,,,,,,,,,,868.1035,868.8963,868.8964,1,869.3027,872.7759,0.0028,873.1643,0.4617,0.4155,0.4633,0.4406,0.4222,0.4165,0.4509,0.4002,,,,873.1643,874.4419,right,0.8551,0.0004,874.4421,875.2436,left,0.4323,,14,0,14,875.2436,876.0733,0,6,6,6,1,prac_AB,L1_T1P_T2A,1,1,0,4,5,3,4,9,chalk,Did you see the chalk,0.19,0,resources/,pics/necklace.jpg,pics/starfish01.jpg,pics/safetypin.jpg,pics/chalk.jpg,pics/candleholder01.jpg,pics/bowtie.jpg,pics/match.jpg,pics/candle01.jpg,pics/pencilsharpener02a.jpg,blankImage,blankImage,blankImage,blankImage,blankImage,blankImage,blankImage,blankImage,chalk,9,,,,,,,,,,,,,,,,,,,,,,,,,,,,,,,,,,,,,,,,,,,,,,,,,,,,,,,,,,,,,,,,,,,,,,,,,,,,,,,,,,,,,,,,,,,,,,,,,,,,
,,,,,5fa2e56fe794555527f2c8ef,6682b41eeb79ab8215dff63d,6682b5f219f7e4d55acfa83c,24,Female,English,2024-07-01_15h00.54.210,ABmemTask3,2023.2.3,Win32,2.99850075,,,,,,,,,,,,,,,,,,,,,,,,,,,,,,,876.0741,876.8674,876.8675,1,877.2453,881.249,0.0018,881.6936,0.4214,0.4592,0.399,0.4202,0.4017,0.4525,0.4642,0.4242,0.5599,,,881.6937,883.2064,right,1.1433,0.0004,883.2065,883.9601,right,0.387,0.0004,16,0,16,883.9602,884.7133,0,7,7,7,1,prac_AB,L1_T1P_T2P,1,1,1,5,6,4,4,10,pants,Did you see the pants,0.18,0,resources/,pics/kangaroo.jpg,pics/safetypin.jpg,pics/salmon.jpg,pics/sandbarshark.jpg,pics/pants.jpg,pics/stapler03a.jpg,pics/sink.jpg,pics/calendar.jpg,pics/butterfly.jpg,pics/fanblades.jpg,blankImage,blankImage,blankImage,blankImage,blankImage,blankImage,blankImage,pants,2,,,,,,,,,,,,,,,,,,,,,,,,,,,,,,,,,,,,,,,,,,,,,,,,,,,,,,,,,,,,,,,,,,,,,,,,,,,,,,,,,,,,,,,,,,,,,,,,,,,,
,,,,,5fa2e56fe794555527f2c8ef,6682b41eeb79ab8215dff63d,6682b5f219f7e4d55acfa83c,24,Female,English,2024-07-01_15h00.54.210,ABmemTask3,2023.2.3,Win32,2.99850075,,,,,,,,,,,,,,,,,,,,,,,,,,,,,,,884.7139,885.4575,885.4577,1,885.823,891.8765,0.0023,892.3307,0.4532,0.47,0.4589,0.3974,0.4593,0.4173,0.4491,0.4559,0.4005,0.4034,0.4025,892.3307,896.2014,left,3.511,,896.2015,896.9654,right,0.3936,0.0005,18,0,18,896.9654,897.7622,0,8,8,8,1,prac_AB,L5_T1A_T2P,5,0,1,7,12,6,3,15,shirt,Did you see the shirt,0.17,0,resources/,pics/banjo.jpg,pics/chainsaw.jpg,pics/sailboat.jpg,pics/shipinabottle.jpg,pics/lightswitch01.jpg,pics/starfish01.jpg,pics/hen.jpg,pics/ball02.jpg,pics/bowlingpin.jpg,pics/hammerheadshark.jpg,pics/footballhelmet.jpg,pics/stapler10.jpg,pics/laptop01a.jpg,pics/cannon.jpg,pics/golfball.jpg,blankImage,blankImage,shirt02,13,0.416,0.453,0.4149,,,,,,,,,,,,,,,,,,,,,,,,,,,,,,,,,,,,,,,,,,,,,,,,,,,,,,,,,,,,,,,,,,,,,,,,,,,,,,,,,,,,,,,,,,,,,,,,,
,,,,,5fa2e56fe794555527f2c8ef,6682b41eeb79ab8215dff63d,6682b5f219f7e4d55acfa83c,24,Female,English,2024-07-01_15h00.54.210,ABmemTask3,2023.2.3,Win32,2.99850075,,,,,,,,,,,,,,,,,,,,,,,,,,,,,,,897.7831,898.5248,898.5249,0,898.8963,898.9103,0.0018,898.9115,0.001,0.0009,0.0014,0.0011,0.001,0.0017,0.0018,0.0015,0.0009,0.0013,,898.9115,900.0981,right,0.8235,,900.0982,900.946,right,0.4467,,20,0,20,900.9461,901.7118,0,9,9,9,1,prac_AB,L1_T1P_T2P,1,1,1,7,8,6,3,11,tongs,Did you see the tongs,0.16,0,resources/,pics/sewingmachine01a.jpg,pics/shovel01.jpg,pics/football.jpg,pics/hen.jpg,pics/banjo.jpg,pics/zebra.jpg,pics/tongs01b.jpg,pics/stapler11.jpg,pics/shipinabottle.jpg,pics/match.jpg,pics/candle01.jpg,blankImage,blankImage,blankImage,blankImage,blankImage,blankImage,tongs01b,5,,,,,,,,,,,,,,,,,,,,,,,,,,,,,,,,,,,,,,,,,,,,,,,,,,,,,,,,,,,,,,,,,,,,,,,,,,,,,,,,,,,,,,,,,,,,,,,,,,,,
,,,,,5fa2e56fe794555527f2c8ef,6682b41eeb79ab8215dff63d,6682b5f219f7e4d55acfa83c,24,Female,English,2024-07-01_15h00.54.210,ABmemTask3,2023.2.3,Win32,2.99850075,,,,,,,,,,,,,,,,,,,,,,,,,,,,,,,901.7123,902.5861,902.5861,0,902.9515,902.9743,0.0021,902.9754,0.0026,0.0014,0.0015,0.0012,0.0013,0.004,0.0011,0.002,0.0014,0.0028,0.0017,902.9754,904.5131,left,1.1473,,904.5132,905.694,right,0.7676,0.0005,18,0,22,905.694,906.5028,0,10,10,10,1,prac_AB,L1_T1A_T2A,1,0,0,7,8,6,4,12,camera,Did you see the camera,0.15,0,resources/,pics/lightswitch01.jpg,pics/table01.jpg,pics/aquarium.jpg,pics/boot02b.jpg,pics/butterfly.jpg,pics/chainsaw.jpg,pics/binoculars01b.jpg,pics/giraffe.jpg,pics/triangle.jpg,pics/microscope.jpg,pics/mummy.jpg,pics/icecube01.jpg,blankImage,blankImage,blankImage,blankImage,blankImage,camera01a,10,,,,,,,,,,,,,,,,,,,,,,,,,,,,,,,,,,,,,,,,,,,,,,,,,,,,,,,,,,,,,,,,,,,,,,,,,,,,,,,,,,,,,,,,,,,,,,,,,,,,
,,,,,5fa2e56fe794555527f2c8ef,6682b41eeb79ab8215dff63d,6682b5f219f7e4d55acfa83c,24,Female,English,2024-07-01_15h00.54.210,ABmemTask3,2023.2.3,Win32,2.99850075,,,,,,,,,,,,,,,,,,,,,,,,,,,,,,,906.5036,907.277,907.2772,0,907.6629,907.677,0.0018,907.6778,0.0014,0.0016,0.0013,0.0012,0.0022,0.001,0.0017,0.0012,0.001,,,907.6778,908.8803,left,0.8313,,908.8804,909.6995,right,0.4015,,18,0,24,909.6996,910.5464,0,11,11,11,1,prac_AB,L1_T1P_T2P,1,1,1,6,7,5,3,10,shorts,Did you see the shorts,0.14,0,resources/,pics/snowshoe.jpg,pics/chainsaw.jpg,pics/sailboat.jpg,pics/ball02.jpg,pics/candleholder01.jpg,pics/shorts01.jpg,pics/stapler07.jpg,pics/peach01.jpg,pics/proboscismonkey.jpg,pics/hen.jpg,blankImage,blankImage,blankImage,blankImage,blankImage,blankImage,blankImage,shorts01,4,,,,,,,,,,,,,,,,,,,,,,,,,,,,,,,,,,,,,,,,,,,,,,,,,,,,,,,,,,,,,,,,,,,,,,,,,,,,,,,,,,,,,,,,,,,,,,,,,,,,
,,,,,5fa2e56fe794555527f2c8ef,6682b41eeb79ab8215dff63d,6682b5f219f7e4d55acfa83c,24,Female,English,2024-07-01_15h00.54.210,ABmemTask3,2023.2.3,Win32,2.99850075,,,,,,,,,,,,,,,,,,,,,,,,,,,,,,,910.5474,911.6986,911.6987,0,912.0755,912.0935,0.0015,912.0946,0.0014,0.001,0.0016,0.0018,0.0013,0.0013,0.0014,0.0016,0.0016,0.0009,0.0015,912.0947,913.2453,right,0.7695,,913.2454,914.4611,left,0.8132,0.0007,20,0,26,914.4612,915.2357,0,12,12,12,1,prac_AB,L5_T1P_T2A,5,1,0,5,10,4,3,13,fish,Did you see the fish,0.13,0,resources/,pics/football.jpg,pics/safetypin.jpg,pics/shovel01.jpg,pics/sink.jpg,pics/holdfast.jpg,pics/nutcracker01.jpg,pics/starfish01.jpg,pics/onion.jpg,pics/footballhelmet.jpg,pics/boot02b.jpg,pics/sewingmachine01a.jpg,pics/kangaroo.jpg,pics/banjo.jpg,blankImage,blankImage,blankImage,blankImage,holdfast,14,0.0014,,,,,,,,,,,,,,,,,,,,,,,,,,,,,,,,,,,,,,,,,,,,,,,,,,,,,,,,,,,,,,,,,,,,,,,,,,,,,,,,,,,,,,,,,,,,,,,,,,,
,,,,,5fa2e56fe794555527f2c8ef,6682b41eeb79ab8215dff63d,6682b5f219f7e4d55acfa83c,24,Female,English,2024-07-01_15h00.54.210,ABmemTask3,2023.2.3,Win32,2.99850075,,,,,,,,,,,,,,,,,,,,,,,,,,,,,,,915.2364,916.0573,916.0574,0,916.4624,916.4764,0.0015,916.4772,0.0016,0.0013,0.0016,0.0012,0.0014,0.0018,0.0013,0.0011,0.0014,,,916.4774,918.0613,left,1.2292,0.0005,918.0614,918.8889,right,0.4203,0.0004,20,0,28,918.889,919.6768,0,13,13,13,1,prac_AB,L1_T1P_T2P,1,1,1,5,6,4,4,10,fish,Did you see the fish,0.12,0,resources/,pics/butterfly.jpg,pics/banjo.jpg,pics/leaf02a.jpg,pics/dustpan.jpg,pics/sturgeon.jpg,pics/stapler02.jpg,pics/necklace.jpg,pics/shovel01.jpg,pics/starfish01.jpg,pics/chainsaw.jpg,blankImage,blankImage,blankImage,blankImage,blankImage,blankImage,blankImage,sturgeon,3,,,,,,,,,,,,,,,,,,,,,,,,,,,,,,,,,,,,,,,,,,,,,,,,,,,,,,,,,,,,,,,,,,,,,,,,,,,,,,,,,,,,,,,,,,,,,,,,,,,,
,,,,,5fa2e56fe794555527f2c8ef,6682b41eeb79ab8215dff63d,6682b5f219f7e4d55acfa83c,24,Female,English,2024-07-01_15h00.54.210,ABmemTask3,2023.2.3,Win32,2.99850075,,,,,,,,,,,,,,,,,,,,,,,,,,,,,,,,,,,,,,,,,,,,,,,,,,,,,,,,,,,,,,,,,,,,,,,,,,,,,,,,,,,,,,,,,,,,,,,,,,,,,,,,,,,919.677,923.4457,space,3.3248,0.0006,,,,,,,,,,,,,,,,,,,,,,,,,,,,,,,,,,,,,,,,,,,,,,,,,,,,,,,,,,,,,,,,,,,,,,,,,,,,,,,,,,,,,,,,,,,,
,,,,,5fa2e56fe794555527f2c8ef,6682b41eeb79ab8215dff63d,6682b5f219f7e4d55acfa83c,24,Female,English,2024-07-01_15h00.54.210,ABmemTask3,2023.2.3,Win32,2.99850075,,,,,,,,,,,,,,,,,,,,,,,,,,,,,,,,,,,,,,,,,,,,,,,,,,,,,,,,,,,,,,,,,,,,,,,,,,,,,,,,,,,,,,,,,,,,,,,,,,,,,,,,,,,923.4749,923.4873,,,,,,,,,,,,,,,,,,,,,,,,,,,,,,,,,,,,,,,,,,,,,,,,,,,,,,,,,,,,,,,,,,,,,,,,,,,,,,,,,,,,,,,,,,,,,,,
,,,,,5fa2e56fe794555527f2c8ef,6682b41eeb79ab8215dff63d,6682b5f219f7e4d55acfa83c,24,Female,English,2024-07-01_15h00.54.210,ABmemTask3,2023.2.3,Win32,2.99850075,,,,,,,,,,,,,,,,,,,,,,,,,,,,,,,,,,,,,,,,,,,,,,,,,,,,,,,,,,,,,,,,,,,,,,,,,,,,,,,,,,,,,,,,,,,,,,,,,,,,,,,,,,,923.4948,923.495,,,,,,,,,,,,,,,,,,,,,,,,,,,,,,,,,,,,,,,,,,,,,,,,,,,,,,,,,,,,,,,,,,,,,,,,,,,,,,,,,,,,,,,,,,,,,,,
,,,,,5fa2e56fe794555527f2c8ef,6682b41eeb79ab8215dff63d,6682b5f219f7e4d55acfa83c,24,Female,English,2024-07-01_15h00.54.210,ABmemTask3,2023.2.3,Win32,2.99850075,,,,,,,,,,,,,,,,,,,,,,,,,,,,,,,,,,,,,,,,,,,,,,,,,,,,,,,,,,,,,,,,,,,,,,,,,,,,,,,,,,,,,,,,,,,,,,,,,,,,,,,,,,,923.5032,923.5034,,,,,,,,,,,,,,,,,,,,,,,,,,,,,,,,,,,,,,,,,,,,,,,,,,,,,,,,,,,,,,,,,,,,,,,,,,,,,,,,,,,,,,,,,,,,,,,
,,,,,5fa2e56fe794555527f2c8ef,6682b41eeb79ab8215dff63d,6682b5f219f7e4d55acfa83c,24,Female,English,2024-07-01_15h00.54.210,ABmemTask3,2023.2.3,Win32,2.99850075,,,,,,,,,,,,,,,,,,,,,,,,,,,,,,,,,,,,,,,,,,,,,,,,,,,,,,,,,,,,,,,,,,,,,,,,,,,,,,,,,,,,,,,,,,,,,,,,,,,,,,,,,,,923.5097,923.5099,,,,,,,,,,,,,,,,,,,,,,,,,,,,,,,,,,,,,,,,,,,,,,,,,,,,,,,,,,,,,,,,,,,,,,,,,,,,,,,,,,,,,,,,,,,,,,,
,,,,,5fa2e56fe794555527f2c8ef,6682b41eeb79ab8215dff63d,6682b5f219f7e4d55acfa83c,24,Female,English,2024-07-01_15h00.54.210,ABmemTask3,2023.2.3,Win32,2.99850075,,,,,,,,,,,,,,,,,,,,,,,,,,,,,,,,,,,,,,,,,,,,,,,,,,,,,,,,,,,,,,,,,,,,,,,,,,,,,,,,,,,,,,,,,,,,,,,,,,,,,,,,,,,923.5155,923.5156,,,,,,,,,,,,,,,,,,,,,,,,,,,,,,,,,,,,,,,,,,,,,,,,,,,,,,,,,,,,,,,,,,,,,,,,,,,,,,,,,,,,,,,,,,,,,,,
,,,,,5fa2e56fe794555527f2c8ef,6682b41eeb79ab8215dff63d,6682b5f219f7e4d55acfa83c,24,Female,English,2024-07-01_15h00.54.210,ABmemTask3,2023.2.3,Win32,2.99850075,,,,,,,,,,,,,,,,,,,,,,,,,,,,,,,,,,,,,,,,,,,,,,,,,,,,,,,,,,,,,,,,,,,,,,,,,,,,,,,,,,,,,,,,,,,,,,,,,,,,,,,,,,,923.5208,923.521,,,,,,,,,,,,,,,,,,,,,,,,,,,,,,,,,,,,,,,,,,,,,,,,,,,,,,,,,,,,,,,,,,,,,,,,,,,,,,,,,,,,,,,,,,,,,,,
,,,,,5fa2e56fe794555527f2c8ef,6682b41eeb79ab8215dff63d,6682b5f219f7e4d55acfa83c,24,Female,English,2024-07-01_15h00.54.210,ABmemTask3,2023.2.3,Win32,2.99850075,,,,,,,,,,,,,,,,,,,,,,,,,,,,,,,,,,,,,,,,,,,,,,,,,,,,,,,,,,,,,,,,,,,,,,,,,,,,,,,,,,,,,,,,,,,,,,,,,,,,,,,,,,,923.5304,923.5305,,,,,,,,,,,,,,,,,,,,,,,,,,,,,,,,,,,,,,,,,,,,,,,,,,,,,,,,,,,,,,,,,,,,,,,,,,,,,,,,,,,,,,,,,,,,,,,
