consent1.started,consent1.stopped,key_resp_8.keys,key_resp_8.rt,key_resp_8.duration,PROLIFIC_PID,STUDY_ID,SESSION_ID,age,sex,native language,date,expName,psychopyVersion,OS,frameRate,consent2.started,consent2.stopped,key_resp_9.keys,key_resp_9.rt,key_resp_9.duration,consent3.started,consent3.stopped,key_resp_10.keys,key_resp_10.rt,key_resp_10.duration,consent4.started,consent4.stopped,key_resp_11.keys,key_resp_11.rt,key_resp_11.duration,consent5.started,consent5.stopped,key_resp_12.keys,key_resp_12.rt,key_resp_12.duration,bonusInstruct.started,bonusInstruct.stopped,key_resp_14.keys,key_resp_14.rt,key_resp_14.duration,practiceInstruct.started,practiceInstruct.stopped,key_resp.keys,key_resp.rt,key_resp.duration,cueWord_2.started,cueWord_2.stopped,fix.started,frameTarget,fix.stopped,trial.started,img1Add,trial.stopped,img2Add,img3Add,img4Add,img5Add,img6Add,img7Add,img8Add,img9Add,img10Add,img11Add,img12Add,prompt1.started,prompt1.stopped,key_resp_2.keys,key_resp_2.rt,key_resp_2.duration,prompt2.started,prompt2.stopped,key_resp_3.keys,key_resp_3.rt,key_resp_3.duration,runningAcc_AB,runningTotal,runningCount_AB,feedback.started,feedback.stopped,trials.thisRepN,trials.thisTrialN,trials.thisN,trials.thisIndex,trials.ran,TrialType,CondType,Lag,T1_PA,T2_PA,T1Loc,T2Loc,PreDistractor,PostDistractor,TotalImg,cueWord,T1cue,StimLength,isi,PicFolder,Img1,Img2,Img3,Img4,Img5,Img6,Img7,Img8,Img9,Img10,Img11,Img12,Img13,Img14,Img15,Img16,Img17,T1_Identity,trialID,img13Add,img14Add,img15Add,ABfeedback.started,ABfeedback.stopped,key_resp_13.keys,key_resp_13.rt,key_resp_13.duration,MemPracticeInstruction.started,MemPracticeInstruction.stopped,key_resp_5.keys,key_resp_5.rt,key_resp_5.duration,memTrial.started,memTrial.stopped,Mem_runningPoints,key_resp_4.keys,key_resp_4.rt,key_resp_4.duration,memTrialFeedback.started,memTrialFeedback.stopped,trials_2.thisRepN,trials_2.thisTrialN,trials_2.thisN,trials_2.thisIndex,trials_2.ran,ABtrialID,priorLag,image,memFeedback.started,memFeedback.frame,memFeedback.ended,memFeedback.stopped,bonus.started,bonus.stopped,memoryBlockABInstruct.started,memoryBlockABInstruct.stopped,key_resp_6.keys,key_resp_6.rt,key_resp_6.duration,AB_block_1.thisRepN,AB_block_1.thisTrialN,AB_block_1.thisN,AB_block_1.thisIndex,AB_block_1.ran,img16Add,img17Add,AB_break1.started,AB_break1.stopped,PerceiveBlockABInstruct.started,PerceiveBlockABInstruct.stopped,key_resp_7.keys,key_resp_7.rt,key_resp_7.duration,AB_block_2.thisRepN,AB_block_2.thisTrialN,AB_block_2.thisN,AB_block_2.thisIndex,AB_block_2.ran,AB_break2.started,AB_break2.stopped,AB_block_3.thisRepN,AB_block_3.thisTrialN,AB_block_3.thisN,AB_block_3.thisIndex,AB_block_3.ran,AB_break3.started,AB_break3.stopped,AB_block_4.thisRepN,AB_block_4.thisTrialN,AB_block_4.thisN,AB_block_4.thisIndex,AB_block_4.ran,AB_break4.started,AB_break4.stopped,AB_block_5.thisRepN,AB_block_5.thisTrialN,AB_block_5.thisN,AB_block_5.thisIndex,AB_block_5.ran,AB_break5.started,AB_break5.stopped,AB_block_6.thisRepN,AB_block_6.thisTrialN,AB_block_6.thisN,AB_block_6.thisIndex,AB_block_6.ran,AB_break6.started,AB_break6.stopped,MemInstructionSURPRISE.started,MemInstructionSURPRISE.stopped,MemInstruction.started,MemInstruction.stopped,memBreak.started,memBreak.stopped,Mem_block_1.thisRepN,Mem_block_1.thisTrialN,Mem_block_1.thisN,Mem_block_1.thisIndex,Mem_block_1.ran
0.0003,7.2086,space,7.173,,62a347b1c0907ed12c916e96,6682b41eeb79ab8215dff63d,6682b8fb270aa9af2fb25979,20,female,english,2024-07-01_15h12.19.699,ABmemTask3,2023.2.3,Win32,59.88023952,,,,,,,,,,,,,,,,,,,,,,,,,,,,,,,,,,,,,,,,,,,,,,,,,,,,,,,,,,,,,,,,,,,,,,,,,,,,,,,,,,,,,,,,,,,,,,,,,,,,,,,,,,,,,,,,,,,,,,,,,,,,,,,,,,,,,,,,,,,,,,,,,,,,,,,,,,,,,,,,,,,,,,,,,,,,,,,,,,,,,,,,,,,,,,,,,,,,,,,,,,,
,,,,,62a347b1c0907ed12c916e96,6682b41eeb79ab8215dff63d,6682b8fb270aa9af2fb25979,20,female,english,2024-07-01_15h12.19.699,ABmemTask3,2023.2.3,Win32,59.88023952,7.209,15.585,space,8.3095,,,,,,,,,,,,,,,,,,,,,,,,,,,,,,,,,,,,,,,,,,,,,,,,,,,,,,,,,,,,,,,,,,,,,,,,,,,,,,,,,,,,,,,,,,,,,,,,,,,,,,,,,,,,,,,,,,,,,,,,,,,,,,,,,,,,,,,,,,,,,,,,,,,,,,,,,,,,,,,,,,,,,,,,,,,,,,,,,,,,,,,,,,,,,,,,,,,,,,,
,,,,,62a347b1c0907ed12c916e96,6682b41eeb79ab8215dff63d,6682b8fb270aa9af2fb25979,20,female,english,2024-07-01_15h12.19.699,ABmemTask3,2023.2.3,Win32,59.88023952,,,,,,15.5852,17.9656,space,2.3417,,,,,,,,,,,,,,,,,,,,,,,,,,,,,,,,,,,,,,,,,,,,,,,,,,,,,,,,,,,,,,,,,,,,,,,,,,,,,,,,,,,,,,,,,,,,,,,,,,,,,,,,,,,,,,,,,,,,,,,,,,,,,,,,,,,,,,,,,,,,,,,,,,,,,,,,,,,,,,,,,,,,,,,,,,,,,,,,,,,,,,,,,,,,,,,,,,
,,,,,62a347b1c0907ed12c916e96,6682b41eeb79ab8215dff63d,6682b8fb270aa9af2fb25979,20,female,english,2024-07-01_15h12.19.699,ABmemTask3,2023.2.3,Win32,59.88023952,,,,,,,,,,,17.9658,18.7481,space,0.7513,,,,,,,,,,,,,,,,,,,,,,,,,,,,,,,,,,,,,,,,,,,,,,,,,,,,,,,,,,,,,,,,,,,,,,,,,,,,,,,,,,,,,,,,,,,,,,,,,,,,,,,,,,,,,,,,,,,,,,,,,,,,,,,,,,,,,,,,,,,,,,,,,,,,,,,,,,,,,,,,,,,,,,,,,,,,,,,,,,,,,,,,,,,,,
,,,,,62a347b1c0907ed12c916e96,6682b41eeb79ab8215dff63d,6682b8fb270aa9af2fb25979,20,female,english,2024-07-01_15h12.19.699,ABmemTask3,2023.2.3,Win32,59.88023952,,,,,,,,,,,,,,,,18.7484,19.1642,space,0.3859,,,,,,,,,,,,,,,,,,,,,,,,,,,,,,,,,,,,,,,,,,,,,,,,,,,,,,,,,,,,,,,,,,,,,,,,,,,,,,,,,,,,,,,,,,,,,,,,,,,,,,,,,,,,,,,,,,,,,,,,,,,,,,,,,,,,,,,,,,,,,,,,,,,,,,,,,,,,,,,,,,,,,,,,,,,,,,,,,,,,,,,,
,,,,,62a347b1c0907ed12c916e96,6682b41eeb79ab8215dff63d,6682b8fb270aa9af2fb25979,20,female,english,2024-07-01_15h12.19.699,ABmemTask3,2023.2.3,Win32,59.88023952,,,,,,,,,,,,,,,,,,,,,19.1644,26.6582,space,7.4654,,,,,,,,,,,,,,,,,,,,,,,,,,,,,,,,,,,,,,,,,,,,,,,,,,,,,,,,,,,,,,,,,,,,,,,,,,,,,,,,,,,,,,,,,,,,,,,,,,,,,,,,,,,,,,,,,,,,,,,,,,,,,,,,,,,,,,,,,,,,,,,,,,,,,,,,,,,,,,,,,,,,,,,,,,,,,,,,,,,
,,,,,62a347b1c0907ed12c916e96,6682b41eeb79ab8215dff63d,6682b8fb270aa9af2fb25979,20,female,english,2024-07-01_15h12.19.699,ABmemTask3,2023.2.3,Win32,59.88023952,,,,,,,,,,,,,,,,,,,,,,,,,,26.6584,45.5419,space,18.855,,,,,,,,,,,,,,,,,,,,,,,,,,,,,,,,,,,,,,,,,,,,,,,,,,,,,,,,,,,,,,,,,,,,,,,,,,,,,,,,,,,,,,,,,,,,,,,,,,,,,,,,,,,,,,,,,,,,,,,,,,,,,,,,,,,,,,,,,,,,,,,,,,,,,,,,,,,,,,,,,,,,,,,,,,,,,,
,,,,,62a347b1c0907ed12c916e96,6682b41eeb79ab8215dff63d,6682b8fb270aa9af2fb25979,20,female,english,2024-07-01_15h12.19.699,ABmemTask3,2023.2.3,Win32,59.88023952,,,,,,,,,,,,,,,,,,,,,,,,,,,,,,,45.5618,46.5606,46.5608,15,47.0561,49.804,0.0018,50.0534,0.2488,0.2494,0.25,0.2497,0.2494,0.2504,0.2496,0.2495,0.2497,0.2496,0.2501,50.0544,51.6691,right,1.5824,,51.6692,53.3509,left,1.6552,,2,0,2,53.3513,54.3498,0,0,0,0,1,prac_AB,L1_T1P_T2A,1,1,0,6,7,5,5,12,cat,Did you see the cat,0.25,0,resources/,pics/shipinabottle.jpg,pics/table01.jpg,pics/dustpan.jpg,pics/golfball.jpg,pics/giraffe.jpg,pics/cat.jpg,pics/peanut01.jpg,pics/pictureframe04.jpg,pics/fanblades.jpg,pics/laptop01a.jpg,pics/ball02.jpg,pics/blender.jpg,blankImage,blankImage,blankImage,blankImage,blankImage,cat,8,,,,,,,,,,,,,,,,,,,,,,,,,,,,,,,,,,,,,,,,,,,,,,,,,,,,,,,,,,,,,,,,,,,,,,,,,,,,,,,,,,,,,,,,,,,,,,,,,,,,
,,,,,62a347b1c0907ed12c916e96,6682b41eeb79ab8215dff63d,6682b8fb270aa9af2fb25979,20,female,english,2024-07-01_15h12.19.699,ABmemTask3,2023.2.3,Win32,59.88023952,,,,,,,,,,,,,,,,,,,,,,,,,,,,,,,54.3607,55.3487,55.3488,14,55.8482,57.9466,0.0016,58.1794,0.2321,0.2332,0.2332,0.2331,0.2331,0.2331,0.2332,0.2331,0.2329,,,58.1795,58.779,right,0.5744,,58.7791,59.1288,right,0.3233,,4,0,4,59.129,60.1278,0,1,1,1,1,prac_AB,L1_T1P_T2P,1,1,1,5,6,4,4,10,tree,Did you see the tree,0.24,0,resources/,pics/carrot01.jpg,pics/hammerheadshark.jpg,pics/kangaroo.jpg,pics/proboscismonkey.jpg,pics/tree.jpg,pics/stapler07.jpg,pics/siamesecat.jpg,pics/ball02.jpg,pics/pictureframe04.jpg,pics/mummy.jpg,blankImage,blankImage,blankImage,blankImage,blankImage,blankImage,blankImage,tree,1,,,,,,,,,,,,,,,,,,,,,,,,,,,,,,,,,,,,,,,,,,,,,,,,,,,,,,,,,,,,,,,,,,,,,,,,,,,,,,,,,,,,,,,,,,,,,,,,,,,,
,,,,,62a347b1c0907ed12c916e96,6682b41eeb79ab8215dff63d,6682b8fb270aa9af2fb25979,20,female,english,2024-07-01_15h12.19.699,ABmemTask3,2023.2.3,Win32,59.88023952,,,,,,,,,,,,,,,,,,,,,,,,,,,,,,,60.1284,61.1269,61.127,14,61.6265,64.1911,0.0013,64.4238,0.2324,0.2332,0.233,0.233,0.2336,0.2326,0.233,0.2333,0.2333,0.233,0.2331,64.4239,65.8227,left,1.3749,,65.8228,66.139,right,0.2931,,6,0,6,66.1391,67.1385,0,2,2,2,1,prac_AB,L1_T1A_T2P,1,0,1,7,8,6,4,12,grapes,Did you see the grapes,0.23,0,resources/,pics/sailboat.jpg,pics/butterfly.jpg,pics/giraffe.jpg,pics/spoon01.jpg,pics/hose.jpg,pics/nutcracker01.jpg,pics/table01.jpg,pics/stapler13.jpg,pics/pencil01.jpg,pics/football.jpg,pics/triangle.jpg,pics/hairdryer02a.jpg,blankImage,blankImage,blankImage,blankImage,blankImage,grape01,6,,,,,,,,,,,,,,,,,,,,,,,,,,,,,,,,,,,,,,,,,,,,,,,,,,,,,,,,,,,,,,,,,,,,,,,,,,,,,,,,,,,,,,,,,,,,,,,,,,,,
,,,,,62a347b1c0907ed12c916e96,6682b41eeb79ab8215dff63d,6682b8fb270aa9af2fb25979,20,female,english,2024-07-01_15h12.19.699,ABmemTask3,2023.2.3,Win32,59.88023952,,,,,,,,,,,,,,,,,,,,,,,,,,,,,,,67.1392,68.1374,68.1375,13,68.637,71.6679,0.0014,71.884,0.2157,0.2164,0.2164,0.2166,0.2166,0.2164,0.2164,0.2164,0.2165,0.2167,0.2161,71.8842,72.3503,right,0.4432,,72.3504,72.6836,right,0.3005,,8,0,8,72.6836,73.6826,0,3,3,3,1,prac_AB,L5_T1P_T2P,5,1,1,7,12,6,3,15,Human skull,Did you see the Human skull,0.22,0,resources/,pics/peach01.jpg,pics/proboscismonkey.jpg,pics/hose.jpg,pics/laptop01a.jpg,pics/hammerheadshark.jpg,pics/nutcracker01.jpg,pics/humanskull.jpg,pics/table01.jpg,pics/icecube01.jpg,pics/boot02b.jpg,pics/calendar.jpg,pics/stapler03a.jpg,pics/ashtray01.jpg,pics/giraffe.jpg,pics/dromedary.jpg,blankImage,blankImage,humanskull,12,0.2165,0.2165,0.2163,,,,,,,,,,,,,,,,,,,,,,,,,,,,,,,,,,,,,,,,,,,,,,,,,,,,,,,,,,,,,,,,,,,,,,,,,,,,,,,,,,,,,,,,,,,,,,,,,
,,,,,62a347b1c0907ed12c916e96,6682b41eeb79ab8215dff63d,6682b8fb270aa9af2fb25979,20,female,english,2024-07-01_15h12.19.699,ABmemTask3,2023.2.3,Win32,59.88023952,,,,,,,,,,,,,,,,,,,,,,,,,,,,,,,73.6831,74.6817,74.6818,13,75.1811,77.3463,0.0016,77.5623,0.2156,0.2166,0.2162,0.2165,0.2165,0.2225,0.2104,0.2164,0.2165,0.2169,,77.5624,78.1618,left,0.5743,,78.1619,78.4283,right,0.2402,,10,0,10,78.4284,79.4275,0,4,4,4,1,prac_AB,L1_T1A_T2P,1,0,1,7,8,6,3,11,dog,Did you see the dog,0.21,0,resources/,pics/ball02.jpg,pics/binder03b.jpg,pics/dromedary.jpg,pics/shipinabottle.jpg,pics/proboscismonkey.jpg,pics/laptop01a.jpg,pics/chainsaw.jpg,pics/stapler13.jpg,pics/nutcracker01.jpg,pics/carrot01.jpg,pics/calendar.jpg,blankImage,blankImage,blankImage,blankImage,blankImage,blankImage,saintbernard,7,,,,,,,,,,,,,,,,,,,,,,,,,,,,,,,,,,,,,,,,,,,,,,,,,,,,,,,,,,,,,,,,,,,,,,,,,,,,,,,,,,,,,,,,,,,,,,,,,,,,
,,,,,62a347b1c0907ed12c916e96,6682b41eeb79ab8215dff63d,6682b8fb270aa9af2fb25979,20,female,english,2024-07-01_15h12.19.699,ABmemTask3,2023.2.3,Win32,59.88023952,,,,,,,,,,,,,,,,,,,,,,,,,,,,,,,79.4281,80.4264,80.4264,12,80.926,83.7239,0.0014,83.9233,0.1992,0.1999,0.1996,0.1998,0.1997,0.2002,0.1995,0.1999,0.1997,0.2,0.1999,83.9234,84.5562,right,0.5997,,84.5563,84.9226,right,0.3333,,12,0,12,84.9226,85.9217,0,5,5,5,1,prac_AB,L5_T1P_T2P,5,1,1,5,10,4,5,15,grater,Did you see the grater,0.2,0,resources/,pics/pencil01.jpg,pics/laptop01a.jpg,pics/hammerheadshark.jpg,pics/cork02.jpg,pics/grater01a.jpg,pics/shipinabottle.jpg,pics/binder03b.jpg,pics/dromedary.jpg,pics/pictureframe04.jpg,pics/stapler04b.jpg,pics/fanblades.jpg,pics/aquarium.jpg,pics/hairdryer02a.jpg,pics/lightswitch01.jpg,pics/piggybank.jpg,blankImage,blankImage,grater01a,11,0.1998,0.1996,0.2,,,,,,,,,,,,,,,,,,,,,,,,,,,,,,,,,,,,,,,,,,,,,,,,,,,,,,,,,,,,,,,,,,,,,,,,,,,,,,,,,,,,,,,,,,,,,,,,,
,,,,,62a347b1c0907ed12c916e96,6682b41eeb79ab8215dff63d,6682b8fb270aa9af2fb25979,20,female,english,2024-07-01_15h12.19.699,ABmemTask3,2023.2.3,Win32,59.88023952,,,,,,,,,,,,,,,,,,,,,,,,,,,,,,,85.9224,86.9209,86.9209,11,87.4203,88.8861,0.0016,89.0688,0.1822,0.1829,0.1872,0.1794,0.1831,0.1831,0.1832,0.1835,,,,89.0689,91.5501,left,2.4572,,91.5502,92.1661,left,0.5924,,12,0,14,92.1662,93.1652,0,6,6,6,1,prac_AB,L1_T1P_T2A,1,1,0,4,5,3,4,9,chalk,Did you see the chalk,0.19,0,resources/,pics/necklace.jpg,pics/starfish01.jpg,pics/safetypin.jpg,pics/chalk.jpg,pics/candleholder01.jpg,pics/bowtie.jpg,pics/match.jpg,pics/candle01.jpg,pics/pencilsharpener02a.jpg,blankImage,blankImage,blankImage,blankImage,blankImage,blankImage,blankImage,blankImage,chalk,9,,,,,,,,,,,,,,,,,,,,,,,,,,,,,,,,,,,,,,,,,,,,,,,,,,,,,,,,,,,,,,,,,,,,,,,,,,,,,,,,,,,,,,,,,,,,,,,,,,,,
,,,,,62a347b1c0907ed12c916e96,6682b41eeb79ab8215dff63d,6682b8fb270aa9af2fb25979,20,female,english,2024-07-01_15h12.19.699,ABmemTask3,2023.2.3,Win32,59.88023952,,,,,,,,,,,,,,,,,,,,,,,,,,,,,,,93.1728,94.1644,94.1644,11,94.6639,96.3191,0.0013,96.4955,0.1827,0.1832,0.183,0.1831,0.1832,0.1833,0.1831,0.1833,0.1894,,,96.4956,96.8953,right,0.3668,,96.8954,97.2785,right,0.35,,14,0,16,97.2785,98.2773,0,7,7,7,1,prac_AB,L1_T1P_T2P,1,1,1,5,6,4,4,10,pants,Did you see the pants,0.18,0,resources/,pics/kangaroo.jpg,pics/safetypin.jpg,pics/salmon.jpg,pics/sandbarshark.jpg,pics/pants.jpg,pics/stapler03a.jpg,pics/sink.jpg,pics/calendar.jpg,pics/butterfly.jpg,pics/fanblades.jpg,blankImage,blankImage,blankImage,blankImage,blankImage,blankImage,blankImage,pants,2,,,,,,,,,,,,,,,,,,,,,,,,,,,,,,,,,,,,,,,,,,,,,,,,,,,,,,,,,,,,,,,,,,,,,,,,,,,,,,,,,,,,,,,,,,,,,,,,,,,,
,,,,,62a347b1c0907ed12c916e96,6682b41eeb79ab8215dff63d,6682b8fb270aa9af2fb25979,20,female,english,2024-07-01_15h12.19.699,ABmemTask3,2023.2.3,Win32,59.88023952,,,,,,,,,,,,,,,,,,,,,,,,,,,,,,,98.2778,99.2764,99.2765,10,99.7761,102.1076,0.0012,102.2737,0.1654,0.1671,0.1681,0.1648,0.1664,0.1667,0.1666,0.1666,0.1663,0.1668,0.1663,102.2738,103.0234,left,0.717,,103.0235,103.2896,right,0.2424,,16,0,18,103.2897,104.2886,0,8,8,8,1,prac_AB,L5_T1A_T2P,5,0,1,7,12,6,3,15,shirt,Did you see the shirt,0.17,0,resources/,pics/banjo.jpg,pics/chainsaw.jpg,pics/sailboat.jpg,pics/shipinabottle.jpg,pics/lightswitch01.jpg,pics/starfish01.jpg,pics/hen.jpg,pics/ball02.jpg,pics/bowlingpin.jpg,pics/hammerheadshark.jpg,pics/footballhelmet.jpg,pics/stapler10.jpg,pics/laptop01a.jpg,pics/cannon.jpg,pics/golfball.jpg,blankImage,blankImage,shirt02,13,0.1665,0.1663,0.1666,,,,,,,,,,,,,,,,,,,,,,,,,,,,,,,,,,,,,,,,,,,,,,,,,,,,,,,,,,,,,,,,,,,,,,,,,,,,,,,,,,,,,,,,,,,,,,,,,
,,,,,62a347b1c0907ed12c916e96,6682b41eeb79ab8215dff63d,6682b8fb270aa9af2fb25979,20,female,english,2024-07-01_15h12.19.699,ABmemTask3,2023.2.3,Win32,59.88023952,,,,,,,,,,,,,,,,,,,,,,,,,,,,,,,104.2892,105.2877,105.2877,10,105.7873,107.4529,0.0012,107.619,0.1661,0.1663,0.1666,0.1667,0.1665,0.1668,0.1661,0.1664,0.1666,0.1665,,107.6192,108.0355,right,0.3857,,108.0355,108.3519,right,0.2854,,18,0,20,108.352,109.3508,0,9,9,9,1,prac_AB,L1_T1P_T2P,1,1,1,7,8,6,3,11,tongs,Did you see the tongs,0.16,0,resources/,pics/sewingmachine01a.jpg,pics/shovel01.jpg,pics/football.jpg,pics/hen.jpg,pics/banjo.jpg,pics/zebra.jpg,pics/tongs01b.jpg,pics/stapler11.jpg,pics/shipinabottle.jpg,pics/match.jpg,pics/candle01.jpg,blankImage,blankImage,blankImage,blankImage,blankImage,blankImage,tongs01b,5,,,,,,,,,,,,,,,,,,,,,,,,,,,,,,,,,,,,,,,,,,,,,,,,,,,,,,,,,,,,,,,,,,,,,,,,,,,,,,,,,,,,,,,,,,,,,,,,,,,,
,,,,,62a347b1c0907ed12c916e96,6682b41eeb79ab8215dff63d,6682b8fb270aa9af2fb25979,20,female,english,2024-07-01_15h12.19.699,ABmemTask3,2023.2.3,Win32,59.88023952,,,,,,,,,,,,,,,,,,,,,,,,,,,,,,,109.3514,110.3499,110.35,9,110.8495,112.4984,0.0016,112.6479,0.1492,0.1495,0.15,0.1499,0.1518,0.1479,0.1499,0.1499,0.1497,0.15,0.15,112.648,114.1634,left,1.4823,,114.1634,114.5297,left,0.3383,,20,0,22,114.5298,115.5287,0,10,10,10,1,prac_AB,L1_T1A_T2A,1,0,0,7,8,6,4,12,camera,Did you see the camera,0.15,0,resources/,pics/lightswitch01.jpg,pics/table01.jpg,pics/aquarium.jpg,pics/boot02b.jpg,pics/butterfly.jpg,pics/chainsaw.jpg,pics/binoculars01b.jpg,pics/giraffe.jpg,pics/triangle.jpg,pics/microscope.jpg,pics/mummy.jpg,pics/icecube01.jpg,blankImage,blankImage,blankImage,blankImage,blankImage,camera01a,10,,,,,,,,,,,,,,,,,,,,,,,,,,,,,,,,,,,,,,,,,,,,,,,,,,,,,,,,,,,,,,,,,,,,,,,,,,,,,,,,,,,,,,,,,,,,,,,,,,,,
,,,,,62a347b1c0907ed12c916e96,6682b41eeb79ab8215dff63d,6682b8fb270aa9af2fb25979,20,female,english,2024-07-01_15h12.19.699,ABmemTask3,2023.2.3,Win32,59.88023952,,,,,,,,,,,,,,,,,,,,,,,,,,,,,,,115.5293,116.5278,116.5278,8,117.0274,118.2266,0.0012,118.3594,0.1326,0.1332,0.1334,0.1331,0.1333,0.1329,0.1335,0.1331,0.1332,,,118.3596,118.8926,right,0.5077,,118.8926,119.2755,right,0.3502,,22,0,24,119.2757,120.2746,0,11,11,11,1,prac_AB,L1_T1P_T2P,1,1,1,6,7,5,3,10,shorts,Did you see the shorts,0.14,0,resources/,pics/snowshoe.jpg,pics/chainsaw.jpg,pics/sailboat.jpg,pics/ball02.jpg,pics/candleholder01.jpg,pics/shorts01.jpg,pics/stapler07.jpg,pics/peach01.jpg,pics/proboscismonkey.jpg,pics/hen.jpg,blankImage,blankImage,blankImage,blankImage,blankImage,blankImage,blankImage,shorts01,4,,,,,,,,,,,,,,,,,,,,,,,,,,,,,,,,,,,,,,,,,,,,,,,,,,,,,,,,,,,,,,,,,,,,,,,,,,,,,,,,,,,,,,,,,,,,,,,,,,,,
,,,,,62a347b1c0907ed12c916e96,6682b41eeb79ab8215dff63d,6682b8fb270aa9af2fb25979,20,female,english,2024-07-01_15h12.19.699,ABmemTask3,2023.2.3,Win32,59.88023952,,,,,,,,,,,,,,,,,,,,,,,,,,,,,,,120.2753,121.2736,121.2736,8,121.7732,123.3721,0.0013,123.5049,0.1325,0.1332,0.133,0.1335,0.1331,0.1335,0.133,0.1331,0.1331,0.1334,0.1331,123.505,124.5043,right,0.9686,,124.5043,124.8875,left,0.3503,,24,0,26,124.8876,125.8861,0,12,12,12,1,prac_AB,L5_T1P_T2A,5,1,0,5,10,4,3,13,fish,Did you see the fish,0.13,0,resources/,pics/football.jpg,pics/safetypin.jpg,pics/shovel01.jpg,pics/sink.jpg,pics/holdfast.jpg,pics/nutcracker01.jpg,pics/starfish01.jpg,pics/onion.jpg,pics/footballhelmet.jpg,pics/boot02b.jpg,pics/sewingmachine01a.jpg,pics/kangaroo.jpg,pics/banjo.jpg,blankImage,blankImage,blankImage,blankImage,holdfast,14,0.1333,,,,,,,,,,,,,,,,,,,,,,,,,,,,,,,,,,,,,,,,,,,,,,,,,,,,,,,,,,,,,,,,,,,,,,,,,,,,,,,,,,,,,,,,,,,,,,,,,,,
,,,,,62a347b1c0907ed12c916e96,6682b41eeb79ab8215dff63d,6682b8fb270aa9af2fb25979,20,female,english,2024-07-01_15h12.19.699,ABmemTask3,2023.2.3,Win32,59.88023952,,,,,,,,,,,,,,,,,,,,,,,,,,,,,,,125.8964,126.8853,126.8853,7,127.3849,128.4342,0.0013,128.5506,0.1158,0.1185,0.1149,0.1165,0.1164,0.1166,0.1165,0.1163,0.1167,,,128.5506,129.5333,right,0.9496,,129.5334,129.8827,left,0.3196,,24,0,28,129.8829,130.8879,0,13,13,13,1,prac_AB,L1_T1P_T2P,1,1,1,5,6,4,4,10,fish,Did you see the fish,0.12,0,resources/,pics/butterfly.jpg,pics/banjo.jpg,pics/leaf02a.jpg,pics/dustpan.jpg,pics/sturgeon.jpg,pics/stapler02.jpg,pics/necklace.jpg,pics/shovel01.jpg,pics/starfish01.jpg,pics/chainsaw.jpg,blankImage,blankImage,blankImage,blankImage,blankImage,blankImage,blankImage,sturgeon,3,,,,,,,,,,,,,,,,,,,,,,,,,,,,,,,,,,,,,,,,,,,,,,,,,,,,,,,,,,,,,,,,,,,,,,,,,,,,,,,,,,,,,,,,,,,,,,,,,,,,
,,,,,62a347b1c0907ed12c916e96,6682b41eeb79ab8215dff63d,6682b8fb270aa9af2fb25979,20,female,english,2024-07-01_15h12.19.699,ABmemTask3,2023.2.3,Win32,59.88023952,,,,,,,,,,,,,,,,,,,,,,,,,,,,,,,,,,,,,,,,,,,,,,,,,,,,,,,,,,,,,,,,,,,,,,,,,,,,,,,,,,,,,,,,,,,,,,,,,,,,,,,,,,,130.8889,133.1969,space,2.2816,,,,,,,,,,,,,,,,,,,,,,,,,,,,,,,,,,,,,,,,,,,,,,,,,,,,,,,,,,,,,,,,,,,,,,,,,,,,,,,,,,,,,,,,,,,,,
,,,,,62a347b1c0907ed12c916e96,6682b41eeb79ab8215dff63d,6682b8fb270aa9af2fb25979,20,female,english,2024-07-01_15h12.19.699,ABmemTask3,2023.2.3,Win32,59.88023952,,,,,,,,,,,,,,,,,,,,,,,,,,,,,,,,,,,,,,,,,,,,,,,,,,,,,,,,,,,,,,,,,,,,,,,,,,,,,,,,,,,,,,,,,,,,,,,,,,,,,,,,,,,133.209,133.2124,,,,,,,,,,,,,,,,,,,,,,,,,,,,,,,,,,,,,,,,,,,,,,,,,,,,,,,,,,,,,,,,,,,,,,,,,,,,,,,,,,,,,,,,,,,,,,,
,,,,,62a347b1c0907ed12c916e96,6682b41eeb79ab8215dff63d,6682b8fb270aa9af2fb25979,20,female,english,2024-07-01_15h12.19.699,ABmemTask3,2023.2.3,Win32,59.88023952,,,,,,,,,,,,,,,,,,,,,,,,,,,,,,,,,,,,,,,,,,,,,,,,,,,,,,,,,,,,,,,,,,,,,,,,,,,,,,,,,,,,,,,,,,,,,,,,,,,,,,,,,,,133.215,133.2151,,,,,,,,,,,,,,,,,,,,,,,,,,,,,,,,,,,,,,,,,,,,,,,,,,,,,,,,,,,,,,,,,,,,,,,,,,,,,,,,,,,,,,,,,,,,,,,
,,,,,62a347b1c0907ed12c916e96,6682b41eeb79ab8215dff63d,6682b8fb270aa9af2fb25979,20,female,english,2024-07-01_15h12.19.699,ABmemTask3,2023.2.3,Win32,59.88023952,,,,,,,,,,,,,,,,,,,,,,,,,,,,,,,,,,,,,,,,,,,,,,,,,,,,,,,,,,,,,,,,,,,,,,,,,,,,,,,,,,,,,,,,,,,,,,,,,,,,,,,,,,,133.2186,133.2187,,,,,,,,,,,,,,,,,,,,,,,,,,,,,,,,,,,,,,,,,,,,,,,,,,,,,,,,,,,,,,,,,,,,,,,,,,,,,,,,,,,,,,,,,,,,,,,
,,,,,62a347b1c0907ed12c916e96,6682b41eeb79ab8215dff63d,6682b8fb270aa9af2fb25979,20,female,english,2024-07-01_15h12.19.699,ABmemTask3,2023.2.3,Win32,59.88023952,,,,,,,,,,,,,,,,,,,,,,,,,,,,,,,,,,,,,,,,,,,,,,,,,,,,,,,,,,,,,,,,,,,,,,,,,,,,,,,,,,,,,,,,,,,,,,,,,,,,,,,,,,,133.2211,133.2212,,,,,,,,,,,,,,,,,,,,,,,,,,,,,,,,,,,,,,,,,,,,,,,,,,,,,,,,,,,,,,,,,,,,,,,,,,,,,,,,,,,,,,,,,,,,,,,
,,,,,62a347b1c0907ed12c916e96,6682b41eeb79ab8215dff63d,6682b8fb270aa9af2fb25979,20,female,english,2024-07-01_15h12.19.699,ABmemTask3,2023.2.3,Win32,59.88023952,,,,,,,,,,,,,,,,,,,,,,,,,,,,,,,,,,,,,,,,,,,,,,,,,,,,,,,,,,,,,,,,,,,,,,,,,,,,,,,,,,,,,,,,,,,,,,,,,,,,,,,,,,,133.2233,133.2235,,,,,,,,,,,,,,,,,,,,,,,,,,,,,,,,,,,,,,,,,,,,,,,,,,,,,,,,,,,,,,,,,,,,,,,,,,,,,,,,,,,,,,,,,,,,,,,
,,,,,62a347b1c0907ed12c916e96,6682b41eeb79ab8215dff63d,6682b8fb270aa9af2fb25979,20,female,english,2024-07-01_15h12.19.699,ABmemTask3,2023.2.3,Win32,59.88023952,,,,,,,,,,,,,,,,,,,,,,,,,,,,,,,,,,,,,,,,,,,,,,,,,,,,,,,,,,,,,,,,,,,,,,,,,,,,,,,,,,,,,,,,,,,,,,,,,,,,,,,,,,,133.2255,133.2256,,,,,,,,,,,,,,,,,,,,,,,,,,,,,,,,,,,,,,,,,,,,,,,,,,,,,,,,,,,,,,,,,,,,,,,,,,,,,,,,,,,,,,,,,,,,,,,
,,,,,62a347b1c0907ed12c916e96,6682b41eeb79ab8215dff63d,6682b8fb270aa9af2fb25979,20,female,english,2024-07-01_15h12.19.699,ABmemTask3,2023.2.3,Win32,59.88023952,,,,,,,,,,,,,,,,,,,,,,,,,,,,,,,,,,,,,,,,,,,,,,,,,,,,,,,,,,,,,,,,,,,,,,,,,,,,,,,,,,,,,,,,,,,,,,,,,,,,,,,,,,,133.2279,133.228,,,,,,,,,,,,,,,,,,,,,,,,,,,,,,,,,,,,,,,,,,,,,,,,,,,,,,,,,,,,,,,,,,,,,,,,,,,,,,,,,,,,,,,,,,,,,,,
,,,,,62a347b1c0907ed12c916e96,6682b41eeb79ab8215dff63d,6682b8fb270aa9af2fb25979,20,female,english,2024-07-01_15h12.19.699,ABmemTask3,2023.2.3,Win32,59.88023952,,,,,,,,,,,,,,,,,,,,,,,,,,,,,,,,,,,,,,,,,,,,,,,,,,,,,,,,,,,,,,,,,,,,,,,,,,,,,,,,,,,,,,,,,,,,,,,,,,,,,,,,,,,133.2297,133.2298,,,,,,,,,,,,,,,,,,,,,,,,,,,,,,,,,,,,,,,,,,,,,,,,,,,,,,,,,,,,,,,,,,,,,,,,,,,,,,,,,,,,,,,,,,,,,,,
,,,,,62a347b1c0907ed12c916e96,6682b41eeb79ab8215dff63d,6682b8fb270aa9af2fb25979,20,female,english,2024-07-01_15h12.19.699,ABmemTask3,2023.2.3,Win32,59.88023952,,,,,,,,,,,,,,,,,,,,,,,,,,,,,,,,,,,,,,,,,,,,,,,,,,,,,,,,,,,,,,,,,,,,,,,,,,,,,,,,,,,,,,,,,,,,,,,,,,,,,,,,,,,133.2311,133.2312,,,,,,,,,,,,,,,,,,,,,,,,,,,,,,,,,,,,,,,,,,,,,,,,,,,,,,,,,,,,,,,,,,,,,,,,,,,,,,,,,,,,,,,,,,,,,,,
,,,,,62a347b1c0907ed12c916e96,6682b41eeb79ab8215dff63d,6682b8fb270aa9af2fb25979,20,female,english,2024-07-01_15h12.19.699,ABmemTask3,2023.2.3,Win32,59.88023952,,,,,,,,,,,,,,,,,,,,,,,,,,,,,,,,,,,,,,,,,,,,,,,,,,,,,,,,,,,,,,,,,,,,,,,,,,,,,,,,,,,,,,,,,,,,,,,,,,,,,,,,,,,133.2331,133.2331,,,,,,,,,,,,,,,,,,,,,,,,,,,,,,,,,,,,,,,,,,,,,,,,,,,,,,,,,,,,,,,,,,,,,,,,,,,,,,,,,,,,,,,,,,,,,,,
,,,,,62a347b1c0907ed12c916e96,6682b41eeb79ab8215dff63d,6682b8fb270aa9af2fb25979,20,female,english,2024-07-01_15h12.19.699,ABmemTask3,2023.2.3,Win32,59.88023952,,,,,,,,,,,,,,,,,,,,,,,,,,,,,,,,,,,,,,,,,,,,,,,,,,,,,,,,,,,,,,,,,,,,,,,,,,,,,,,,,,,,,,,,,,,,,,,,,,,,,,,,,,,133.2344,133.2345,,,,,,,,,,,,,,,,,,,,,,,,,,,,,,,,,,,,,,,,,,,,,,,,,,,,,,,,,,,,,,,,,,,,,,,,,,,,,,,,,,,,,,,,,,,,,,,
,,,,,62a347b1c0907ed12c916e96,6682b41eeb79ab8215dff63d,6682b8fb270aa9af2fb25979,20,female,english,2024-07-01_15h12.19.699,ABmemTask3,2023.2.3,Win32,59.88023952,,,,,,,,,,,,,,,,,,,,,,,,,,,,,,,,,,,,,,,,,,,,,,,,,,,,,,,,,,,,,,,,,,,,,,,,,,,,,,,,,,,,,,,,,,,,,,,,,,,,,,,,,,,133.2358,133.2359,,,,,,,,,,,,,,,,,,,,,,,,,,,,,,,,,,,,,,,,,,,,,,,,,,,,,,,,,,,,,,,,,,,,,,,,,,,,,,,,,,,,,,,,,,,,,,,
,,,,,62a347b1c0907ed12c916e96,6682b41eeb79ab8215dff63d,6682b8fb270aa9af2fb25979,20,female,english,2024-07-01_15h12.19.699,ABmemTask3,2023.2.3,Win32,59.88023952,,,,,,,,,,,,,,,,,,,,,,,,,,,,,,,,,,,,,,,,,,,,,,,,,,,,,,,,,,,,,,,,,,,,,,,,,,,,,,,,,,,,,,,,,,,,,,,,,,,,,,,,,,,133.2373,133.2374,,,,,,,,,,,,,,,,,,,,,,,,,,,,,,,,,,,,,,,,,,,,,,,,,,,,,,,,,,,,,,,,,,,,,,,,,,,,,,,,,,,,,,,,,,,,,,,
,,,,,62a347b1c0907ed12c916e96,6682b41eeb79ab8215dff63d,6682b8fb270aa9af2fb25979,20,female,english,2024-07-01_15h12.19.699,ABmemTask3,2023.2.3,Win32,59.88023952,,,,,,,,,,,,,,,,,,,,,,,,,,,,,,,,,,,,,,,,,,,,,,,,,,,,,,,,,,,,,,,,,,,,,,,,,,,,,,,,,,,,,,,,,,,,,,,,,,,,,,,,,,,133.2397,133.2397,,,,,,,,,,,,,,,,,,,,,,,,,,,,,,,,,,,,,,,,,,,,,,,,,,,,,,,,,,,,,,,,,,,,,,,,,,,,,,,,,,,,,,,,,,,,,,,
,,,,,62a347b1c0907ed12c916e96,6682b41eeb79ab8215dff63d,6682b8fb270aa9af2fb25979,20,female,english,2024-07-01_15h12.19.699,ABmemTask3,2023.2.3,Win32,59.88023952,,,,,,,,,,,,,,,,,,,,,,,,,,,,,,,,,,,,,,,,,,,,,,,,,,,,,,,,,,,,,,,,,,,,,,,,,,,,,,,,,,,,,,,,,,,,,,,,,,,,,,,,,,,133.2412,133.2413,,,,,,,,,,,,,,,,,,,,,,,,,,,,,,,,,,,,,,,,,,,,,,,,,,,,,,,,,,,,,,,,,,,,,,,,,,,,,,,,,,,,,,,,,,,,,,,
,,,,,62a347b1c0907ed12c916e96,6682b41eeb79ab8215dff63d,6682b8fb270aa9af2fb25979,20,female,english,2024-07-01_15h12.19.699,ABmemTask3,2023.2.3,Win32,59.88023952,,,,,,,,,,,,,,,,,,,,,,,,,,,,,,,,,,,,,,,,,,,,,,,,,,,,,,,,,,,,,,,,,,,,,,,,,,,,,,,,,,,,,,,,,,,,,,,,,,,,,,,,,,,133.2427,133.2428,,,,,,,,,,,,,,,,,,,,,,,,,,,,,,,,,,,,,,,,,,,,,,,,,,,,,,,,,,,,,,,,,,,,,,,,,,,,,,,,,,,,,,,,,,,,,,,
,,,,,62a347b1c0907ed12c916e96,6682b41eeb79ab8215dff63d,6682b8fb270aa9af2fb25979,20,female,english,2024-07-01_15h12.19.699,ABmemTask3,2023.2.3,Win32,59.88023952,,,,,,,,,,,,,,,,,,,,,,,,,,,,,,,,,,,,,,,,,,,,,,,,,,,,,,,,,,,,,,,,,,,,,,,,,,,,,,,,,,,,,,,,,,,,,,,,,,,,,,,,,,,133.2459,133.2461,,,,,,,,,,,,,,,,,,,,,,,,,,,,,,,,,,,,,,,,,,,,,,,,,,,,,,,,,,,,,,,,,,,,,,,,,,,,,,,,,,,,,,,,,,,,,,,
,,,,,62a347b1c0907ed12c916e96,6682b41eeb79ab8215dff63d,6682b8fb270aa9af2fb25979,20,female,english,2024-07-01_15h12.19.699,ABmemTask3,2023.2.3,Win32,59.88023952,,,,,,,,,,,,,,,,,,,,,,,,,,,,,,,,,,,,,,,,,,,,,,,,,,,,,,,,,,,,,,,,,,,,,,,,,,,,,,,,,,,,,,,,,,,,,,,,,,,,,,,,,,,133.2479,133.248,,,,,,,,,,,,,,,,,,,,,,,,,,,,,,,,,,,,,,,,,,,,,,,,,,,,,,,,,,,,,,,,,,,,,,,,,,,,,,,,,,,,,,,,,,,,,,,
,,,,,62a347b1c0907ed12c916e96,6682b41eeb79ab8215dff63d,6682b8fb270aa9af2fb25979,20,female,english,2024-07-01_15h12.19.699,ABmemTask3,2023.2.3,Win32,59.88023952,,,,,,,,,,,,,,,,,,,,,,,,,,,,,,,,,,,,,,,,,,,,,,,,,,,,,,,,,,,,,,,,,,,,,,,,,,,,,,,,,,,,,,,,,,,,,,,,,,,,,,,,,,,133.2491,133.2492,,,,,,,,,,,,,,,,,,,,,,,,,,,,,,,,,,,,,,,,,,,,,,,,,,,,,,,,,,,,,,,,,,,,,,,,,,,,,,,,,,,,,,,,,,,,,,,
,,,,,62a347b1c0907ed12c916e96,6682b41eeb79ab8215dff63d,6682b8fb270aa9af2fb25979,20,female,english,2024-07-01_15h12.19.699,ABmemTask3,2023.2.3,Win32,59.88023952,,,,,,,,,,,,,,,,,,,,,,,,,,,,,,,,,,,,,,,,,,,,,,,,,,,,,,,,,,,,,,,,,,,,,,,,,,,,,,,,,,,,,,,,,,,,,,,,,,,,,,,,,,,133.2509,133.2511,,,,,,,,,,,,,,,,,,,,,,,,,,,,,,,,,,,,,,,,,,,,,,,,,,,,,,,,,,,,,,,,,,,,,,,,,,,,,,,,,,,,,,,,,,,,,,,
,,,,,62a347b1c0907ed12c916e96,6682b41eeb79ab8215dff63d,6682b8fb270aa9af2fb25979,20,female,english,2024-07-01_15h12.19.699,ABmemTask3,2023.2.3,Win32,59.88023952,,,,,,,,,,,,,,,,,,,,,,,,,,,,,,,,,,,,,,,,,,,,,,,,,,,,,,,,,,,,,,,,,,,,,,,,,,,,,,,,,,,,,,,,,,,,,,,,,,,,,,,,,,,133.2536,133.2537,,,,,,,,,,,,,,,,,,,,,,,,,,,,,,,,,,,,,,,,,,,,,,,,,,,,,,,,,,,,,,,,,,,,,,,,,,,,,,,,,,,,,,,,,,,,,,,
,,,,,62a347b1c0907ed12c916e96,6682b41eeb79ab8215dff63d,6682b8fb270aa9af2fb25979,20,female,english,2024-07-01_15h12.19.699,ABmemTask3,2023.2.3,Win32,59.88023952,,,,,,,,,,,,,,,,,,,,,,,,,,,,,,,,,,,,,,,,,,,,,,,,,,,,,,,,,,,,,,,,,,,,,,,,,,,,,,,,,,,,,,,,,,,,,,,,,,,,,,,,,,,,,,,,133.2539,147.5345,space,14.2489,,,,,,,,,,,,,,,,,,,,,,,,,,,,,,,,,,,,,,,,,,,,,,,,,,,,,,,,,,,,,,,,,,,,,,,,,,,,,,,,,,,,,,,,
,,,,,62a347b1c0907ed12c916e96,6682b41eeb79ab8215dff63d,6682b8fb270aa9af2fb25979,20,female,english,2024-07-01_15h12.19.699,ABmemTask3,2023.2.3,Win32,59.88023952,,,,,,,,,,,,,,,,,,,,,,,,,,,,,,,,,147.5442,599,148.0333,,,,,,,,,,,,,,,,,,,,,,,,,,0,,,,,,,,,prac_MEM,old,,,,,,,,,,,10,,,,,,,,,,,,,,,,,,,,,,,,,,,,,,,,,,,148.0336,154.9615,3,6,6.8938,,154.9624,155.9598,0,0,0,0,1,1,1,pics/tree.jpg,,,,,,,,,,,,,,,,,,,,,,,,,,,,,,,,,,,,,,,,,,,,,,,,,,,,,,,,,,,,,,,,,,,,,,,
,,,,,62a347b1c0907ed12c916e96,6682b41eeb79ab8215dff63d,6682b8fb270aa9af2fb25979,20,female,english,2024-07-01_15h12.19.699,ABmemTask3,2023.2.3,Win32,59.88023952,,,,,,,,,,,,,,,,,,,,,,,,,,,,,,,,,155.9707,599,156.4592,,,,,,,,,,,,,,,,,,,,,,,,,,0,,,,,,,,,prac_MEM,old,,,,,,,,,,,10,,,,,,,,,,,,,,,,,,,,,,,,,,,,,,,,,,,156.4592,157.908,6,6,1.4158,,157.9082,158.907,0,1,1,6,1,12,5,pics/humanskull.jpg,,,,,,,,,,,,,,,,,,,,,,,,,,,,,,,,,,,,,,,,,,,,,,,,,,,,,,,,,,,,,,,,,,,,,,,
,,,,,62a347b1c0907ed12c916e96,6682b41eeb79ab8215dff63d,6682b8fb270aa9af2fb25979,20,female,english,2024-07-01_15h12.19.699,ABmemTask3,2023.2.3,Win32,59.88023952,,,,,,,,,,,,,,,,,,,,,,,,,,,,,,,,,158.9075,599,159.4064,,,,,,,,,,,,,,,,,,,,,,,,,,0,,,,,,,,,prac_MEM,new,,,,,,,,,,,10,,,,,,,,,,,,,,,,,,,,,,,,,,,,,,,,,,,159.4065,161.4714,9,1,2.0373,,161.4717,162.4705,0,2,2,7,1,999,999,pics/cherry01.jpg,,,,,,,,,,,,,,,,,,,,,,,,,,,,,,,,,,,,,,,,,,,,,,,,,,,,,,,,,,,,,,,,,,,,,,,
,,,,,62a347b1c0907ed12c916e96,6682b41eeb79ab8215dff63d,6682b8fb270aa9af2fb25979,20,female,english,2024-07-01_15h12.19.699,ABmemTask3,2023.2.3,Win32,59.88023952,,,,,,,,,,,,,,,,,,,,,,,,,,,,,,,,,162.4812,599,162.97,,,,,,,,,,,,,,,,,,,,,,,,,,0,,,,,,,,,prac_MEM,new,,,,,,,,,,,10,,,,,,,,,,,,,,,,,,,,,,,,,,,,,,,,,,,162.97,165.8341,8,4,2.8405,,165.8351,166.8333,0,3,3,9,1,999,999,pics/moth.jpg,,,,,,,,,,,,,,,,,,,,,,,,,,,,,,,,,,,,,,,,,,,,,,,,,,,,,,,,,,,,,,,,,,,,,,,
,,,,,62a347b1c0907ed12c916e96,6682b41eeb79ab8215dff63d,6682b8fb270aa9af2fb25979,20,female,english,2024-07-01_15h12.19.699,ABmemTask3,2023.2.3,Win32,59.88023952,,,,,,,,,,,,,,,,,,,,,,,,,,,,,,,,,166.8441,599,167.3328,,,,,,,,,,,,,,,,,,,,,,,,,,0,,,,,,,,,prac_MEM,new,,,,,,,,,,,10,,,,,,,,,,,,,,,,,,,,,,,,,,,,,,,,,,,167.3329,168.6317,11,1,1.2742,,168.6319,169.6309,0,4,4,10,1,999,999,pics/tomato01.jpg,,,,,,,,,,,,,,,,,,,,,,,,,,,,,,,,,,,,,,,,,,,,,,,,,,,,,,,,,,,,,,,,,,,,,,,
,,,,,62a347b1c0907ed12c916e96,6682b41eeb79ab8215dff63d,6682b8fb270aa9af2fb25979,20,female,english,2024-07-01_15h12.19.699,ABmemTask3,2023.2.3,Win32,59.88023952,,,,,,,,,,,,,,,,,,,,,,,,,,,,,,,,,169.6391,599,170.1303,,,,,,,,,,,,,,,,,,,,,,,,,,0,,,,,,,,,prac_MEM,old,,,,,,,,,,,10,,,,,,,,,,,,,,,,,,,,,,,,,,,,,,,,,,,170.1303,171.3127,14,6,1.1495,,171.313,172.3119,0,5,5,3,1,4,1,pics/shorts01.jpg,,,,,,,,,,,,,,,,,,,,,,,,,,,,,,,,,,,,,,,,,,,,,,,,,,,,,,,,,,,,,,,,,,,,,,,
,,,,,62a347b1c0907ed12c916e96,6682b41eeb79ab8215dff63d,6682b8fb270aa9af2fb25979,20,female,english,2024-07-01_15h12.19.699,ABmemTask3,2023.2.3,Win32,59.88023952,,,,,,,,,,,,,,,,,,,,,,,,,,,,,,,,,172.3123,599,172.8113,,,,,,,,,,,,,,,,,,,,,,,,,,0,,,,,,,,,prac_MEM,old,,,,,,,,,,,10,,,,,,,,,,,,,,,,,,,,,,,,,,,,,,,,,,,172.8114,173.8771,17,6,1.0328,,173.8779,174.8762,0,6,6,4,1,5,1,pics/tongs01b.jpg,,,,,,,,,,,,,,,,,,,,,,,,,,,,,,,,,,,,,,,,,,,,,,,,,,,,,,,,,,,,,,,,,,,,,,,
,,,,,62a347b1c0907ed12c916e96,6682b41eeb79ab8215dff63d,6682b8fb270aa9af2fb25979,20,female,english,2024-07-01_15h12.19.699,ABmemTask3,2023.2.3,Win32,59.88023952,,,,,,,,,,,,,,,,,,,,,,,,,,,,,,,,,174.8767,599,175.3756,,,,,,,,,,,,,,,,,,,,,,,,,,0,,,,,,,,,prac_MEM,new,,,,,,,,,,,10,,,,,,,,,,,,,,,,,,,,,,,,,,,,,,,,,,,175.3756,176.9745,20,1,1.571,,176.9748,177.9735,0,7,7,8,1,999,999,pics/thread02.jpg,,,,,,,,,,,,,,,,,,,,,,,,,,,,,,,,,,,,,,,,,,,,,,,,,,,,,,,,,,,,,,,,,,,,,,,
,,,,,62a347b1c0907ed12c916e96,6682b41eeb79ab8215dff63d,6682b8fb270aa9af2fb25979,20,female,english,2024-07-01_15h12.19.699,ABmemTask3,2023.2.3,Win32,59.88023952,,,,,,,,,,,,,,,,,,,,,,,,,,,,,,,,,177.9839,599,178.4731,,,,,,,,,,,,,,,,,,,,,,,,,,0,,,,,,,,,prac_MEM,old,,,,,,,,,,,10,,,,,,,,,,,,,,,,,,,,,,,,,,,,,,,,,,,178.4732,179.2556,23,6,0.7498,,179.2558,180.2601,0,8,8,2,1,3,1,pics/sturgeon.jpg,,,,,,,,,,,,,,,,,,,,,,,,,,,,,,,,,,,,,,,,,,,,,,,,,,,,,,,,,,,,,,,,,,,,,,,
,,,,,62a347b1c0907ed12c916e96,6682b41eeb79ab8215dff63d,6682b8fb270aa9af2fb25979,20,female,english,2024-07-01_15h12.19.699,ABmemTask3,2023.2.3,Win32,59.88023952,,,,,,,,,,,,,,,,,,,,,,,,,,,,,,,,,180.2606,599,180.7543,,,,,,,,,,,,,,,,,,,,,,,,,,0,,,,,,,,,prac_MEM,old,,,,,,,,,,,10,,,,,,,,,,,,,,,,,,,,,,,,,,,,,,,,,,,180.7543,181.5536,26,6,0.7678,,181.5538,182.5526,0,9,9,5,1,11,5,pics/grater01a.jpg,,,,,,,,,,,,,,,,,,,,,,,,,,,,,,,,,,,,,,,,,,,,,,,,,,,,,,,,,,,,,,,,,,,,,,,
,,,,,62a347b1c0907ed12c916e96,6682b41eeb79ab8215dff63d,6682b8fb270aa9af2fb25979,20,female,english,2024-07-01_15h12.19.699,ABmemTask3,2023.2.3,Win32,59.88023952,,,,,,,,,,,,,,,,,,,,,,,,,,,,,,,,,182.553,599,183.0523,,,,,,,,,,,,,,,,,,,,,,,,,,0,,,,,,,,,prac_MEM,old,,,,,,,,,,,10,,,,,,,,,,,,,,,,,,,,,,,,,,,,,,,,,,,183.0524,184.1581,29,6,1.0827,,184.1588,185.1504,0,10,10,1,1,2,1,pics/pants.jpg,,,,,,,,,,,,,,,,,,,,,,,,,,,,,,,,,,,,,,,,,,,,,,,,,,,,,,,,,,,,,,,,,,,,,,,
,,,,,62a347b1c0907ed12c916e96,6682b41eeb79ab8215dff63d,6682b8fb270aa9af2fb25979,20,female,english,2024-07-01_15h12.19.699,ABmemTask3,2023.2.3,Win32,59.88023952,,,,,,,,,,,,,,,,,,,,,,,,,,,,,,,,,,,,,,,,,,,,,,,,,,,,,,,,,,,,,,,,,,,,,,,,,,,,,,,,,,,,,,,,,,,,,,,,,,,,,,,,,,,,,,,,,,,,,,,,,,,,,,,,,,,,,185.1509,186.8156,186.8157,186.816,,,,,,,,,,,,,,,,,,,,,,,,,,,,,,,,,,,,,,,,,,,,,,,,,,,,,,,,,,,,,,,,,,,
,,,,,62a347b1c0907ed12c916e96,6682b41eeb79ab8215dff63d,6682b8fb270aa9af2fb25979,20,female,english,2024-07-01_15h12.19.699,ABmemTask3,2023.2.3,Win32,59.88023952,,,,,,,,,,,,,,,,,,space,21.7483,,,,,,,,,,,,,,,,,,,,,,,,,,,,,,,,,,,,,,,,,,,,,,,,,,,,,,,,,,,,,,,,,,,,,,,,,,,,,,,,,,,,,,,,,,,,,,,,,,,,,,,,,,,,,,,,,,,,,,186.8161,208.5977,,,,,,,,,,,,,,,,,,,,,,,,,,,,,,,,,,,,,,,,,,,,,,,,,,,,,,,,,,,,,,,,,
,,,,,62a347b1c0907ed12c916e96,6682b41eeb79ab8215dff63d,6682b8fb270aa9af2fb25979,20,female,english,2024-07-01_15h12.19.699,ABmemTask3,2023.2.3,Win32,59.88023952,,,,,,,,,,,,,,,,,,,,,,,,,,,,,,,,,,,,,,,,,,,,,,,,,,,,,,,,,,,,,,,,,,,,,,,,,,,,,,,,,,,,,,,,,,,,,,,,,,,,,,,,,,,,,,,,,,,,,,,,,,,,,,,,,,,,,,,,,,,208.5978,219.4051,space,10.77,,,,,,,,,,,,,,,,,,,,,,,,,,,,,,,,,,,,,,,,,,,,,,,,,,,,,,,,,,,,,
,,,,,62a347b1c0907ed12c916e96,6682b41eeb79ab8215dff63d,6682b8fb270aa9af2fb25979,20,female,english,2024-07-01_15h12.19.699,ABmemTask3,2023.2.3,Win32,59.88023952,,,,,,,,,,,,,,,,,,,,,,,,,,,,,,,219.4164,220.4192,220.4193,7,220.9188,222.2012,0.0018,222.3174,0.1154,0.1162,0.117,0.116,0.1167,0.1162,0.1169,0.1165,0.1163,0.1167,0.1164,222.3175,222.8673,right,0.5269,,222.8673,223.3667,right,0.4707,,2,0,2,223.3668,224.3656,,,,,,1_AB,L1_T1P_T2P,1,1,1,7,8,6,4,12,hammer,Did you see the hammer,0.12,0,resources/,pics/microscope.jpg,pics/blender.jpg,pics/dustpan.jpg,pics/snowshoe.jpg,pics/mummy.jpg,pics/bowtie.jpg,pics/hammer01.jpg,pics/stapler04b.jpg,pics/seaturtle.jpg,pics/candle01.jpg,pics/necklace.jpg,pics/cannon.jpg,blankImage,blankImage,blankImage,blankImage,blankImage,hammer01,21,,,,,,,,,,,,,,,,,,,,,,,,,,,,,,,,,,,,,,,,,0,0,0,20,1,,,,,,,,,,,,,,,,,,,,,,,,,,,,,,,,,,,,,,,,,,,,,,,,,,,,,,,
,,,,,62a347b1c0907ed12c916e96,6682b41eeb79ab8215dff63d,6682b8fb270aa9af2fb25979,20,female,english,2024-07-01_15h12.19.699,ABmemTask3,2023.2.3,Win32,59.88023952,,,,,,,,,,,,,,,,,,,,,,,,,,,,,,,224.3662,225.3648,225.3649,7,225.8644,226.9138,0.0013,227.03,0.1158,0.1165,0.1164,0.1167,0.1165,0.1167,0.1167,0.1166,0.1165,,,227.0301,227.8461,left,0.7829,,227.8462,228.0957,right,0.2272,,4,0,4,228.0958,229.0949,,,,,,1_AB,L1_T1A_T2P,1,0,1,5,6,4,4,10,button,Did you see the button,0.12,0,resources/,pics/pencil01.jpg,pics/necklace.jpg,pics/sink.jpg,pics/noparkingsign.jpg,pics/banjo.jpg,pics/stapler03b.jpg,pics/candle01.jpg,pics/icecube01.jpg,pics/shovel01.jpg,pics/pencilsharpener02a.jpg,blankImage,blankImage,blankImage,blankImage,blankImage,blankImage,blankImage,button01,25,,,,,,,,,,,,,,,,,,,,,,,,,,,,,,,,,,,,,,,,,0,1,1,24,1,,,,,,,,,,,,,,,,,,,,,,,,,,,,,,,,,,,,,,,,,,,,,,,,,,,,,,,
,,,,,62a347b1c0907ed12c916e96,6682b41eeb79ab8215dff63d,6682b8fb270aa9af2fb25979,20,female,english,2024-07-01_15h12.19.699,ABmemTask3,2023.2.3,Win32,59.88023952,,,,,,,,,,,,,,,,,,,,,,,,,,,,,,,229.0955,230.094,230.094,7,230.5935,231.8761,0.0012,231.9923,0.1158,0.1169,0.1167,0.1165,0.1164,0.1165,0.1163,0.1169,0.1164,0.1166,0.1166,231.9924,232.7251,right,0.7023,,232.7251,233.5076,right,0.7502,,6,0,6,233.5077,234.5067,,,,,,1_AB,L1_T1P_T2P,1,1,1,6,7,5,5,12,Bear,Did you see the Bear,0.12,0,resources/,pics/necklace.jpg,pics/hen.jpg,pics/dromedary.jpg,pics/piggybank.jpg,pics/sandbarshark.jpg,pics/grizzly.jpg,pics/stapler12.jpg,pics/bowlingpin.jpg,pics/christmaslights.jpg,pics/icecube01.jpg,pics/match.jpg,pics/lock03a.jpg,blankImage,blankImage,blankImage,blankImage,blankImage,grizzly,18,,,,,,,,,,,,,,,,,,,,,,,,,,,,,,,,,,,,,,,,,0,2,2,17,1,,,,,,,,,,,,,,,,,,,,,,,,,,,,,,,,,,,,,,,,,,,,,,,,,,,,,,,
,,,,,62a347b1c0907ed12c916e96,6682b41eeb79ab8215dff63d,6682b8fb270aa9af2fb25979,20,female,english,2024-07-01_15h12.19.699,ABmemTask3,2023.2.3,Win32,59.88023952,,,,,,,,,,,,,,,,,,,,,,,,,,,,,,,234.5074,235.5058,235.5058,7,236.0054,237.6378,0.001,237.7538,0.1161,0.1166,0.1166,0.1165,0.1168,0.1164,0.1164,0.1167,0.1166,0.1165,0.1165,237.7539,238.6865,left,0.9014,,238.6866,239.0361,right,0.3208,,8,0,8,239.0362,240.0352,,,,,,1_AB,L5_T1A_T2P,5,0,1,7,12,6,3,15,scissors,Did you see the scissors,0.12,0,resources/,pics/cannon.jpg,pics/mummy.jpg,pics/shovel01.jpg,pics/christmaslights.jpg,pics/snowshoe.jpg,pics/candle01.jpg,pics/bowtie.jpg,pics/giraffe.jpg,pics/carrot01.jpg,pics/spoon01.jpg,pics/seaturtle.jpg,pics/stapler10.jpg,pics/footballhelmet.jpg,pics/onion.jpg,pics/wheel01.jpg,blankImage,blankImage,scissors01,57,0.1165,0.1167,0.1167,,,,,,,,,,,,,,,,,,,,,,,,,,,,,,,,,,,,,,0,3,3,56,1,,,,,,,,,,,,,,,,,,,,,,,,,,,,,,,,,,,,,,,,,,,,,,,,,,,,,,,
,,,,,62a347b1c0907ed12c916e96,6682b41eeb79ab8215dff63d,6682b8fb270aa9af2fb25979,20,female,english,2024-07-01_15h12.19.699,ABmemTask3,2023.2.3,Win32,59.88023952,,,,,,,,,,,,,,,,,,,,,,,,,,,,,,,240.0358,241.0342,241.0343,7,241.5338,243.2826,0.001,243.3988,0.1161,0.1166,0.1166,0.1165,0.1166,0.1166,0.1164,0.1166,0.1168,0.1164,0.1166,243.3989,244.448,right,1.0204,,244.4481,244.7978,left,0.3205,,10,0,10,244.7979,245.7967,,,,,,1_AB,L5_T1P_T2A,5,1,0,6,11,5,5,16,belt,Did you see the belt,0.12,0,resources/,pics/banjo.jpg,pics/birdhouse.jpg,pics/spoon01.jpg,pics/table01.jpg,pics/candle01.jpg,pics/belt02a.jpg,pics/peach01.jpg,pics/chainsaw.jpg,pics/toiletpaper01a.jpg,pics/proboscismonkey.jpg,pics/cymbal.jpg,pics/binoculars01b.jpg,pics/cannon.jpg,pics/noparkingsign.jpg,pics/sailboat.jpg,pics/carrot01.jpg,blankImage,belt02a,61,0.1167,0.1164,0.1162,,,,,,,,,,,,,,,,,,,,,,,,,,,,,,,,,,,,,,0,4,4,60,1,0.1171,,,,,,,,,,,,,,,,,,,,,,,,,,,,,,,,,,,,,,,,,,,,,,,,,,,,,,
,,,,,62a347b1c0907ed12c916e96,6682b41eeb79ab8215dff63d,6682b8fb270aa9af2fb25979,20,female,english,2024-07-01_15h12.19.699,ABmemTask3,2023.2.3,Win32,59.88023952,,,,,,,,,,,,,,,,,,,,,,,,,,,,,,,245.7971,246.7959,246.7961,7,247.2953,248.4613,0.0012,248.5777,0.1159,0.1169,0.1163,0.1168,0.1161,0.1168,0.1168,0.1163,0.1166,0.1165,,248.5779,249.5102,left,0.8998,,249.5103,249.7599,right,0.2169,,12,0,12,249.7601,250.759,,,,,,1_AB,L1_T1A_T2P,1,0,1,7,8,6,3,11,turkey,Did you see the turkey,0.12,0,resources/,pics/proboscismonkey.jpg,pics/blender.jpg,pics/sealion.jpg,pics/snowshoe.jpg,pics/carrot01.jpg,pics/microscope.jpg,pics/piggybank.jpg,pics/stapler12.jpg,pics/peanut01.jpg,pics/dustpan.jpg,pics/footballhelmet.jpg,blankImage,blankImage,blankImage,blankImage,blankImage,blankImage,turkey,26,,,,,,,,,,,,,,,,,,,,,,,,,,,,,,,,,,,,,,,,,0,5,5,25,1,,,,,,,,,,,,,,,,,,,,,,,,,,,,,,,,,,,,,,,,,,,,,,,,,,,,,,,
,,,,,62a347b1c0907ed12c916e96,6682b41eeb79ab8215dff63d,6682b8fb270aa9af2fb25979,20,female,english,2024-07-01_15h12.19.699,ABmemTask3,2023.2.3,Win32,59.88023952,,,,,,,,,,,,,,,,,,,,,,,,,,,,,,,250.7696,251.7602,251.7602,7,252.2576,253.1904,0.0013,253.3067,0.1159,0.1167,0.1164,0.1166,0.1228,0.1102,0.1166,0.1165,,,,253.3068,254.1393,right,0.8078,,254.1394,254.4726,left,0.301,,12,0,14,254.4726,255.4713,,,,,,1_AB,L1_T1P_T2P,1,1,1,5,6,4,3,9,paint brush,Did you see the paint brush,0.12,0,resources/,pics/nutcracker01.jpg,pics/piggybank.jpg,pics/spiderweb.jpg,pics/table01.jpg,pics/paintbrush01.jpg,pics/stapler09.jpg,pics/hose.jpg,pics/cannon.jpg,pics/mummy.jpg,blankImage,blankImage,blankImage,blankImage,blankImage,blankImage,blankImage,blankImage,paintbrush01,20,,,,,,,,,,,,,,,,,,,,,,,,,,,,,,,,,,,,,,,,,0,6,6,19,1,,,,,,,,,,,,,,,,,,,,,,,,,,,,,,,,,,,,,,,,,,,,,,,,,,,,,,,
,,,,,62a347b1c0907ed12c916e96,6682b41eeb79ab8215dff63d,6682b8fb270aa9af2fb25979,20,female,english,2024-07-01_15h12.19.699,ABmemTask3,2023.2.3,Win32,59.88023952,,,,,,,,,,,,,,,,,,,,,,,,,,,,,,,255.472,256.4707,256.4708,7,256.97,258.4858,0.0008,258.602,0.1165,0.1164,0.117,0.1162,0.1166,0.1164,0.1165,0.117,0.1163,0.1169,0.1163,258.6021,258.9684,right,0.3418,,258.9685,259.2516,right,0.2504,,14,0,16,259.2517,260.2506,,,,,,1_AB,L5_T1P_T2P,5,1,1,5,10,4,4,14,Fox,Did you see the Fox,0.12,0,resources/,pics/hammerheadshark.jpg,pics/bowlingpin.jpg,pics/pictureframe04.jpg,pics/peanut01.jpg,pics/redfox.jpg,pics/cymbal.jpg,pics/spoon01.jpg,pics/banjo.jpg,pics/butterfly.jpg,pics/stapler11.jpg,pics/football.jpg,pics/safetypin.jpg,pics/triangle.jpg,pics/onion.jpg,blankImage,blankImage,blankImage,redfox,45,0.1165,0.1165,,,,,,,,,,,,,,,,,,,,,,,,,,,,,,,,,,,,,,,0,7,7,44,1,,,,,,,,,,,,,,,,,,,,,,,,,,,,,,,,,,,,,,,,,,,,,,,,,,,,,,,
,,,,,62a347b1c0907ed12c916e96,6682b41eeb79ab8215dff63d,6682b8fb270aa9af2fb25979,20,female,english,2024-07-01_15h12.19.699,ABmemTask3,2023.2.3,Win32,59.88023952,,,,,,,,,,,,,,,,,,,,,,,,,,,,,,,260.2512,261.2497,261.2497,7,261.7493,262.7986,0.0011,262.9148,0.1159,0.1168,0.1164,0.1167,0.1163,0.1165,0.1169,0.1166,0.1164,,,262.9149,263.4977,right,0.5574,,263.4978,263.8642,right,0.3371,,16,0,18,263.8642,264.8633,,,,,,1_AB,L1_T1P_T2P,1,1,1,4,5,3,5,10,vacuum,Did you see the vacuum,0.12,0,resources/,pics/birdhouse.jpg,pics/floortile02.jpg,pics/toiletpaper01a.jpg,pics/vacuumcleaner01.jpg,pics/stapler02.jpg,pics/spoon01.jpg,pics/banjo.jpg,pics/binder03b.jpg,pics/leaf02a.jpg,pics/aquarium.jpg,blankImage,blankImage,blankImage,blankImage,blankImage,blankImage,blankImage,vacuumcleaner01,5,,,,,,,,,,,,,,,,,,,,,,,,,,,,,,,,,,,,,,,,,0,8,8,4,1,,,,,,,,,,,,,,,,,,,,,,,,,,,,,,,,,,,,,,,,,,,,,,,,,,,,,,,
,,,,,62a347b1c0907ed12c916e96,6682b41eeb79ab8215dff63d,6682b8fb270aa9af2fb25979,20,female,english,2024-07-01_15h12.19.699,ABmemTask3,2023.2.3,Win32,59.88023952,,,,,,,,,,,,,,,,,,,,,,,,,,,,,,,264.8639,265.8623,265.8624,7,266.362,267.4113,0.0014,267.5275,0.1156,0.1167,0.1166,0.1167,0.1163,0.1164,0.1167,0.1167,0.1165,,,267.5276,268.9433,right,1.3929,,268.9434,269.2828,right,0.3171,,14,0,20,269.2828,270.2751,,,,,,1_AB,L1_T1P_T2A,1,1,0,6,7,5,3,10,Duct tape,Did you see the Duct tape,0.12,0,resources/,pics/butterfly.jpg,pics/noparkingsign.jpg,pics/pictureframe04.jpg,pics/cork02.jpg,pics/fanblades.jpg,pics/ducttape.jpg,pics/icecube01.jpg,pics/siamesecat.jpg,pics/sink.jpg,pics/sandbarshark.jpg,blankImage,blankImage,blankImage,blankImage,blankImage,blankImage,blankImage,ducttape,36,,,,,,,,,,,,,,,,,,,,,,,,,,,,,,,,,,,,,,,,,0,9,9,35,1,,,,,,,,,,,,,,,,,,,,,,,,,,,,,,,,,,,,,,,,,,,,,,,,,,,,,,,
,,,,,62a347b1c0907ed12c916e96,6682b41eeb79ab8215dff63d,6682b8fb270aa9af2fb25979,20,female,english,2024-07-01_15h12.19.699,ABmemTask3,2023.2.3,Win32,59.88023952,,,,,,,,,,,,,,,,,,,,,,,,,,,,,,,270.2758,271.2741,271.2741,7,271.7736,272.7065,0.0009,272.8229,0.1163,0.1167,0.1165,0.1165,0.1164,0.1168,0.1165,0.1166,,,,272.823,274.1717,left,1.316,,274.1718,274.6712,left,0.4679,,16,0,22,274.6713,275.6706,,,,,,1_AB,L1_T1A_T2A,1,0,0,4,5,3,4,9,License Plate,Did you see the License Plate,0.12,0,resources/,pics/snowshoe.jpg,pics/kangaroo.jpg,pics/noparkingsign.jpg,pics/match.jpg,pics/hose.jpg,pics/blender.jpg,pics/ashtray01.jpg,pics/ball02.jpg,pics/sink.jpg,blankImage,blankImage,blankImage,blankImage,blankImage,blankImage,blankImage,blankImage,licenseplate,40,,,,,,,,,,,,,,,,,,,,,,,,,,,,,,,,,,,,,,,,,0,10,10,39,1,,,,,,,,,,,,,,,,,,,,,,,,,,,,,,,,,,,,,,,,,,,,,,,,,,,,,,,
,,,,,62a347b1c0907ed12c916e96,6682b41eeb79ab8215dff63d,6682b8fb270aa9af2fb25979,20,female,english,2024-07-01_15h12.19.699,ABmemTask3,2023.2.3,Win32,59.88023952,,,,,,,,,,,,,,,,,,,,,,,,,,,,,,,275.6712,276.6694,276.6694,7,277.1689,278.3349,0.0012,278.4511,0.1159,0.1166,0.1166,0.1167,0.1163,0.1168,0.1167,0.1164,0.1166,0.1165,,278.4511,278.8676,right,0.3908,,278.8676,279.2339,right,0.3335,,18,0,24,279.2341,280.2332,,,,,,1_AB,L1_T1P_T2P,1,1,1,7,8,6,3,11,bird,Did you see the bird,0.12,0,resources/,pics/sealion.jpg,pics/backpack01a.jpg,pics/hose.jpg,pics/table01.jpg,pics/wheel01.jpg,pics/seaturtle.jpg,pics/americangoldfinch.jpg,pics/stapler08.jpg,pics/siamesecat.jpg,pics/hammerheadshark.jpg,pics/ashtray01.jpg,blankImage,blankImage,blankImage,blankImage,blankImage,blankImage,americangoldfinch,23,,,,,,,,,,,,,,,,,,,,,,,,,,,,,,,,,,,,,,,,,0,11,11,22,1,,,,,,,,,,,,,,,,,,,,,,,,,,,,,,,,,,,,,,,,,,,,,,,,,,,,,,,
,,,,,62a347b1c0907ed12c916e96,6682b41eeb79ab8215dff63d,6682b8fb270aa9af2fb25979,20,female,english,2024-07-01_15h12.19.699,ABmemTask3,2023.2.3,Win32,59.88023952,,,,,,,,,,,,,,,,,,,,,,,,,,,,,,,280.234,281.232,281.232,7,281.7315,282.8974,0.0012,283.0137,0.116,0.1166,0.1164,0.1164,0.1167,0.1167,0.1165,0.1168,0.1207,0.112,,283.0138,283.4802,right,0.436,,283.4802,283.7798,right,0.2683,,20,0,26,283.7798,284.7789,,,,,,1_AB,L1_T1P_T2P,1,1,1,7,8,6,3,11,toothpick,Did you see the toothpick,0.12,0,resources/,pics/candleholder01.jpg,pics/blender.jpg,pics/siamesecat.jpg,pics/peanut01.jpg,pics/spiderweb.jpg,pics/football.jpg,pics/toothpick02.jpg,pics/stapler04b.jpg,pics/seagull.jpg,pics/pictureframe04.jpg,pics/shipinabottle.jpg,blankImage,blankImage,blankImage,blankImage,blankImage,blankImage,toothpick02,17,,,,,,,,,,,,,,,,,,,,,,,,,,,,,,,,,,,,,,,,,0,12,12,16,1,,,,,,,,,,,,,,,,,,,,,,,,,,,,,,,,,,,,,,,,,,,,,,,,,,,,,,,
,,,,,62a347b1c0907ed12c916e96,6682b41eeb79ab8215dff63d,6682b8fb270aa9af2fb25979,20,female,english,2024-07-01_15h12.19.699,ABmemTask3,2023.2.3,Win32,59.88023952,,,,,,,,,,,,,,,,,,,,,,,,,,,,,,,284.7796,285.7779,285.778,7,286.2775,287.4435,0.0014,287.5597,0.1157,0.1165,0.1167,0.1164,0.1166,0.1167,0.1165,0.1165,0.1164,0.1166,,287.5597,287.9929,right,0.4103,,287.993,288.3426,right,0.3222,,22,0,28,288.3427,289.3415,,,,,,1_AB,L1_T1P_T2P,1,1,1,7,8,6,3,11,pliers,Did you see the pliers,0.12,0,resources/,pics/mummy.jpg,pics/binder03b.jpg,pics/bowtie.jpg,pics/toiletpaper01a.jpg,pics/football.jpg,pics/blender.jpg,pics/needlenosepliers01.jpg,pics/stapler13.jpg,pics/zebra.jpg,pics/hammerheadshark.jpg,pics/sealion.jpg,blankImage,blankImage,blankImage,blankImage,blankImage,blankImage,needlenosepliers01,6,,,,,,,,,,,,,,,,,,,,,,,,,,,,,,,,,,,,,,,,,0,13,13,5,1,,,,,,,,,,,,,,,,,,,,,,,,,,,,,,,,,,,,,,,,,,,,,,,,,,,,,,,
,,,,,62a347b1c0907ed12c916e96,6682b41eeb79ab8215dff63d,6682b8fb270aa9af2fb25979,20,female,english,2024-07-01_15h12.19.699,ABmemTask3,2023.2.3,Win32,59.88023952,,,,,,,,,,,,,,,,,,,,,,,,,,,,,,,289.3421,290.3407,290.3408,7,290.8401,292.4723,0.0012,292.5888,0.1161,0.1165,0.1166,0.1166,0.1165,0.1167,0.1163,0.1169,0.1164,0.1165,0.1167,292.5888,293.5879,left,0.9671,,293.5879,293.8543,right,0.2336,,24,0,30,293.8545,294.8534,,,,,,1_AB,L5_T1A_T2P,5,0,1,5,10,4,5,15,scorpion,Did you see the scorpion,0.12,0,resources/,pics/pictureframe04.jpg,pics/binder03b.jpg,pics/pencil01.jpg,pics/leaf02a.jpg,pics/icecube01.jpg,pics/dromedary.jpg,pics/toiletpaper01a.jpg,pics/peanut01.jpg,pics/golfball.jpg,pics/stapler03.jpg,pics/carrot01.jpg,pics/peach01.jpg,pics/sealion.jpg,pics/football.jpg,pics/zebra.jpg,blankImage,blankImage,scorpion,54,0.1162,0.1168,0.1162,,,,,,,,,,,,,,,,,,,,,,,,,,,,,,,,,,,,,,0,14,14,53,1,,,,,,,,,,,,,,,,,,,,,,,,,,,,,,,,,,,,,,,,,,,,,,,,,,,,,,,
,,,,,62a347b1c0907ed12c916e96,6682b41eeb79ab8215dff63d,6682b8fb270aa9af2fb25979,20,female,english,2024-07-01_15h12.19.699,ABmemTask3,2023.2.3,Win32,59.88023952,,,,,,,,,,,,,,,,,,,,,,,,,,,,,,,294.864,295.8525,295.8526,7,296.3519,297.8677,0.0011,297.9839,0.1162,0.1165,0.1165,0.1162,0.117,0.1165,0.1165,0.1164,0.1169,0.1163,0.1167,297.9839,298.65,right,0.6408,,298.6501,298.9497,right,0.2668,,26,0,32,298.9499,299.9487,,,,,,1_AB,L5_T1P_T2P,5,1,1,6,11,5,3,14,truck,Did you see the truck,0.12,0,resources/,pics/calendar.jpg,pics/mummy.jpg,pics/ashtray01.jpg,pics/pencilsharpener02a.jpg,pics/dustpan.jpg,pics/boxtruck.jpg,pics/lightswitch01.jpg,pics/pictureframe04.jpg,pics/starfish01.jpg,pics/zebra.jpg,pics/stapler12.jpg,pics/bowtie.jpg,pics/candleholder01.jpg,pics/candle01.jpg,blankImage,blankImage,blankImage,boxtruck,50,0.1167,0.1164,,,,,,,,,,,,,,,,,,,,,,,,,,,,,,,,,,,,,,,0,15,15,49,1,,,,,,,,,,,,,,,,,,,,,,,,,,,,,,,,,,,,,,,,,,,,,,,,,,,,,,,
,,,,,62a347b1c0907ed12c916e96,6682b41eeb79ab8215dff63d,6682b8fb270aa9af2fb25979,20,female,english,2024-07-01_15h12.19.699,ABmemTask3,2023.2.3,Win32,59.88023952,,,,,,,,,,,,,,,,,,,,,,,,,,,,,,,299.9493,300.9479,300.9479,7,301.4473,302.8466,0.001,302.9628,0.1162,0.1166,0.1165,0.1167,0.1166,0.1168,0.1164,0.1165,0.1167,0.1163,0.1168,302.9629,303.3126,right,0.3229,,303.3127,303.5959,right,0.2503,,28,0,34,303.596,304.5946,,,,,,1_AB,L1_T1P_T2P,1,1,1,7,8,6,5,13,strawberry,Did you see the strawberry,0.12,0,resources/,pics/sealion.jpg,pics/backpack01a.jpg,pics/binoculars01b.jpg,pics/ball02.jpg,pics/proboscismonkey.jpg,pics/pictureframe04.jpg,pics/strawberry.jpg,pics/stapler12.jpg,pics/seaturtle.jpg,pics/dustpan.jpg,pics/bowlingpin.jpg,pics/hammerheadshark.jpg,pics/hen.jpg,blankImage,blankImage,blankImage,blankImage,strawberry,10,0.1164,,,,,,,,,,,,,,,,,,,,,,,,,,,,,,,,,,,,,,,,0,16,16,9,1,,,,,,,,,,,,,,,,,,,,,,,,,,,,,,,,,,,,,,,,,,,,,,,,,,,,,,,
,,,,,62a347b1c0907ed12c916e96,6682b41eeb79ab8215dff63d,6682b8fb270aa9af2fb25979,20,female,english,2024-07-01_15h12.19.699,ABmemTask3,2023.2.3,Win32,59.88023952,,,,,,,,,,,,,,,,,,,,,,,,,,,,,,,304.5955,305.5937,305.5938,7,306.0934,307.2593,0.0014,307.3755,0.116,0.1166,0.1162,0.1164,0.1167,0.1167,0.1165,0.1205,0.1127,0.1164,,307.3756,308.0584,right,0.6498,,308.0585,308.3082,left,0.2237,,30,0,36,308.3082,309.3071,,,,,,1_AB,L1_T1P_T2A,1,1,0,7,8,6,3,11,Spear,Did you see the Spear,0.12,0,resources/,pics/butterfly.jpg,pics/banjo.jpg,pics/chainsaw.jpg,pics/christmaslights.jpg,pics/dustpan.jpg,pics/shovel01.jpg,pics/spear02.jpg,pics/table01.jpg,pics/starfish01.jpg,pics/bowlingpin.jpg,pics/carrot01.jpg,blankImage,blankImage,blankImage,blankImage,blankImage,blankImage,spear02,39,,,,,,,,,,,,,,,,,,,,,,,,,,,,,,,,,,,,,,,,,0,17,17,38,1,,,,,,,,,,,,,,,,,,,,,,,,,,,,,,,,,,,,,,,,,,,,,,,,,,,,,,,
,,,,,62a347b1c0907ed12c916e96,6682b41eeb79ab8215dff63d,6682b8fb270aa9af2fb25979,20,female,english,2024-07-01_15h12.19.699,ABmemTask3,2023.2.3,Win32,59.88023952,,,,,,,,,,,,,,,,,,,,,,,,,,,,,,,309.3077,310.3063,310.3063,7,310.8059,312.3217,0.0014,312.4378,0.1158,0.1167,0.1165,0.1166,0.1165,0.1167,0.1164,0.1166,0.1165,0.1166,0.1165,312.4379,312.7543,right,0.2876,,312.7544,313.0206,right,0.2336,,32,0,38,313.0207,314.0197,,,,,,1_AB,L5_T1P_T2P,5,1,1,6,11,5,3,14,mail box,Did you see the mail box,0.12,0,resources/,pics/pictureframe04.jpg,pics/seaturtle.jpg,pics/blender.jpg,pics/carrot01.jpg,pics/nutcracker01.jpg,pics/mailbox02.jpg,pics/seagull.jpg,pics/sink.jpg,pics/siamesecat.jpg,pics/spiderweb.jpg,pics/stapler08.jpg,pics/safetypin.jpg,pics/candle01.jpg,pics/mummy.jpg,blankImage,blankImage,blankImage,mailbox02,43,0.1166,0.1168,,,,,,,,,,,,,,,,,,,,,,,,,,,,,,,,,,,,,,,0,18,18,42,1,,,,,,,,,,,,,,,,,,,,,,,,,,,,,,,,,,,,,,,,,,,,,,,,,,,,,,,
,,,,,62a347b1c0907ed12c916e96,6682b41eeb79ab8215dff63d,6682b8fb270aa9af2fb25979,20,female,english,2024-07-01_15h12.19.699,ABmemTask3,2023.2.3,Win32,59.88023952,,,,,,,,,,,,,,,,,,,,,,,,,,,,,,,314.0202,315.0187,315.0187,7,315.5183,316.801,0.001,316.9171,0.1161,0.1165,0.1166,0.1167,0.1165,0.1167,0.1164,0.1166,0.1166,0.1165,0.117,316.9172,317.3003,right,0.3501,,317.3004,317.5499,right,0.227,,34,0,40,317.5501,318.549,,,,,,1_AB,L1_T1P_T2P,1,1,1,7,8,6,4,12,Turnstile,Did you see the Turnstile,0.12,0,resources/,pics/golfball.jpg,pics/hose.jpg,pics/siamesecat.jpg,pics/binoculars01b.jpg,pics/hen.jpg,pics/candleholder01.jpg,pics/turnstile.jpg,pics/stapler03a.jpg,pics/giraffe.jpg,pics/pictureframe04.jpg,pics/sandbarshark.jpg,pics/spoon01.jpg,blankImage,blankImage,blankImage,blankImage,blankImage,turnstile,13,,,,,,,,,,,,,,,,,,,,,,,,,,,,,,,,,,,,,,,,,0,19,19,12,1,,,,,,,,,,,,,,,,,,,,,,,,,,,,,,,,,,,,,,,,,,,,,,,,,,,,,,,
,,,,,62a347b1c0907ed12c916e96,6682b41eeb79ab8215dff63d,6682b8fb270aa9af2fb25979,20,female,english,2024-07-01_15h12.19.699,ABmemTask3,2023.2.3,Win32,59.88023952,,,,,,,,,,,,,,,,,,,,,,,,,,,,,,,318.5495,319.5535,319.5535,7,320.0477,321.2136,0.0013,321.3298,0.1159,0.1168,0.1162,0.1166,0.1166,0.1165,0.1165,0.1165,0.1167,0.1164,,321.3299,321.7795,right,0.4229,,321.7796,322.0463,right,0.2441,,36,0,42,322.0464,323.045,,,,,,1_AB,L1_T1P_T2P,1,1,1,7,8,6,3,11,Eiffel tower,Did you see the Eiffel tower,0.12,0,resources/,pics/seagull.jpg,pics/cymbal.jpg,pics/match.jpg,pics/binoculars01b.jpg,pics/ball02.jpg,pics/onion.jpg,pics/eiffeltower.jpg,pics/stapler11.jpg,pics/peach01.jpg,pics/sandbarshark.jpg,pics/boot02b.jpg,blankImage,blankImage,blankImage,blankImage,blankImage,blankImage,eiffeltower,1,,,,,,,,,,,,,,,,,,,,,,,,,,,,,,,,,,,,,,,,,0,20,20,0,1,,,,,,,,,,,,,,,,,,,,,,,,,,,,,,,,,,,,,,,,,,,,,,,,,,,,,,,
,,,,,62a347b1c0907ed12c916e96,6682b41eeb79ab8215dff63d,6682b8fb270aa9af2fb25979,20,female,english,2024-07-01_15h12.19.699,ABmemTask3,2023.2.3,Win32,59.88023952,,,,,,,,,,,,,,,,,,,,,,,,,,,,,,,323.0456,324.0442,324.0443,7,324.5437,325.7097,0.0011,325.8259,0.1163,0.1163,0.1165,0.1167,0.1166,0.1167,0.1165,0.1165,0.1164,0.1167,,325.826,326.2922,right,0.4413,,326.2923,327.3578,right,1.0417,,38,0,44,327.3579,328.3569,,,,,,1_AB,L1_T1P_T2P,1,1,1,7,8,6,3,11,medal,Did you see the medal,0.12,0,resources/,pics/hen.jpg,pics/starfish01.jpg,pics/nutcracker01.jpg,pics/ball02.jpg,pics/fanblades.jpg,pics/christmaslights.jpg,pics/medal02b.jpg,pics/stapler09.jpg,pics/carrot01.jpg,pics/hammerheadshark.jpg,pics/sailboat.jpg,blankImage,blankImage,blankImage,blankImage,blankImage,blankImage,medal02b,19,,,,,,,,,,,,,,,,,,,,,,,,,,,,,,,,,,,,,,,,,0,21,21,18,1,,,,,,,,,,,,,,,,,,,,,,,,,,,,,,,,,,,,,,,,,,,,,,,,,,,,,,,
,,,,,62a347b1c0907ed12c916e96,6682b41eeb79ab8215dff63d,6682b8fb270aa9af2fb25979,20,female,english,2024-07-01_15h12.19.699,ABmemTask3,2023.2.3,Win32,59.88023952,,,,,,,,,,,,,,,,,,,,,,,,,,,,,,,328.3574,329.3561,329.3562,7,329.8555,331.3714,0.0012,331.4874,0.116,0.1168,0.1166,0.1163,0.1168,0.1164,0.1166,0.1163,0.1171,0.1165,0.1164,331.4875,331.8372,right,0.3171,,331.8372,332.1539,right,0.2854,,40,0,46,332.154,333.1529,,,,,,1_AB,L5_T1P_T2P,5,1,1,4,9,3,5,14,asparagus,Did you see the asparagus,0.12,0,resources/,pics/siamesecat.jpg,pics/starfish01.jpg,pics/aquarium.jpg,pics/asparagus.jpg,pics/salmon.jpg,pics/binoculars01b.jpg,pics/ball02.jpg,pics/calendar.jpg,pics/stapler10.jpg,pics/giraffe.jpg,pics/dromedary.jpg,pics/seaturtle.jpg,pics/sandbarshark.jpg,pics/shipinabottle.jpg,blankImage,blankImage,blankImage,asparagus,44,0.1166,0.1166,,,,,,,,,,,,,,,,,,,,,,,,,,,,,,,,,,,,,,,0,22,22,43,1,,,,,,,,,,,,,,,,,,,,,,,,,,,,,,,,,,,,,,,,,,,,,,,,,,,,,,,
,,,,,62a347b1c0907ed12c916e96,6682b41eeb79ab8215dff63d,6682b8fb270aa9af2fb25979,20,female,english,2024-07-01_15h12.19.699,ABmemTask3,2023.2.3,Win32,59.88023952,,,,,,,,,,,,,,,,,,,,,,,,,,,,,,,333.1536,334.1519,334.1519,7,334.6514,335.8173,0.0009,335.9336,0.116,0.1168,0.1165,0.1166,0.1166,0.1166,0.1168,0.1163,0.1166,0.1164,,335.9337,337.399,right,1.4328,,337.3991,337.7155,right,0.2836,,38,0,48,337.7156,338.7144,,,,,,1_AB,L1_T1P_T2A,1,1,0,7,8,6,3,11,garlic,Did you see the garlic,0.12,0,resources/,pics/zebra.jpg,pics/banjo.jpg,pics/pencilsharpener02a.jpg,pics/football.jpg,pics/candle01.jpg,pics/footballhelmet.jpg,pics/garlic01a.jpg,pics/birdhouse.jpg,pics/peach01.jpg,pics/pictureframe04.jpg,pics/binder03b.jpg,blankImage,blankImage,blankImage,blankImage,blankImage,blankImage,garlic01a,33,,,,,,,,,,,,,,,,,,,,,,,,,,,,,,,,,,,,,,,,,0,23,23,32,1,,,,,,,,,,,,,,,,,,,,,,,,,,,,,,,,,,,,,,,,,,,,,,,,,,,,,,,
,,,,,62a347b1c0907ed12c916e96,6682b41eeb79ab8215dff63d,6682b8fb270aa9af2fb25979,20,female,english,2024-07-01_15h12.19.699,ABmemTask3,2023.2.3,Win32,59.88023952,,,,,,,,,,,,,,,,,,,,,,,,,,,,,,,338.715,339.7136,339.7136,7,340.2131,341.6123,0.0013,341.7286,0.1157,0.1169,0.1166,0.1164,0.1165,0.1167,0.1166,0.1165,0.1164,0.1165,0.1167,341.7286,342.9941,left,1.2328,,342.9942,343.3605,right,0.3396,,38,0,50,343.3605,344.3594,,,,,,1_AB,L1_T1P_T2P,1,1,1,7,8,6,5,13,Totem Pole,Did you see the Totem Pole,0.12,0,resources/,pics/laptop01a.jpg,pics/carrot01.jpg,pics/wheel01.jpg,pics/icecube01.jpg,pics/ashtray01.jpg,pics/lock03a.jpg,pics/totempole.jpg,pics/stapler08.jpg,pics/golfball.jpg,pics/pencil01.jpg,pics/banjo.jpg,pics/sandbarshark.jpg,pics/shipinabottle.jpg,blankImage,blankImage,blankImage,blankImage,totempole,22,0.1166,,,,,,,,,,,,,,,,,,,,,,,,,,,,,,,,,,,,,,,,0,24,24,21,1,,,,,,,,,,,,,,,,,,,,,,,,,,,,,,,,,,,,,,,,,,,,,,,,,,,,,,,
,,,,,62a347b1c0907ed12c916e96,6682b41eeb79ab8215dff63d,6682b8fb270aa9af2fb25979,20,female,english,2024-07-01_15h12.19.699,ABmemTask3,2023.2.3,Win32,59.88023952,,,,,,,,,,,,,,,,,,,,,,,,,,,,,,,344.3601,345.3585,345.3586,7,345.8582,347.4904,0.001,347.6066,0.1162,0.1166,0.1166,0.1163,0.1167,0.1165,0.1165,0.1166,0.1166,0.1162,0.1166,347.6066,348.0398,right,0.4048,,348.0399,348.3228,right,0.2507,,40,0,52,348.3229,349.3218,,,,,,1_AB,L5_T1P_T2P,5,1,1,5,10,4,5,15,dolphin,Did you see the dolphin,0.12,0,resources/,pics/banjo.jpg,pics/shipinabottle.jpg,pics/laptop01a.jpg,pics/onion.jpg,pics/dolphin01.jpg,pics/sink.jpg,pics/seaturtle.jpg,pics/butterfly.jpg,pics/hen.jpg,pics/stapler10.jpg,pics/proboscismonkey.jpg,pics/starfish01.jpg,pics/salmon.jpg,pics/spiderweb.jpg,pics/cymbal.jpg,blankImage,blankImage,dolphin01,49,0.1169,0.1165,0.1167,,,,,,,,,,,,,,,,,,,,,,,,,,,,,,,,,,,,,,0,25,25,48,1,,,,,,,,,,,,,,,,,,,,,,,,,,,,,,,,,,,,,,,,,,,,,,,,,,,,,,,
,,,,,62a347b1c0907ed12c916e96,6682b41eeb79ab8215dff63d,6682b8fb270aa9af2fb25979,20,female,english,2024-07-01_15h12.19.699,ABmemTask3,2023.2.3,Win32,59.88023952,,,,,,,,,,,,,,,,,,,,,,,,,,,,,,,349.3224,350.3208,350.3209,7,350.8204,351.9865,0.0012,352.1026,0.116,0.1162,0.117,0.1164,0.1165,0.1168,0.1164,0.1166,0.1166,0.1166,,352.1027,353.568,right,1.4381,,353.5681,353.8679,right,0.2669,,38,0,54,353.868,354.8669,,,,,,1_AB,L1_T1P_T2A,1,1,0,7,8,6,3,11,eggplant,Did you see the eggplant,0.12,0,resources/,pics/salmon.jpg,pics/fanblades.jpg,pics/hammerheadshark.jpg,pics/wheel01.jpg,pics/snowshoe.jpg,pics/birdhouse.jpg,pics/eggplant.jpg,pics/spiderweb.jpg,pics/zebra.jpg,pics/pencilsharpener02a.jpg,pics/backpack01a.jpg,blankImage,blankImage,blankImage,blankImage,blankImage,blankImage,eggplant,32,,,,,,,,,,,,,,,,,,,,,,,,,,,,,,,,,,,,,,,,,0,26,26,31,1,,,,,,,,,,,,,,,,,,,,,,,,,,,,,,,,,,,,,,,,,,,,,,,,,,,,,,,
,,,,,62a347b1c0907ed12c916e96,6682b41eeb79ab8215dff63d,6682b8fb270aa9af2fb25979,20,female,english,2024-07-01_15h12.19.699,ABmemTask3,2023.2.3,Win32,59.88023952,,,,,,,,,,,,,,,,,,,,,,,,,,,,,,,354.8777,355.8658,355.8659,7,356.3654,357.6479,0.0013,357.7643,0.1158,0.1168,0.1163,0.1169,0.1164,0.1166,0.1166,0.1162,0.1167,0.1167,0.1163,357.7643,358.4136,right,0.6261,,358.4136,358.6804,left,0.2403,,40,0,56,358.6804,359.6792,,,,,,1_AB,L1_T1P_T2A,1,1,0,7,8,6,4,12,Tennis racket,Did you see the Tennis racket,0.12,0,resources/,pics/banjo.jpg,pics/leaf02a.jpg,pics/shovel01.jpg,pics/microscope.jpg,pics/cork02.jpg,pics/seagull.jpg,pics/tennisracket.jpg,pics/binder03b.jpg,pics/floortile02.jpg,pics/carrot01.jpg,pics/candle01.jpg,pics/siamesecat.jpg,blankImage,blankImage,blankImage,blankImage,blankImage,tennisracket,38,,,,,,,,,,,,,,,,,,,,,,,,,,,,,,,,,,,,,,,,,0,27,27,37,1,,,,,,,,,,,,,,,,,,,,,,,,,,,,,,,,,,,,,,,,,,,,,,,,,,,,,,,
,,,,,62a347b1c0907ed12c916e96,6682b41eeb79ab8215dff63d,6682b8fb270aa9af2fb25979,20,female,english,2024-07-01_15h12.19.699,ABmemTask3,2023.2.3,Win32,59.88023952,,,,,,,,,,,,,,,,,,,,,,,,,,,,,,,359.6798,360.6782,360.6783,7,361.1778,362.4605,0.001,362.5766,0.1162,0.1166,0.1165,0.1168,0.1168,0.116,0.1168,0.1164,0.1168,0.1168,0.1163,362.5767,363.0263,right,0.4167,,363.0264,363.2928,right,0.2351,,42,0,58,363.2928,364.2919,,,,,,1_AB,L5_T1P_T2P,5,1,1,4,9,3,3,12,Sheep,Did you see the Sheep,0.12,0,resources/,pics/icecube01.jpg,pics/cymbal.jpg,pics/wheel01.jpg,pics/sheep.jpg,pics/starfish01.jpg,pics/safetypin.jpg,pics/siamesecat.jpg,pics/lock03a.jpg,pics/stapler01.jpg,pics/sink.jpg,pics/fanblades.jpg,pics/bowlingpin.jpg,blankImage,blankImage,blankImage,blankImage,blankImage,sheep,52,,,,,,,,,,,,,,,,,,,,,,,,,,,,,,,,,,,,,,,,,0,28,28,51,1,,,,,,,,,,,,,,,,,,,,,,,,,,,,,,,,,,,,,,,,,,,,,,,,,,,,,,,
,,,,,62a347b1c0907ed12c916e96,6682b41eeb79ab8215dff63d,6682b8fb270aa9af2fb25979,20,female,english,2024-07-01_15h12.19.699,ABmemTask3,2023.2.3,Win32,59.88023952,,,,,,,,,,,,,,,,,,,,,,,,,,,,,,,364.2924,365.2909,365.291,7,365.7905,366.7233,0.001,366.8396,0.1159,0.1169,0.1165,0.1165,0.1168,0.1163,0.1168,0.1165,,,,366.8396,367.6557,left,0.7829,,367.6557,367.9221,right,0.2355,,42,0,60,367.9222,368.9211,,,,,,1_AB,L1_T1P_T2P,1,1,1,4,5,3,4,9,Chefs hat,Did you see the Chefs hat,0.12,0,resources/,pics/sewingmachine01a.jpg,pics/icecube01.jpg,pics/fanblades.jpg,pics/chefshat.jpg,pics/stapler06.jpg,pics/ashtray01.jpg,pics/blender.jpg,pics/sandbarshark.jpg,pics/lock03a.jpg,blankImage,blankImage,blankImage,blankImage,blankImage,blankImage,blankImage,blankImage,chefshat,12,,,,,,,,,,,,,,,,,,,,,,,,,,,,,,,,,,,,,,,,,0,29,29,11,1,,,,,,,,,,,,,,,,,,,,,,,,,,,,,,,,,,,,,,,,,,,,,,,,,,,,,,,
,,,,,62a347b1c0907ed12c916e96,6682b41eeb79ab8215dff63d,6682b8fb270aa9af2fb25979,20,female,english,2024-07-01_15h12.19.699,ABmemTask3,2023.2.3,Win32,59.88023952,,,,,,,,,,,,,,,,,,,,,,,,,,,,,,,368.9314,369.9202,369.9202,7,370.4198,372.1685,0.0012,372.2847,0.1158,0.1166,0.1167,0.1166,0.1163,0.1164,0.117,0.1165,0.1167,0.1164,0.1166,372.2848,372.7845,right,0.4697,,372.7845,373.1009,left,0.2848,,44,0,62,373.1009,374.1,,,,,,1_AB,L5_T1P_T2A,5,1,0,7,12,6,4,16,boat,Did you see the boat,0.12,0,resources/,pics/butterfly.jpg,pics/onion.jpg,pics/hose.jpg,pics/ball02.jpg,pics/ashtray01.jpg,pics/bowtie.jpg,pics/boat.jpg,pics/seaturtle.jpg,pics/blender.jpg,pics/zebra.jpg,pics/pictureframe04.jpg,pics/shovel01.jpg,pics/spoon01.jpg,pics/peanut01.jpg,pics/nutcracker01.jpg,pics/aquarium.jpg,blankImage,boat,60,0.1165,0.1166,0.1166,,,,,,,,,,,,,,,,,,,,,,,,,,,,,,,,,,,,,,0,30,30,59,1,0.1164,,,,,,,,,,,,,,,,,,,,,,,,,,,,,,,,,,,,,,,,,,,,,,,,,,,,,,
,,,,,62a347b1c0907ed12c916e96,6682b41eeb79ab8215dff63d,6682b8fb270aa9af2fb25979,20,female,english,2024-07-01_15h12.19.699,ABmemTask3,2023.2.3,Win32,59.88023952,,,,,,,,,,,,,,,,,,,,,,,,,,,,,,,374.1005,375.0989,375.0989,7,375.5986,376.9973,0.0011,377.1138,0.1159,0.1167,0.1169,0.1161,0.1167,0.1165,0.1166,0.1165,0.1168,0.1162,0.1164,377.1138,377.7468,left,0.6022,,377.7468,378.0132,left,0.2335,,44,0,64,378.0132,379.0121,,,,,,1_AB,L1_T1A_T2P,1,0,1,7,8,6,5,13,statue,Did you see the statue,0.12,0,resources/,pics/giraffe.jpg,pics/seaturtle.jpg,pics/peach01.jpg,pics/boot02b.jpg,pics/backpack01a.jpg,pics/sandbarshark.jpg,pics/microscope.jpg,pics/stapler07.jpg,pics/snowshoe.jpg,pics/laptop01a.jpg,pics/necklace.jpg,pics/zebra.jpg,pics/carrot01.jpg,blankImage,blankImage,blankImage,blankImage,statue,27,0.1163,,,,,,,,,,,,,,,,,,,,,,,,,,,,,,,,,,,,,,,,0,31,31,26,1,,,,,,,,,,,,,,,,,,,,,,,,,,,,,,,,,,,,,,,,,,,,,,,,,,,,,,,
,,,,,62a347b1c0907ed12c916e96,6682b41eeb79ab8215dff63d,6682b8fb270aa9af2fb25979,20,female,english,2024-07-01_15h12.19.699,ABmemTask3,2023.2.3,Win32,59.88023952,,,,,,,,,,,,,,,,,,,,,,,,,,,,,,,379.0127,380.011,380.0111,7,380.5107,382.0263,0.0011,382.1428,0.1161,0.1166,0.1167,0.1163,0.1165,0.1166,0.1165,0.1166,0.1165,0.1165,0.1169,382.1429,382.9087,right,0.7408,,382.9088,383.1918,left,0.2573,,46,0,66,383.1919,384.1909,,,,,,1_AB,L5_T1P_T2A,5,1,0,6,11,5,3,14,Kiwi,Did you see the Kiwi,0.12,0,resources/,pics/candleholder01.jpg,pics/kangaroo.jpg,pics/banjo.jpg,pics/binoculars01b.jpg,pics/microscope.jpg,pics/kiwi03.jpg,pics/bowtie.jpg,pics/peanut01.jpg,pics/backpack01a.jpg,pics/zebra.jpg,pics/toiletpaper01a.jpg,pics/hen.jpg,pics/spoon01.jpg,pics/calendar.jpg,blankImage,blankImage,blankImage,kiwi03,59,0.1164,0.1165,,,,,,,,,,,,,,,,,,,,,,,,,,,,,,,,,,,,,,,0,32,32,58,1,,,,,,,,,,,,,,,,,,,,,,,,,,,,,,,,,,,,,,,,,,,,,,,,,,,,,,,
,,,,,62a347b1c0907ed12c916e96,6682b41eeb79ab8215dff63d,6682b8fb270aa9af2fb25979,20,female,english,2024-07-01_15h12.19.699,ABmemTask3,2023.2.3,Win32,59.88023952,,,,,,,,,,,,,,,,,,,,,,,,,,,,,,,384.1915,385.1899,385.19,7,385.6895,387.2051,0.0011,387.3213,0.1161,0.1166,0.1165,0.1169,0.1164,0.1165,0.1165,0.1166,0.1164,0.1166,0.1166,387.3214,387.638,right,0.2849,,387.6381,387.8877,right,0.2219,,48,0,68,387.8878,388.8867,,,,,,1_AB,L5_T1P_T2P,5,1,1,4,9,3,5,14,pliers,Did you see the pliers,0.12,0,resources/,pics/calendar.jpg,pics/footballhelmet.jpg,pics/seaturtle.jpg,pics/pliers02b.jpg,pics/wheel01.jpg,pics/cannon.jpg,pics/proboscismonkey.jpg,pics/shovel01.jpg,pics/stapler06.jpg,pics/football.jpg,pics/hose.jpg,pics/dustpan.jpg,pics/spiderweb.jpg,pics/golfball.jpg,blankImage,blankImage,blankImage,pliers02b,48,0.1165,0.1165,,,,,,,,,,,,,,,,,,,,,,,,,,,,,,,,,,,,,,,0,33,33,47,1,,,,,,,,,,,,,,,,,,,,,,,,,,,,,,,,,,,,,,,,,,,,,,,,,,,,,,,
,,,,,62a347b1c0907ed12c916e96,6682b41eeb79ab8215dff63d,6682b8fb270aa9af2fb25979,20,female,english,2024-07-01_15h12.19.699,ABmemTask3,2023.2.3,Win32,59.88023952,,,,,,,,,,,,,,,,,,,,,,,,,,,,,,,388.8874,389.8859,389.886,7,390.3854,391.6679,0.0011,391.7841,0.1159,0.1166,0.1167,0.1164,0.1166,0.1166,0.1165,0.1168,0.1165,0.1164,0.1166,391.7841,392.2338,right,0.4197,,392.2339,392.5335,right,0.273,,50,0,70,392.5336,393.5326,,,,,,1_AB,L1_T1P_T2P,1,1,1,6,7,5,5,12,rope,Did you see the rope,0.12,0,resources/,pics/toiletpaper01a.jpg,pics/sewingmachine01a.jpg,pics/birdhouse.jpg,pics/sealion.jpg,pics/safetypin.jpg,pics/rope03.jpg,pics/stapler04.jpg,pics/binder03b.jpg,pics/ashtray01.jpg,pics/sandbarshark.jpg,pics/chainsaw.jpg,pics/nutcracker01.jpg,blankImage,blankImage,blankImage,blankImage,blankImage,rope03,4,,,,,,,,,,,,,,,,,,,,,,,,,,,,,,,,,,,,,,,,,0,34,34,3,1,,,,,,,,,,,,,,,,,,,,,,,,,,,,,,,,,,,,,,,,,,,,,,,,,,,,,,,
,,,,,62a347b1c0907ed12c916e96,6682b41eeb79ab8215dff63d,6682b8fb270aa9af2fb25979,20,female,english,2024-07-01_15h12.19.699,ABmemTask3,2023.2.3,Win32,59.88023952,,,,,,,,,,,,,,,,,,,,,,,,,,,,,,,393.5336,394.5317,394.5317,7,395.0318,396.3138,0.0015,396.4301,0.1153,0.1162,0.1167,0.1166,0.1164,0.1167,0.1166,0.1219,0.1112,0.1166,0.1165,396.4302,397.1461,left,0.6858,,397.1462,397.3959,right,0.2171,,52,0,72,397.396,398.3949,,,,,,1_AB,L5_T1A_T2P,5,0,1,4,9,3,3,12,rooster,Did you see the rooster,0.12,0,resources/,pics/table01.jpg,pics/icecube01.jpg,pics/dustpan.jpg,pics/lock03a.jpg,pics/sailboat.jpg,pics/salmon.jpg,pics/banjo.jpg,pics/zebra.jpg,pics/stapler09.jpg,pics/peach01.jpg,pics/chainsaw.jpg,pics/football.jpg,blankImage,blankImage,blankImage,blankImage,blankImage,rooster,55,,,,,,,,,,,,,,,,,,,,,,,,,,,,,,,,,,,,,,,,,0,35,35,54,1,,,,,,,,,,,,,,,,,,,,,,,,,,,,,,,,,,,,,,,,,,,,,,,,,,,,,,,
,,,,,62a347b1c0907ed12c916e96,6682b41eeb79ab8215dff63d,6682b8fb270aa9af2fb25979,20,female,english,2024-07-01_15h12.19.699,ABmemTask3,2023.2.3,Win32,59.88023952,,,,,,,,,,,,,,,,,,,,,,,,,,,,,,,398.3954,399.3941,399.3941,7,399.8938,401.2928,0.0012,401.4089,0.1157,0.1165,0.1167,0.1166,0.1165,0.1166,0.1166,0.1163,0.1168,0.1167,0.1165,401.4091,402.275,left,0.8351,,402.2751,402.5082,right,0.2005,,54,0,74,402.5082,403.507,,,,,,1_AB,L1_T1A_T2P,1,0,1,7,8,6,5,13,Basketball,Did you see the Basketball,0.12,0,resources/,pics/cork02.jpg,pics/table01.jpg,pics/christmaslights.jpg,pics/nutcracker01.jpg,pics/golfball.jpg,pics/hammerheadshark.jpg,pics/seaturtle.jpg,pics/stapler04b.jpg,pics/lock03a.jpg,pics/snowshoe.jpg,pics/sewingmachine01a.jpg,pics/peach01.jpg,pics/hose.jpg,blankImage,blankImage,blankImage,blankImage,basketball01,24,0.1166,,,,,,,,,,,,,,,,,,,,,,,,,,,,,,,,,,,,,,,,0,36,36,23,1,,,,,,,,,,,,,,,,,,,,,,,,,,,,,,,,,,,,,,,,,,,,,,,,,,,,,,,
,,,,,62a347b1c0907ed12c916e96,6682b41eeb79ab8215dff63d,6682b8fb270aa9af2fb25979,20,female,english,2024-07-01_15h12.19.699,ABmemTask3,2023.2.3,Win32,59.88023952,,,,,,,,,,,,,,,,,,,,,,,,,,,,,,,403.5074,404.5063,404.5064,7,405.0058,406.5214,0.0015,406.6377,0.1157,0.1166,0.1167,0.1161,0.1168,0.1166,0.1165,0.1166,0.1165,0.1165,0.1165,406.6378,408.2531,left,1.5884,,408.2532,409.0024,left,0.7209,,54,0,76,409.0025,410.0013,,,,,,1_AB,L5_T1A_T2P,5,0,1,4,9,3,5,14,lemon,Did you see the lemon,0.12,0,resources/,pics/seaturtle.jpg,pics/lightswitch01.jpg,pics/candle01.jpg,pics/cannon.jpg,pics/seagull.jpg,pics/spoon01.jpg,pics/spiderweb.jpg,pics/sewingmachine01a.jpg,pics/stapler05.jpg,pics/binoculars01b.jpg,pics/zebra.jpg,pics/sealion.jpg,pics/shovel01.jpg,pics/wheel01.jpg,blankImage,blankImage,blankImage,lemon02,56,0.1167,0.1165,,,,,,,,,,,,,,,,,,,,,,,,,,,,,,,,,,,,,,,0,37,37,55,1,,,,,,,,,,,,,,,,,,,,,,,,,,,,,,,,,,,,,,,,,,,,,,,,,,,,,,,
,,,,,62a347b1c0907ed12c916e96,6682b41eeb79ab8215dff63d,6682b8fb270aa9af2fb25979,20,female,english,2024-07-01_15h12.19.699,ABmemTask3,2023.2.3,Win32,59.88023952,,,,,,,,,,,,,,,,,,,,,,,,,,,,,,,410.0116,411.0004,411.0006,7,411.5,412.666,0.0012,412.7822,0.1159,0.1166,0.1168,0.1182,0.1148,0.1163,0.1168,0.1163,0.1166,0.1167,,412.7823,413.7815,left,0.966,,413.7816,414.0311,right,0.2172,,56,0,78,414.0312,415.0303,,,,,,1_AB,L1_T1A_T2P,1,0,1,5,6,4,5,11,Recorder,Did you see the Recorder,0.12,0,resources/,pics/bowtie.jpg,pics/nutcracker01.jpg,pics/hairdryer02a.jpg,pics/shovel01.jpg,pics/onion.jpg,pics/stapler13.jpg,pics/safetypin.jpg,pics/spiderweb.jpg,pics/seagull.jpg,pics/dustpan.jpg,pics/icecube01.jpg,blankImage,blankImage,blankImage,blankImage,blankImage,blankImage,recorder04,28,,,,,,,,,,,,,,,,,,,,,,,,,,,,,,,,,,,,,,,,,0,38,38,27,1,,,,,,,,,,,,,,,,,,,,,,,,,,,,,,,,,,,,,,,,,,,,,,,,,,,,,,,
,,,,,62a347b1c0907ed12c916e96,6682b41eeb79ab8215dff63d,6682b8fb270aa9af2fb25979,20,female,english,2024-07-01_15h12.19.699,ABmemTask3,2023.2.3,Win32,59.88023952,,,,,,,,,,,,,,,,,,,,,,,,,,,,,,,415.0431,416.046,416.0461,7,416.5456,417.4783,0.0008,417.5945,0.1161,0.1165,0.1167,0.1166,0.1164,0.1166,0.1164,0.1165,,,,417.5946,418.4441,right,0.8164,,418.4442,418.7104,left,0.2389,,56,0,80,418.7105,419.7094,,,,,,1_AB,L1_T1P_T2P,1,1,1,5,6,4,3,9,cabbage,Did you see the cabbage,0.12,0,resources/,pics/match.jpg,pics/icecube01.jpg,pics/noparkingsign.jpg,pics/christmaslights.jpg,pics/cabbage.jpg,pics/stapler03a.jpg,pics/carrot01.jpg,pics/dustpan.jpg,pics/cannon.jpg,blankImage,blankImage,blankImage,blankImage,blankImage,blankImage,blankImage,blankImage,cabbage,14,,,,,,,,,,,,,,,,,,,,,,,,,,,,,,,,,,,,,,,,,0,39,39,13,1,,,,,,,,,,,,,,,,,,,,,,,,,,,,,,,,,,,,,,,,,,,,,,,,,,,,,,,
,,,,,62a347b1c0907ed12c916e96,6682b41eeb79ab8215dff63d,6682b8fb270aa9af2fb25979,20,female,english,2024-07-01_15h12.19.699,ABmemTask3,2023.2.3,Win32,59.88023952,,,,,,,,,,,,,,,,,,,,,,,,,,,,,,,419.7099,420.7085,420.7086,7,421.208,422.141,0.0011,422.2571,0.1161,0.1166,0.1166,0.1166,0.1165,0.1165,0.1166,0.1167,,,,422.2572,422.8566,right,0.5666,,422.8568,423.1564,left,0.2672,,56,0,82,423.1564,424.1554,,,,,,1_AB,L1_T1P_T2P,1,1,1,5,6,4,3,9,Ant,Did you see the Ant,0.12,0,resources/,pics/kangaroo.jpg,pics/giraffe.jpg,pics/footballhelmet.jpg,pics/onion.jpg,pics/ant.jpg,pics/stapler04b.jpg,pics/banjo.jpg,pics/zebra.jpg,pics/dromedary.jpg,blankImage,blankImage,blankImage,blankImage,blankImage,blankImage,blankImage,blankImage,ant,15,,,,,,,,,,,,,,,,,,,,,,,,,,,,,,,,,,,,,,,,,0,40,40,14,1,,,,,,,,,,,,,,,,,,,,,,,,,,,,,,,,,,,,,,,,,,,,,,,,,,,,,,,
,,,,,62a347b1c0907ed12c916e96,6682b41eeb79ab8215dff63d,6682b8fb270aa9af2fb25979,20,female,english,2024-07-01_15h12.19.699,ABmemTask3,2023.2.3,Win32,59.88023952,,,,,,,,,,,,,,,,,,,,,,,,,,,,,,,424.1559,425.1546,425.1546,7,425.6542,427.0532,0.001,427.1694,0.116,0.1167,0.1164,0.1166,0.1166,0.1164,0.1169,0.1161,0.1167,0.1167,0.1165,427.1696,427.769,left,0.5668,,427.7691,428.0188,left,0.2236,,58,0,84,428.0189,429.0178,,,,,,1_AB,L1_T1A_T2A,1,0,0,7,8,6,5,13,fan,Did you see the fan,0.12,0,resources/,pics/leaf02a.jpg,pics/dustpan.jpg,pics/pencil01.jpg,pics/kangaroo.jpg,pics/golfball.jpg,pics/lightswitch01.jpg,pics/nutcracker01.jpg,pics/calendar.jpg,pics/hose.jpg,pics/starfish01.jpg,pics/siamesecat.jpg,pics/bowlingpin.jpg,pics/necklace.jpg,blankImage,blankImage,blankImage,blankImage,fan,42,0.1165,,,,,,,,,,,,,,,,,,,,,,,,,,,,,,,,,,,,,,,,0,41,41,41,1,,,,,,,,,,,,,,,,,,,,,,,,,,,,,,,,,,,,,,,,,,,,,,,,,,,,,,,
,,,,,62a347b1c0907ed12c916e96,6682b41eeb79ab8215dff63d,6682b8fb270aa9af2fb25979,20,female,english,2024-07-01_15h12.19.699,ABmemTask3,2023.2.3,Win32,59.88023952,,,,,,,,,,,,,,,,,,,,,,,,,,,,,,,429.0183,430.0171,430.0171,7,430.5165,431.5658,0.0011,431.6821,0.1159,0.1167,0.1163,0.1166,0.1166,0.1265,0.1068,0.1165,0.1166,,,431.6823,432.265,left,0.5535,,432.265,432.5148,left,0.217,,58,0,86,432.5149,433.5138,,,,,,1_AB,L1_T1P_T2A,1,1,0,6,7,5,3,10,Electric toothbrush,Did you see the Electric toothbrush,0.12,0,resources/,pics/football.jpg,pics/sailboat.jpg,pics/cymbal.jpg,pics/hen.jpg,pics/pencil01.jpg,pics/electrictoothbrush01c.jpg,pics/bowlingpin.jpg,pics/wheel01.jpg,pics/birdhouse.jpg,pics/leaf02a.jpg,blankImage,blankImage,blankImage,blankImage,blankImage,blankImage,blankImage,electrictoothbrush01c,34,,,,,,,,,,,,,,,,,,,,,,,,,,,,,,,,,,,,,,,,,0,42,42,33,1,,,,,,,,,,,,,,,,,,,,,,,,,,,,,,,,,,,,,,,,,,,,,,,,,,,,,,,
,,,,,62a347b1c0907ed12c916e96,6682b41eeb79ab8215dff63d,6682b8fb270aa9af2fb25979,20,female,english,2024-07-01_15h12.19.699,ABmemTask3,2023.2.3,Win32,59.88023952,,,,,,,,,,,,,,,,,,,,,,,,,,,,,,,433.5144,434.513,434.513,7,435.0124,435.8287,0.0009,435.945,0.1162,0.1166,0.1166,0.1166,0.1167,0.1163,0.1166,,,,,435.945,436.7839,left,0.8161,,436.784,437.0274,right,0.2198,,60,0,88,437.0275,438.0264,,,,,,1_AB,L1_T1A_T2P,1,0,1,4,5,3,3,8,Parking meter,Did you see the Parking meter,0.12,0,resources/,pics/leaf02a.jpg,pics/carrot01.jpg,pics/sink.jpg,pics/butterfly.jpg,pics/stapler10.jpg,pics/pictureframe04.jpg,pics/spiderweb.jpg,pics/icecube01.jpg,blankImage,blankImage,blankImage,blankImage,blankImage,blankImage,blankImage,blankImage,blankImage,parkingmeter,30,,,,,,,,,,,,,,,,,,,,,,,,,,,,,,,,,,,,,,,,,0,43,43,29,1,,,,,,,,,,,,,,,,,,,,,,,,,,,,,,,,,,,,,,,,,,,,,,,,,,,,,,,
,,,,,62a347b1c0907ed12c916e96,6682b41eeb79ab8215dff63d,6682b8fb270aa9af2fb25979,20,female,english,2024-07-01_15h12.19.699,ABmemTask3,2023.2.3,Win32,59.88023952,,,,,,,,,,,,,,,,,,,,,,,,,,,,,,,438.0269,439.0256,439.0257,7,439.5251,441.3905,0.0007,441.5067,0.1164,0.1167,0.1162,0.1168,0.1166,0.1165,0.1167,0.1202,0.1127,0.1166,0.1167,441.5068,442.7891,left,1.2512,,442.7891,443.0721,left,0.2513,,62,0,90,443.0721,444.0711,,,,,,1_AB,L5_T1A_T2A,5,0,0,7,12,6,5,17,Bib,Did you see the Bib,0.12,0,resources/,pics/hammerheadshark.jpg,pics/wheel01.jpg,pics/binder03b.jpg,pics/hairdryer02a.jpg,pics/christmaslights.jpg,pics/sandbarshark.jpg,pics/binoculars01b.jpg,pics/piggybank.jpg,pics/aquarium.jpg,pics/candleholder01.jpg,pics/sink.jpg,pics/calendar.jpg,pics/birdhouse.jpg,pics/bowtie.jpg,pics/onion.jpg,pics/golfball.jpg,pics/sailboat.jpg,bib,62,0.1225,0.1107,0.1164,,,,,,,,,,,,,,,,,,,,,,,,,,,,,,,,,,,,,,0,44,44,61,1,0.1166,0.1167,,,,,,,,,,,,,,,,,,,,,,,,,,,,,,,,,,,,,,,,,,,,,,,,,,,,,
,,,,,62a347b1c0907ed12c916e96,6682b41eeb79ab8215dff63d,6682b8fb270aa9af2fb25979,20,female,english,2024-07-01_15h12.19.699,ABmemTask3,2023.2.3,Win32,59.88023952,,,,,,,,,,,,,,,,,,,,,,,,,,,,,,,444.0716,445.0702,445.0703,7,445.5697,447.3186,0.0011,447.4349,0.116,0.1166,0.1166,0.1166,0.1164,0.1167,0.1164,0.1166,0.1166,0.1167,0.1164,447.435,447.7847,right,0.3193,,447.7848,448.0677,right,0.2501,,64,0,92,448.0678,449.0668,,,,,,1_AB,L5_T1P_T2P,5,1,1,6,11,5,5,16,cruise ship,Did you see the cruise ship,0.12,0,resources/,pics/seaturtle.jpg,pics/ashtray01.jpg,pics/pencil01.jpg,pics/fanblades.jpg,pics/triangle.jpg,pics/cruiseship.jpg,pics/wheel01.jpg,pics/dustpan.jpg,pics/starfish01.jpg,pics/banjo.jpg,pics/stapler12.jpg,pics/match.jpg,pics/cannon.jpg,pics/sandbarshark.jpg,pics/sink.jpg,pics/zebra.jpg,blankImage,cruiseship,51,0.1166,0.1165,0.1166,,,,,,,,,,,,,,,,,,,,,,,,,,,,,,,,,,,,,,0,45,45,50,1,0.1166,,,,,,,,,,,,,,,,,,,,,,,,,,,,,,,,,,,,,,,,,,,,,,,,,,,,,,
,,,,,62a347b1c0907ed12c916e96,6682b41eeb79ab8215dff63d,6682b8fb270aa9af2fb25979,20,female,english,2024-07-01_15h12.19.699,ABmemTask3,2023.2.3,Win32,59.88023952,,,,,,,,,,,,,,,,,,,,,,,,,,,,,,,449.0673,450.0658,450.0659,7,450.5654,451.4983,0.0012,451.6145,0.116,0.1165,0.1165,0.1167,0.1166,0.1164,0.1165,0.1167,,,,451.6145,452.2974,left,0.6498,,452.2974,452.5803,left,0.2527,,64,0,94,452.5804,453.5794,,,,,,1_AB,L1_T1A_T2P,1,0,1,5,6,4,3,9,Trailer,Did you see the Trailer,0.12,0,resources/,pics/pencil01.jpg,pics/football.jpg,pics/hairdryer02a.jpg,pics/wheel01.jpg,pics/chainsaw.jpg,pics/stapler10.jpg,pics/peanut01.jpg,pics/triangle.jpg,pics/sink.jpg,blankImage,blankImage,blankImage,blankImage,blankImage,blankImage,blankImage,blankImage,boxtrailer,29,,,,,,,,,,,,,,,,,,,,,,,,,,,,,,,,,,,,,,,,,0,46,46,28,1,,,,,,,,,,,,,,,,,,,,,,,,,,,,,,,,,,,,,,,,,,,,,,,,,,,,,,,
,,,,,62a347b1c0907ed12c916e96,6682b41eeb79ab8215dff63d,6682b8fb270aa9af2fb25979,20,female,english,2024-07-01_15h12.19.699,ABmemTask3,2023.2.3,Win32,59.88023952,,,,,,,,,,,,,,,,,,,,,,,,,,,,,,,453.58,454.5785,454.5785,7,455.0782,456.3604,0.0008,456.4767,0.1159,0.1168,0.1162,0.1168,0.1166,0.1165,0.1166,0.1166,0.1165,0.1165,0.1166,456.4768,457.1598,right,0.6515,,457.1598,457.4427,right,0.2536,,66,0,96,457.4428,458.4417,,,,,,1_AB,L1_T1P_T2P,1,1,1,6,7,5,5,12,jeep,Did you see the jeep,0.12,0,resources/,pics/sandbarshark.jpg,pics/laptop01a.jpg,pics/peach01.jpg,pics/binoculars01b.jpg,pics/giraffe.jpg,pics/jeep.jpg,pics/stapler03b.jpg,pics/fanblades.jpg,pics/cannon.jpg,pics/starfish01.jpg,pics/piggybank.jpg,pics/noparkingsign.jpg,blankImage,blankImage,blankImage,blankImage,blankImage,jeep,2,,,,,,,,,,,,,,,,,,,,,,,,,,,,,,,,,,,,,,,,,0,47,47,1,1,,,,,,,,,,,,,,,,,,,,,,,,,,,,,,,,,,,,,,,,,,,,,,,,,,,,,,,
,,,,,62a347b1c0907ed12c916e96,6682b41eeb79ab8215dff63d,6682b8fb270aa9af2fb25979,20,female,english,2024-07-01_15h12.19.699,ABmemTask3,2023.2.3,Win32,59.88023952,,,,,,,,,,,,,,,,,,,,,,,,,,,,,,,458.4422,459.4408,459.4408,7,459.9403,461.5726,0.0007,461.6889,0.1164,0.1165,0.1175,0.1158,0.1166,0.1164,0.1166,0.1167,0.1168,0.1163,0.1165,461.689,462.0052,right,0.2839,,462.0053,462.2551,right,0.2178,,68,0,98,462.2552,463.2542,,,,,,1_AB,L5_T1P_T2P,5,1,1,6,11,5,4,15,toast,Did you see the toast,0.12,0,resources/,pics/piggybank.jpg,pics/leaf02a.jpg,pics/carrot01.jpg,pics/birdhouse.jpg,pics/bowlingpin.jpg,pics/toast.jpg,pics/spiderweb.jpg,pics/cork02.jpg,pics/sink.jpg,pics/nutcracker01.jpg,pics/stapler02.jpg,pics/ashtray01.jpg,pics/fanblades.jpg,pics/pencil01.jpg,pics/lightswitch01.jpg,blankImage,blankImage,toast,46,0.1167,0.1162,0.1168,,,,,,,,,,,,,,,,,,,,,,,,,,,,,,,,,,,,,,0,48,48,45,1,,,,,,,,,,,,,,,,,,,,,,,,,,,,,,,,,,,,,,,,,,,,,,,,,,,,,,,
,,,,,62a347b1c0907ed12c916e96,6682b41eeb79ab8215dff63d,6682b8fb270aa9af2fb25979,20,female,english,2024-07-01_15h12.19.699,ABmemTask3,2023.2.3,Win32,59.88023952,,,,,,,,,,,,,,,,,,,,,,,,,,,,,,,463.2546,464.2534,464.2534,7,464.7529,466.385,0.001,466.5013,0.1159,0.1166,0.1166,0.1166,0.1163,0.1167,0.1168,0.1164,0.1166,0.1164,0.1167,466.5014,466.5346,right,0.0048,,466.5347,466.8178,right,0.2522,,70,0,100,466.8179,467.8169,,,,,,1_AB,L5_T1P_T2P,5,1,1,5,10,4,5,15,ribbon,Did you see the ribbon,0.12,0,resources/,pics/giraffe.jpg,pics/boot02b.jpg,pics/cymbal.jpg,pics/leaf02a.jpg,pics/ribbon04.jpg,pics/lightswitch01.jpg,pics/necklace.jpg,pics/calendar.jpg,pics/kangaroo.jpg,pics/stapler12.jpg,pics/hose.jpg,pics/carrot01.jpg,pics/match.jpg,pics/sink.jpg,pics/candleholder01.jpg,blankImage,blankImage,ribbon04,53,0.1167,0.1165,0.1165,,,,,,,,,,,,,,,,,,,,,,,,,,,,,,,,,,,,,,0,49,49,52,1,,,,,,,,,,,,,,,,,,,,,,,,,,,,,,,,,,,,,,,,,,,,,,,,,,,,,,,
,,,,,62a347b1c0907ed12c916e96,6682b41eeb79ab8215dff63d,6682b8fb270aa9af2fb25979,20,female,english,2024-07-01_15h12.19.699,ABmemTask3,2023.2.3,Win32,59.88023952,,,,,,,,,,,,,,,,,,,,,,,,,,,,,,,467.8176,468.8158,468.8158,7,469.3154,470.2482,0.0007,470.3645,0.1164,0.1166,0.1168,0.1166,0.1163,0.1167,0.1166,0.1163,,,,470.3646,470.7476,right,0.3562,,470.7477,470.9974,right,0.2169,,72,0,102,470.9974,471.9967,,,,,,1_AB,L1_T1P_T2P,1,1,1,4,5,3,4,9,antenna,Did you see the antenna,0.12,0,resources/,pics/microscope.jpg,pics/spoon01.jpg,pics/dromedary.jpg,pics/antenna.jpg,pics/stapler03.jpg,pics/hen.jpg,pics/leaf02a.jpg,pics/candle01.jpg,pics/sealion.jpg,blankImage,blankImage,blankImage,blankImage,blankImage,blankImage,blankImage,blankImage,antenna,9,,,,,,,,,,,,,,,,,,,,,,,,,,,,,,,,,,,,,,,,,0,50,50,8,1,,,,,,,,,,,,,,,,,,,,,,,,,,,,,,,,,,,,,,,,,,,,,,,,,,,,,,,
,,,,,62a347b1c0907ed12c916e96,6682b41eeb79ab8215dff63d,6682b8fb270aa9af2fb25979,20,female,english,2024-07-01_15h12.19.699,ABmemTask3,2023.2.3,Win32,59.88023952,,,,,,,,,,,,,,,,,,,,,,,,,,,,,,,471.9974,472.9955,472.9956,7,473.4951,474.661,0.0012,474.7773,0.1161,0.1162,0.1167,0.1164,0.1166,0.1166,0.1165,0.1169,0.1161,0.1168,,474.7774,475.2438,right,0.4334,,475.2438,475.51,right,0.2362,,70,0,104,475.5101,476.5091,,,,,,1_AB,L1_T1P_T2A,1,1,0,6,7,5,4,11,lamp,Did you see the lamp,0.12,0,resources/,pics/chainsaw.jpg,pics/fanblades.jpg,pics/salmon.jpg,pics/proboscismonkey.jpg,pics/boot02b.jpg,pics/lamp04a.jpg,pics/blender.jpg,pics/sink.jpg,pics/pencil01.jpg,pics/floortile02.jpg,pics/shovel01.jpg,blankImage,blankImage,blankImage,blankImage,blankImage,blankImage,lamp04a,37,,,,,,,,,,,,,,,,,,,,,,,,,,,,,,,,,,,,,,,,,0,51,51,36,1,,,,,,,,,,,,,,,,,,,,,,,,,,,,,,,,,,,,,,,,,,,,,,,,,,,,,,,
,,,,,62a347b1c0907ed12c916e96,6682b41eeb79ab8215dff63d,6682b8fb270aa9af2fb25979,20,female,english,2024-07-01_15h12.19.699,ABmemTask3,2023.2.3,Win32,59.88023952,,,,,,,,,,,,,,,,,,,,,,,,,,,,,,,476.5096,477.5081,477.5082,7,478.0077,479.0572,0.0009,479.1733,0.1162,0.1167,0.1165,0.1164,0.1166,0.1166,0.1167,0.1165,0.1166,,,479.1734,480.1061,left,0.8996,,480.1061,480.3058,right,0.1727,,72,0,106,480.3059,481.3048,,,,,,1_AB,L1_T1A_T2P,1,0,1,5,6,4,4,10,Rabbit,Did you see the Rabbit,0.12,0,resources/,pics/cannon.jpg,pics/proboscismonkey.jpg,pics/salmon.jpg,pics/nutcracker01.jpg,pics/seagull.jpg,pics/stapler02.jpg,pics/table01.jpg,pics/laptop01a.jpg,pics/necklace.jpg,pics/pencilsharpener02a.jpg,blankImage,blankImage,blankImage,blankImage,blankImage,blankImage,blankImage,jackrabbit,31,,,,,,,,,,,,,,,,,,,,,,,,,,,,,,,,,,,,,,,,,0,52,52,30,1,,,,,,,,,,,,,,,,,,,,,,,,,,,,,,,,,,,,,,,,,,,,,,,,,,,,,,,
,,,,,62a347b1c0907ed12c916e96,6682b41eeb79ab8215dff63d,6682b8fb270aa9af2fb25979,20,female,english,2024-07-01_15h12.19.699,ABmemTask3,2023.2.3,Win32,59.88023952,,,,,,,,,,,,,,,,,,,,,,,,,,,,,,,481.3052,482.304,482.304,7,482.8035,484.3192,0.0009,484.4354,0.1161,0.1165,0.1168,0.1165,0.1165,0.1164,0.1165,0.1168,0.1165,0.1165,0.1166,484.4355,485.0184,right,0.55,,485.0185,485.2513,right,0.2097,,70,0,108,485.2515,486.2505,,,,,,1_AB,L5_T1P_T2A,5,1,0,4,9,3,5,14,Frisbee,Did you see the Frisbee,0.12,0,resources/,pics/giraffe.jpg,pics/christmaslights.jpg,pics/bowtie.jpg,pics/frisbee.jpg,pics/banjo.jpg,pics/calendar.jpg,pics/butterfly.jpg,pics/onion.jpg,pics/starfish01.jpg,pics/footballhelmet.jpg,pics/blender.jpg,pics/candleholder01.jpg,pics/hairdryer02a.jpg,pics/dromedary.jpg,blankImage,blankImage,blankImage,frisbee,58,0.1164,0.1167,,,,,,,,,,,,,,,,,,,,,,,,,,,,,,,,,,,,,,,0,53,53,57,1,,,,,,,,,,,,,,,,,,,,,,,,,,,,,,,,,,,,,,,,,,,,,,,,,,,,,,,
,,,,,62a347b1c0907ed12c916e96,6682b41eeb79ab8215dff63d,6682b8fb270aa9af2fb25979,20,female,english,2024-07-01_15h12.19.699,ABmemTask3,2023.2.3,Win32,59.88023952,,,,,,,,,,,,,,,,,,,,,,,,,,,,,,,486.251,487.2496,487.2497,7,487.7491,488.9151,0.0008,489.0313,0.1163,0.1166,0.1165,0.1165,0.1166,0.1168,0.1166,0.1164,0.1165,0.1166,,489.0314,490.0141,left,0.9507,,490.0142,490.247,right,0.2004,,68,0,110,490.2471,491.246,,,,,,1_AB,L1_T1A_T2A,1,0,0,7,8,6,3,11,Poker chips,Did you see the Poker chips,0.12,0,resources/,pics/candle01.jpg,pics/proboscismonkey.jpg,pics/fanblades.jpg,pics/dromedary.jpg,pics/aquarium.jpg,pics/salmon.jpg,pics/hose.jpg,pics/kangaroo.jpg,pics/noparkingsign.jpg,pics/carrot01.jpg,pics/leaf02a.jpg,blankImage,blankImage,blankImage,blankImage,blankImage,blankImage,pokerchips,41,,,,,,,,,,,,,,,,,,,,,,,,,,,,,,,,,,,,,,,,,0,54,54,40,1,,,,,,,,,,,,,,,,,,,,,,,,,,,,,,,,,,,,,,,,,,,,,,,,,,,,,,,
,,,,,62a347b1c0907ed12c916e96,6682b41eeb79ab8215dff63d,6682b8fb270aa9af2fb25979,20,female,english,2024-07-01_15h12.19.699,ABmemTask3,2023.2.3,Win32,59.88023952,,,,,,,,,,,,,,,,,,,,,,,,,,,,,,,491.255,492.2452,492.2452,7,492.7447,493.9108,0.0009,494.0269,0.1162,0.1164,0.1165,0.1167,0.1166,0.1164,0.1169,0.1164,0.1167,0.1166,,494.027,494.7764,left,0.7167,,494.7764,494.9928,right,0.1835,,68,0,112,494.9929,495.992,,,,,,1_AB,L1_T1P_T2P,1,1,1,7,8,6,3,11,sock,Did you see the sock,0.12,0,resources/,pics/hen.jpg,pics/christmaslights.jpg,pics/salmon.jpg,pics/sealion.jpg,pics/seaturtle.jpg,pics/giraffe.jpg,pics/athleticsock.jpg,pics/stapler01.jpg,pics/shovel01.jpg,pics/leaf02a.jpg,pics/backpack01a.jpg,blankImage,blankImage,blankImage,blankImage,blankImage,blankImage,athleticsock,11,,,,,,,,,,,,,,,,,,,,,,,,,,,,,,,,,,,,,,,,,0,55,55,10,1,,,,,,,,,,,,,,,,,,,,,,,,,,,,,,,,,,,,,,,,,,,,,,,,,,,,,,,
,,,,,62a347b1c0907ed12c916e96,6682b41eeb79ab8215dff63d,6682b8fb270aa9af2fb25979,20,female,english,2024-07-01_15h12.19.699,ABmemTask3,2023.2.3,Win32,59.88023952,,,,,,,,,,,,,,,,,,,,,,,,,,,,,,,495.9927,496.9969,496.9969,7,497.4905,498.5399,0.0009,498.656,0.1161,0.1167,0.1166,0.1165,0.1166,0.1166,0.1165,0.1165,0.1167,,,498.6562,499.7385,right,1.0493,,499.7386,499.9781,right,0.2169,,70,0,114,499.9781,500.9708,,,,,,1_AB,L1_T1P_T2P,1,1,1,5,6,4,4,10,thermometer,Did you see the thermometer,0.12,0,resources/,pics/triangle.jpg,pics/shovel01.jpg,pics/mummy.jpg,pics/noparkingsign.jpg,pics/thermometer02b.jpg,pics/stapler04.jpg,pics/piggybank.jpg,pics/golfball.jpg,pics/laptop01a.jpg,pics/aquarium.jpg,blankImage,blankImage,blankImage,blankImage,blankImage,blankImage,blankImage,thermometer02b,8,,,,,,,,,,,,,,,,,,,,,,,,,,,,,,,,,,,,,,,,,0,56,56,7,1,,,,,,,,,,,,,,,,,,,,,,,,,,,,,,,,,,,,,,,,,,,,,,,,,,,,,,,
,,,,,62a347b1c0907ed12c916e96,6682b41eeb79ab8215dff63d,6682b8fb270aa9af2fb25979,20,female,english,2024-07-01_15h12.19.699,ABmemTask3,2023.2.3,Win32,59.88023952,,,,,,,,,,,,,,,,,,,,,,,,,,,,,,,500.9813,501.97,501.97,7,502.4695,503.4023,0.0008,503.5185,0.1162,0.1165,0.1166,0.1165,0.1167,0.1167,0.1166,0.1163,,,,503.5187,504.1347,right,0.5842,,504.1348,504.3513,left,0.1939,,72,0,116,504.3513,505.3503,,,,,,1_AB,L1_T1P_T2A,1,1,0,4,5,3,4,9,blueberry,Did you see the blueberry,0.12,0,resources/,pics/sealion.jpg,pics/piggybank.jpg,pics/sink.jpg,pics/blueberry01.jpg,pics/onion.jpg,pics/sailboat.jpg,pics/seaturtle.jpg,pics/hen.jpg,pics/fanblades.jpg,blankImage,blankImage,blankImage,blankImage,blankImage,blankImage,blankImage,blankImage,blueberry01,35,,,,,,,,,,,,,,,,,,,,,,,,,,,,,,,,,,,,,,,,,0,57,57,34,1,,,,,,,,,,,,,,,,,,,,,,,,,,,,,,,,,,,,,,,,,,,,,,,,,,,,,,,
,,,,,62a347b1c0907ed12c916e96,6682b41eeb79ab8215dff63d,6682b8fb270aa9af2fb25979,20,female,english,2024-07-01_15h12.19.699,ABmemTask3,2023.2.3,Win32,59.88023952,,,,,,,,,,,,,,,,,,,,,,,,,,,,,,,505.351,506.3495,506.3497,7,506.8489,507.6651,0.0017,507.7813,0.1155,0.1167,0.1168,0.116,0.1166,0.1165,0.1166,,,,,507.7814,508.1312,right,0.3198,,508.1312,508.381,right,0.2204,,74,0,118,508.3811,509.38,,,,,,1_AB,L1_T1P_T2P,1,1,1,4,5,3,3,8,Recycling bin,Did you see the Recycling bin,0.12,0,resources/,pics/microscope.jpg,pics/dustpan.jpg,pics/seagull.jpg,pics/recyclingbin.jpg,pics/stapler06.jpg,pics/bowtie.jpg,pics/dromedary.jpg,pics/salmon.jpg,blankImage,blankImage,blankImage,blankImage,blankImage,blankImage,blankImage,blankImage,blankImage,recyclingbin,16,,,,,,,,,,,,,,,,,,,,,,,,,,,,,,,,,,,,,,,,,0,58,58,15,1,,,,,,,,,,,,,,,,,,,,,,,,,,,,,,,,,,,,,,,,,,,,,,,,,,,,,,,
,,,,,62a347b1c0907ed12c916e96,6682b41eeb79ab8215dff63d,6682b8fb270aa9af2fb25979,20,female,english,2024-07-01_15h12.19.699,ABmemTask3,2023.2.3,Win32,59.88023952,,,,,,,,,,,,,,,,,,,,,,,,,,,,,,,509.3806,510.379,510.3792,7,510.8786,512.2778,0.0009,512.394,0.1162,0.1164,0.1168,0.1165,0.1166,0.1165,0.1166,0.1165,0.1167,0.1164,0.1166,512.394,512.6939,right,0.2722,,512.694,512.9269,right,0.2061,,76,0,120,512.927,513.9259,,,,,,1_AB,L5_T1P_T2P,5,1,1,4,9,3,4,13,Forklift,Did you see the Forklift,0.12,0,resources/,pics/dustpan.jpg,pics/table01.jpg,pics/sink.jpg,pics/forklift.jpg,pics/dromedary.jpg,pics/proboscismonkey.jpg,pics/cymbal.jpg,pics/shovel01.jpg,pics/stapler10.jpg,pics/backpack01a.jpg,pics/binder03b.jpg,pics/banjo.jpg,pics/candleholder01.jpg,blankImage,blankImage,blankImage,blankImage,forklift,47,0.1168,,,,,,,,,,,,,,,,,,,,,,,,,,,,,,,,,,,,,,,,0,59,59,46,1,,,,,,,,,,,,,,,,,,,,,,,,,,,,,,,,,,,,,,,,,,,,,,,,,,,,,,,
,,,,,62a347b1c0907ed12c916e96,6682b41eeb79ab8215dff63d,6682b8fb270aa9af2fb25979,20,female,english,2024-07-01_15h12.19.699,ABmemTask3,2023.2.3,Win32,59.88023952,,,,,,,,,,,,,,,,,,,,,,,,,,,,,,,513.9265,514.9251,514.9251,7,515.4246,516.4742,0.0009,516.5903,0.116,0.1167,0.1167,0.1165,0.1165,0.1165,0.1169,0.1163,0.1168,,,516.5904,516.9234,right,0.3094,,516.9235,517.1732,right,0.2211,,78,0,122,517.1732,518.1722,,,,,,1_AB,L1_T1P_T2P,1,1,1,4,5,3,5,10,chair,Did you see the chair,0.12,0,resources/,pics/zebra.jpg,pics/floortile02.jpg,pics/cork02.jpg,pics/chair.jpg,pics/stapler07.jpg,pics/sealion.jpg,pics/shovel01.jpg,pics/piggybank.jpg,pics/candleholder01.jpg,pics/laptop01a.jpg,blankImage,blankImage,blankImage,blankImage,blankImage,blankImage,blankImage,chair,3,,,,,,,,,,,,,,,,,,,,,,,,,,,,,,,,,,,,,,,,,0,60,60,2,1,,,,,,,,,,,,,,,,,,,,,,,,,,,,,,,,,,,,,,,,,,,,,,,,,,,,,,,
,,,,,62a347b1c0907ed12c916e96,6682b41eeb79ab8215dff63d,6682b8fb270aa9af2fb25979,20,female,english,2024-07-01_15h12.19.699,ABmemTask3,2023.2.3,Win32,59.88023952,,,,,,,,,,,,,,,,,,,,,,,,,,,,,,,518.1727,519.1713,519.1713,7,519.6709,520.7202,0.0013,520.8365,0.1156,0.1167,0.1167,0.1166,0.1168,0.1163,0.1165,0.1167,0.1163,,,520.8366,521.2362,right,0.3706,,521.2363,521.5028,right,0.2338,,80,0,124,521.5028,522.5018,,,,,,1_AB,L1_T1P_T2P,1,1,1,4,5,3,5,10,flute,Did you see the flute,0.12,0,resources/,pics/peach01.jpg,pics/seaturtle.jpg,pics/dromedary.jpg,pics/recorder01.jpg,pics/stapler08.jpg,pics/giraffe.jpg,pics/blender.jpg,pics/necklace.jpg,pics/sink.jpg,pics/dustpan.jpg,blankImage,blankImage,blankImage,blankImage,blankImage,blankImage,blankImage,recorder01,7,,,,,,,,,,,,,,,,,,,,,,,,,,,,,,,,,,,,,,,,,0,61,61,6,1,,,,,,,,,,,,,,,,,,,,,,,,,,,,,,,,,,,,,,,,,,,,,,,,,,,,,,,
,,,,,62a347b1c0907ed12c916e96,6682b41eeb79ab8215dff63d,6682b8fb270aa9af2fb25979,20,female,english,2024-07-01_15h12.19.699,ABmemTask3,2023.2.3,Win32,59.88023952,,,,,,,,,,,,,,,,,,,,,,,,,,,,,,,,,,,,,,,,,,,,,,,,,,,,,,,,,,,,,,,,,,,,,,,,,,,,,,,,,,,,,,,,,,,,,,,,,,,,,,,,,,,522.503,526.1992,space,3.6648,,,,,,,,,,,,,,,,,,,,,,,,,,,,,,,,,,,,,,,,,,,,,,,,,,,,,,,,,,,,,,,,,,,,,,,,,,,,,,,,,,,,,,,,,,,,,
,,,,,62a347b1c0907ed12c916e96,6682b41eeb79ab8215dff63d,6682b8fb270aa9af2fb25979,20,female,english,2024-07-01_15h12.19.699,ABmemTask3,2023.2.3,Win32,59.88023952,,,space,6.7251,,,,,,,,,,,,,,,,,,,,,,,,,,,,,,,,,,,,,,,,,,,,,,,,,,,,,,,,,,,,,,,,,,,,,,,,,,,,,,,,,,,,,,,,,,,,,,,,,,,,,,,,,,,,,,,,,,,,,,,,,,,,,,,,,,,,,,,,,,,,,,,,,,,526.1993,532.9601,,,,,,,,,,,,,,,,,,,,,,,,,,,,,,,,,,,,,,,,,,,,,,,,,,,
,,,,,62a347b1c0907ed12c916e96,6682b41eeb79ab8215dff63d,6682b8fb270aa9af2fb25979,20,female,english,2024-07-01_15h12.19.699,ABmemTask3,2023.2.3,Win32,59.88023952,,,,,,,,,,,,,,,,,,,,,,,,,,,,,,,,,,,,,,,,,,,,,,,,,,,,,,,,,,,,,,,,,,,,,,,,,,,,,,,,,,,,,,,,,,,,,,,,,,,,,,,,,,,,,,,,,,,,,,,,,,,,,,,,,,,,,,,,,,,,,,,,,,,,,,,,,532.9603,540.2533,space,7.259,,,,,,,,,,,,,,,,,,,,,,,,,,,,,,,,,,,,,,,,,,,,,,,
,,,,,62a347b1c0907ed12c916e96,6682b41eeb79ab8215dff63d,6682b8fb270aa9af2fb25979,20,female,english,2024-07-01_15h12.19.699,ABmemTask3,2023.2.3,Win32,59.88023952,,,,,,,,,,,,,,,,,,,,,,,,,,,,,,,540.2627,541.2518,541.2519,7,541.7513,543.1505,0.0014,543.2667,0.1161,0.1163,0.1165,0.1167,0.1162,0.1167,0.1164,0.1168,0.1167,0.1162,0.1167,543.2669,543.783,right,0.4987,,,,,,,1,80,2,543.7831,544.7821,,,,,,2_AB,L1_T1P_T2A,1,1,0,7,8,6,5,13,rice,Did you see the rice,0.12,0,resources/,pics/necklace.jpg,pics/floortile02.jpg,pics/cork02.jpg,pics/seagull.jpg,pics/hen.jpg,pics/snowshoe.jpg,pics/rice.jpg,pics/ball02.jpg,pics/peanut01.jpg,pics/boot02b.jpg,pics/spiderweb.jpg,pics/nutcracker01.jpg,pics/bowlingpin.jpg,blankImage,blankImage,blankImage,blankImage,rice,39,0.1167,,,,,,,,,,,,,,,,,,,,,,,,,,,,,,,,,,,,,,,,,,,,,,,,,,,,,,0,0,0,38,1,,,,,,,,,,,,,,,,,,,,,,,,,,,,,,,,,,,,,,,,,
,,,,,62a347b1c0907ed12c916e96,6682b41eeb79ab8215dff63d,6682b8fb270aa9af2fb25979,20,female,english,2024-07-01_15h12.19.699,ABmemTask3,2023.2.3,Win32,59.88023952,,,,,,,,,,,,,,,,,,,,,,,,,,,,,,,544.7826,545.7811,545.7812,7,546.2806,547.7963,0.0011,547.9126,0.1162,0.1167,0.1164,0.1168,0.1163,0.1169,0.1162,0.1165,0.1165,0.1169,0.1163,547.9127,548.2957,right,0.3672,,,,,,,2,80,4,548.2958,549.2949,,,,,,2_AB,L5_T1P_T2P,5,1,1,5,10,4,4,14,rock,Did you see the rock,0.12,0,resources/,pics/carrot01.jpg,pics/aquarium.jpg,pics/bowlingpin.jpg,pics/spiderweb.jpg,pics/rock01a.jpg,pics/giraffe.jpg,pics/footballhelmet.jpg,pics/pencilsharpener02a.jpg,pics/sealion.jpg,pics/stapler03.jpg,pics/dustpan.jpg,pics/boot02b.jpg,pics/binoculars01b.jpg,pics/seaturtle.jpg,blankImage,blankImage,blankImage,rock01a,48,0.117,0.1161,,,,,,,,,,,,,,,,,,,,,,,,,,,,,,,,,,,,,,,,,,,,,,,,,,,,,0,1,1,47,1,,,,,,,,,,,,,,,,,,,,,,,,,,,,,,,,,,,,,,,,,
,,,,,62a347b1c0907ed12c916e96,6682b41eeb79ab8215dff63d,6682b8fb270aa9af2fb25979,20,female,english,2024-07-01_15h12.19.699,ABmemTask3,2023.2.3,Win32,59.88023952,,,,,,,,,,,,,,,,,,,,,,,,,,,,,,,549.2954,550.2938,550.2938,7,550.7934,551.9593,0.001,552.0756,0.116,0.1169,0.1165,0.1164,0.1169,0.1162,0.1166,0.1163,0.1167,0.1166,,552.0757,552.6254,left,0.5313,,,,,,,3,80,6,552.6256,553.6242,,,,,,2_AB,L1_T1A_T2P,1,0,1,6,7,5,4,11,Eye,Did you see the Eye,0.12,0,resources/,pics/spoon01.jpg,pics/ball02.jpg,pics/sandbarshark.jpg,pics/pencil01.jpg,pics/icecube01.jpg,pics/floortile02.jpg,pics/stapler03.jpg,pics/binder03b.jpg,pics/hairdryer02a.jpg,pics/laptop01a.jpg,pics/sewingmachine01a.jpg,blankImage,blankImage,blankImage,blankImage,blankImage,blankImage,eye,24,,,,,,,,,,,,,,,,,,,,,,,,,,,,,,,,,,,,,,,,,,,,,,,,,,,,,,,0,2,2,23,1,,,,,,,,,,,,,,,,,,,,,,,,,,,,,,,,,,,,,,,,,
,,,,,62a347b1c0907ed12c916e96,6682b41eeb79ab8215dff63d,6682b8fb270aa9af2fb25979,20,female,english,2024-07-01_15h12.19.699,ABmemTask3,2023.2.3,Win32,59.88023952,,,,,,,,,,,,,,,,,,,,,,,,,,,,,,,553.6246,554.6233,554.6233,7,555.1229,556.2886,0.001,556.405,0.116,0.1169,0.1161,0.1169,0.1161,0.1166,0.1169,0.1163,0.1165,0.1165,,556.4051,556.8879,left,0.4645,,,,,,,4,80,8,556.8879,557.8869,,,,,,2_AB,L1_T1A_T2P,1,0,1,6,7,5,4,11,bench,Did you see the bench,0.12,0,resources/,pics/butterfly.jpg,pics/peach01.jpg,pics/blender.jpg,pics/binoculars01b.jpg,pics/starfish01.jpg,pics/ball02.jpg,pics/stapler06.jpg,pics/cork02.jpg,pics/mummy.jpg,pics/calendar.jpg,pics/necklace.jpg,blankImage,blankImage,blankImage,blankImage,blankImage,blankImage,bench01,28,,,,,,,,,,,,,,,,,,,,,,,,,,,,,,,,,,,,,,,,,,,,,,,,,,,,,,,0,3,3,27,1,,,,,,,,,,,,,,,,,,,,,,,,,,,,,,,,,,,,,,,,,
,,,,,62a347b1c0907ed12c916e96,6682b41eeb79ab8215dff63d,6682b8fb270aa9af2fb25979,20,female,english,2024-07-01_15h12.19.699,ABmemTask3,2023.2.3,Win32,59.88023952,,,,,,,,,,,,,,,,,,,,,,,,,,,,,,,557.8873,558.8861,558.8861,7,559.3857,560.5516,0.0006,560.6677,0.1165,0.1164,0.117,0.1161,0.1169,0.1166,0.1166,0.1162,0.1165,0.1168,,560.6678,561.1841,left,0.5047,,,,,,,5,80,10,561.1841,562.1832,,,,,,2_AB,L1_T1A_T2P,1,0,1,5,6,4,5,11,bed,Did you see the bed,0.12,0,resources/,pics/ashtray01.jpg,pics/bowtie.jpg,pics/siamesecat.jpg,pics/microscope.jpg,pics/shovel01.jpg,pics/stapler04.jpg,pics/lightswitch01.jpg,pics/carrot01.jpg,pics/boot02b.jpg,pics/pencilsharpener02a.jpg,pics/nutcracker01.jpg,blankImage,blankImage,blankImage,blankImage,blankImage,blankImage,bed,29,,,,,,,,,,,,,,,,,,,,,,,,,,,,,,,,,,,,,,,,,,,,,,,,,,,,,,,0,4,4,28,1,,,,,,,,,,,,,,,,,,,,,,,,,,,,,,,,,,,,,,,,,
,,,,,62a347b1c0907ed12c916e96,6682b41eeb79ab8215dff63d,6682b8fb270aa9af2fb25979,20,female,english,2024-07-01_15h12.19.699,ABmemTask3,2023.2.3,Win32,59.88023952,,,,,,,,,,,,,,,,,,,,,,,,,,,,,,,562.1836,563.1823,563.1824,7,563.6819,565.3139,0.0008,565.4302,0.1165,0.1162,0.1165,0.1166,0.1166,0.1165,0.1166,0.1164,0.1168,0.1166,0.1164,565.4303,565.8966,left,0.4527,,,,,,,6,80,12,565.8967,566.8958,,,,,,2_AB,L5_T1A_T2P,5,0,1,5,10,4,5,15,wedding cake,Did you see the wedding cake,0.12,0,resources/,pics/microscope.jpg,pics/golfball.jpg,pics/kangaroo.jpg,pics/backpack01a.jpg,pics/sewingmachine01a.jpg,pics/christmaslights.jpg,pics/lightswitch01.jpg,pics/carrot01.jpg,pics/dromedary.jpg,pics/stapler09.jpg,pics/candle01.jpg,pics/hammerheadshark.jpg,pics/footballhelmet.jpg,pics/banjo.jpg,pics/binoculars01b.jpg,blankImage,blankImage,weddingcake,57,0.1171,0.1164,0.1161,,,,,,,,,,,,,,,,,,,,,,,,,,,,,,,,,,,,,,,,,,,,,,,,,,,,0,5,5,56,1,,,,,,,,,,,,,,,,,,,,,,,,,,,,,,,,,,,,,,,,,
,,,,,62a347b1c0907ed12c916e96,6682b41eeb79ab8215dff63d,6682b8fb270aa9af2fb25979,20,female,english,2024-07-01_15h12.19.699,ABmemTask3,2023.2.3,Win32,59.88023952,,,,,,,,,,,,,,,,,,,,,,,,,,,,,,,566.8964,567.8951,567.8952,7,568.3943,569.7934,0.0012,569.9096,0.116,0.1165,0.1165,0.1166,0.1164,0.1167,0.1168,0.1166,0.1162,0.1165,0.1172,569.9097,570.5925,left,0.6675,,,,,,,7,80,14,570.5925,571.5916,,,,,,2_AB,L5_T1A_T2P,5,0,1,5,10,4,3,13,suitcase,Did you see the suitcase,0.12,0,resources/,pics/christmaslights.jpg,pics/sandbarshark.jpg,pics/sink.jpg,pics/candle01.jpg,pics/seaturtle.jpg,pics/banjo.jpg,pics/dustpan.jpg,pics/binder03b.jpg,pics/backpack01a.jpg,pics/stapler03a.jpg,pics/birdhouse.jpg,pics/dromedary.jpg,pics/sewingmachine01a.jpg,blankImage,blankImage,blankImage,blankImage,suitcase,54,0.1161,,,,,,,,,,,,,,,,,,,,,,,,,,,,,,,,,,,,,,,,,,,,,,,,,,,,,,0,6,6,53,1,,,,,,,,,,,,,,,,,,,,,,,,,,,,,,,,,,,,,,,,,
,,,,,62a347b1c0907ed12c916e96,6682b41eeb79ab8215dff63d,6682b8fb270aa9af2fb25979,20,female,english,2024-07-01_15h12.19.699,ABmemTask3,2023.2.3,Win32,59.88023952,,,,,,,,,,,,,,,,,,,,,,,,,,,,,,,571.592,572.5907,572.5907,7,573.0901,574.2562,0.0008,574.3723,0.1167,0.1162,0.1164,0.1169,0.1162,0.1167,0.1165,0.1166,0.1165,0.1168,,574.3724,574.8386,left,0.4583,,,,,,,8,80,16,574.8387,575.8377,,,,,,2_AB,L1_T1A_T2A,1,0,0,7,8,6,3,11,Eye patch,Did you see the Eye patch,0.12,0,resources/,pics/safetypin.jpg,pics/ashtray01.jpg,pics/onion.jpg,pics/shovel01.jpg,pics/necklace.jpg,pics/snowshoe.jpg,pics/chainsaw.jpg,pics/bowlingpin.jpg,pics/christmaslights.jpg,pics/mummy.jpg,pics/cork02.jpg,blankImage,blankImage,blankImage,blankImage,blankImage,blankImage,eyepatch,42,,,,,,,,,,,,,,,,,,,,,,,,,,,,,,,,,,,,,,,,,,,,,,,,,,,,,,,0,7,7,41,1,,,,,,,,,,,,,,,,,,,,,,,,,,,,,,,,,,,,,,,,,
,,,,,62a347b1c0907ed12c916e96,6682b41eeb79ab8215dff63d,6682b8fb270aa9af2fb25979,20,female,english,2024-07-01_15h12.19.699,ABmemTask3,2023.2.3,Win32,59.88023952,,,,,,,,,,,,,,,,,,,,,,,,,,,,,,,575.8382,576.8368,576.8368,7,577.3366,578.5023,0.0007,578.6185,0.1161,0.1165,0.1166,0.1165,0.1166,0.1167,0.1166,0.1164,0.1167,0.1166,,578.6187,579.0185,right,0.3849,,,,,,,9,80,18,579.0186,580.0173,,,,,,2_AB,L1_T1P_T2P,1,1,1,5,6,4,5,11,arrow,Did you see the arrow,0.12,0,resources/,pics/binoculars01b.jpg,pics/pencilsharpener02a.jpg,pics/spoon01.jpg,pics/bowtie.jpg,pics/arrow02.jpg,pics/stapler03.jpg,pics/siamesecat.jpg,pics/onion.jpg,pics/sailboat.jpg,pics/seaturtle.jpg,pics/snowshoe.jpg,blankImage,blankImage,blankImage,blankImage,blankImage,blankImage,arrow02,23,,,,,,,,,,,,,,,,,,,,,,,,,,,,,,,,,,,,,,,,,,,,,,,,,,,,,,,0,8,8,22,1,,,,,,,,,,,,,,,,,,,,,,,,,,,,,,,,,,,,,,,,,
,,,,,62a347b1c0907ed12c916e96,6682b41eeb79ab8215dff63d,6682b8fb270aa9af2fb25979,20,female,english,2024-07-01_15h12.19.699,ABmemTask3,2023.2.3,Win32,59.88023952,,,,,,,,,,,,,,,,,,,,,,,,,,,,,,,580.0179,581.0167,581.0167,7,581.5162,582.6818,0.0011,582.7986,0.1159,0.1168,0.1162,0.1165,0.1167,0.1165,0.1166,0.1164,0.1164,0.1166,,582.7987,583.265,right,0.4486,,,,,,,10,80,20,583.2651,584.2635,,,,,,2_AB,L1_T1P_T2P,1,1,1,6,7,5,4,11,goggles,Did you see the goggles,0.12,0,resources/,pics/bowtie.jpg,pics/peach01.jpg,pics/kangaroo.jpg,pics/bowlingpin.jpg,pics/wheel01.jpg,pics/swimgoggles.jpg,pics/stapler03.jpg,pics/cymbal.jpg,pics/cork02.jpg,pics/sealion.jpg,pics/football.jpg,blankImage,blankImage,blankImage,blankImage,blankImage,blankImage,swimgoggles,9,,,,,,,,,,,,,,,,,,,,,,,,,,,,,,,,,,,,,,,,,,,,,,,,,,,,,,,0,9,9,8,1,,,,,,,,,,,,,,,,,,,,,,,,,,,,,,,,,,,,,,,,,
