consent1.started,consent1.stopped,key_resp_8.keys,key_resp_8.rt,key_resp_8.duration,PROLIFIC_PID,STUDY_ID,SESSION_ID,age,sex,native language,date,expName,psychopyVersion,OS,frameRate,consent2.started,consent2.stopped,key_resp_9.keys,key_resp_9.rt,key_resp_9.duration,consent3.started,consent3.stopped,key_resp_10.keys,key_resp_10.rt,key_resp_10.duration,consent4.started,consent4.stopped,key_resp_11.keys,key_resp_11.rt,key_resp_11.duration,consent5.started,consent5.stopped,key_resp_12.keys,key_resp_12.rt,key_resp_12.duration,bonusInstruct.started,bonusInstruct.stopped,key_resp_14.keys,key_resp_14.rt,key_resp_14.duration,practiceInstruct.started,practiceInstruct.stopped,key_resp.keys,key_resp.rt,key_resp.duration,cueWord_2.started,cueWord_2.stopped,fix.started,frameTarget,fix.stopped,trial.started,img1Add,trial.stopped,img2Add,img3Add,img4Add,img5Add,img6Add,img7Add,img8Add,img9Add,img10Add,img11Add,img12Add,prompt1.started,prompt1.stopped,key_resp_2.keys,key_resp_2.rt,key_resp_2.duration,prompt2.started,prompt2.stopped,key_resp_3.keys,key_resp_3.rt,key_resp_3.duration,runningAcc_AB,runningTotal,runningCount_AB,feedback.started,feedback.stopped,trials.thisRepN,trials.thisTrialN,trials.thisN,trials.thisIndex,trials.ran,TrialType,CondType,Lag,T1_PA,T2_PA,T1Loc,T2Loc,PreDistractor,PostDistractor,TotalImg,cueWord,T1cue,StimLength,isi,PicFolder,Img1,Img2,Img3,Img4,Img5,Img6,Img7,Img8,Img9,Img10,Img11,Img12,Img13,Img14,Img15,Img16,Img17,T1_Identity,trialID,img13Add,img14Add,img15Add,ABfeedback.started,ABfeedback.stopped,key_resp_13.keys,key_resp_13.rt,key_resp_13.duration,MemPracticeInstruction.started,MemPracticeInstruction.stopped,key_resp_5.keys,key_resp_5.rt,key_resp_5.duration,memTrial.started,memTrial.stopped,Mem_runningPoints,key_resp_4.keys,key_resp_4.rt,key_resp_4.duration,memTrialFeedback.started,memTrialFeedback.stopped,trials_2.thisRepN,trials_2.thisTrialN,trials_2.thisN,trials_2.thisIndex,trials_2.ran,ABtrialID,priorLag,image,memFeedback.started,memFeedback.frame,memFeedback.ended,memFeedback.stopped,bonus.started,bonus.stopped,memoryBlockABInstruct.started,memoryBlockABInstruct.stopped,key_resp_6.keys,key_resp_6.rt,key_resp_6.duration,AB_block_1.thisRepN,AB_block_1.thisTrialN,AB_block_1.thisN,AB_block_1.thisIndex,AB_block_1.ran,img16Add,img17Add,AB_break1.started,AB_break1.stopped,PerceiveBlockABInstruct.started,PerceiveBlockABInstruct.stopped,key_resp_7.keys,key_resp_7.rt,key_resp_7.duration,AB_block_2.thisRepN,AB_block_2.thisTrialN,AB_block_2.thisN,AB_block_2.thisIndex,AB_block_2.ran,AB_break2.started,AB_break2.stopped,AB_block_3.thisRepN,AB_block_3.thisTrialN,AB_block_3.thisN,AB_block_3.thisIndex,AB_block_3.ran,AB_break3.started,AB_break3.stopped,AB_block_4.thisRepN,AB_block_4.thisTrialN,AB_block_4.thisN,AB_block_4.thisIndex,AB_block_4.ran,AB_break4.started,AB_break4.stopped,AB_block_5.thisRepN,AB_block_5.thisTrialN,AB_block_5.thisN,AB_block_5.thisIndex,AB_block_5.ran,AB_break5.started,AB_break5.stopped,AB_block_6.thisRepN,AB_block_6.thisTrialN,AB_block_6.thisN,AB_block_6.thisIndex,AB_block_6.ran,AB_break6.started,AB_break6.stopped,MemInstructionSURPRISE.started,MemInstructionSURPRISE.stopped,MemInstruction.started,MemInstruction.stopped,memBreak.started,memBreak.stopped,Mem_block_1.thisRepN,Mem_block_1.thisTrialN,Mem_block_1.thisN,Mem_block_1.thisIndex,Mem_block_1.ran
0.001,10.855,space,10.825,,5b0e9af69663ee000145bc26,6682b41eeb79ab8215dff63d,6682ba8580c6972854304609,28,Male,English,2024-07-01_15h18.24.550,ABmemTask3,2023.2.3,Win32,74.96251874,,,,,,,,,,,,,,,,,,,,,,,,,,,,,,,,,,,,,,,,,,,,,,,,,,,,,,,,,,,,,,,,,,,,,,,,,,,,,,,,,,,,,,,,,,,,,,,,,,,,,,,,,,,,,,,,,,,,,,,,,,,,,,,,,,,,,,,,,,,,,,,,,,,,,,,,,,,,,,,,,,,,,,,,,,,,,,,,,,,,,,,,,,,,,,,,,,,,,,,,,,,
,,,,,5b0e9af69663ee000145bc26,6682b41eeb79ab8215dff63d,6682ba8580c6972854304609,28,Male,English,2024-07-01_15h18.24.550,ABmemTask3,2023.2.3,Win32,74.96251874,10.855,110.401,space,99.515,,,,,,,,,,,,,,,,,,,,,,,,,,,,,,,,,,,,,,,,,,,,,,,,,,,,,,,,,,,,,,,,,,,,,,,,,,,,,,,,,,,,,,,,,,,,,,,,,,,,,,,,,,,,,,,,,,,,,,,,,,,,,,,,,,,,,,,,,,,,,,,,,,,,,,,,,,,,,,,,,,,,,,,,,,,,,,,,,,,,,,,,,,,,,,,,,,,,,,,
,,,,,5b0e9af69663ee000145bc26,6682b41eeb79ab8215dff63d,6682ba8580c6972854304609,28,Male,English,2024-07-01_15h18.24.550,ABmemTask3,2023.2.3,Win32,74.96251874,,,,,,110.401,175.213,space,64.79,,,,,,,,,,,,,,,,,,,,,,,,,,,,,,,,,,,,,,,,,,,,,,,,,,,,,,,,,,,,,,,,,,,,,,,,,,,,,,,,,,,,,,,,,,,,,,,,,,,,,,,,,,,,,,,,,,,,,,,,,,,,,,,,,,,,,,,,,,,,,,,,,,,,,,,,,,,,,,,,,,,,,,,,,,,,,,,,,,,,,,,,,,,,,,,,,,
,,,,,5b0e9af69663ee000145bc26,6682b41eeb79ab8215dff63d,6682ba8580c6972854304609,28,Male,English,2024-07-01_15h18.24.550,ABmemTask3,2023.2.3,Win32,74.96251874,,,,,,,,,,,175.213,212.6,space,37.362,,,,,,,,,,,,,,,,,,,,,,,,,,,,,,,,,,,,,,,,,,,,,,,,,,,,,,,,,,,,,,,,,,,,,,,,,,,,,,,,,,,,,,,,,,,,,,,,,,,,,,,,,,,,,,,,,,,,,,,,,,,,,,,,,,,,,,,,,,,,,,,,,,,,,,,,,,,,,,,,,,,,,,,,,,,,,,,,,,,,,,,,,,,,,
,,,,,5b0e9af69663ee000145bc26,6682b41eeb79ab8215dff63d,6682ba8580c6972854304609,28,Male,English,2024-07-01_15h18.24.550,ABmemTask3,2023.2.3,Win32,74.96251874,,,,,,,,,,,,,,,,212.601,259.832,space,47.215,,,,,,,,,,,,,,,,,,,,,,,,,,,,,,,,,,,,,,,,,,,,,,,,,,,,,,,,,,,,,,,,,,,,,,,,,,,,,,,,,,,,,,,,,,,,,,,,,,,,,,,,,,,,,,,,,,,,,,,,,,,,,,,,,,,,,,,,,,,,,,,,,,,,,,,,,,,,,,,,,,,,,,,,,,,,,,,,,,,,,,,,
,,,,,5b0e9af69663ee000145bc26,6682b41eeb79ab8215dff63d,6682ba8580c6972854304609,28,Male,English,2024-07-01_15h18.24.550,ABmemTask3,2023.2.3,Win32,74.96251874,,,,,,,,,,,,,,,,,,,,,259.832,280.812,space,20.949,,,,,,,,,,,,,,,,,,,,,,,,,,,,,,,,,,,,,,,,,,,,,,,,,,,,,,,,,,,,,,,,,,,,,,,,,,,,,,,,,,,,,,,,,,,,,,,,,,,,,,,,,,,,,,,,,,,,,,,,,,,,,,,,,,,,,,,,,,,,,,,,,,,,,,,,,,,,,,,,,,,,,,,,,,,,,,,,,,,
,,,,,5b0e9af69663ee000145bc26,6682b41eeb79ab8215dff63d,6682ba8580c6972854304609,28,Male,English,2024-07-01_15h18.24.550,ABmemTask3,2023.2.3,Win32,74.96251874,,,,,,,,,,,,,,,,,,,,,,,,,,280.812,312.052,space,31.218,,,,,,,,,,,,,,,,,,,,,,,,,,,,,,,,,,,,,,,,,,,,,,,,,,,,,,,,,,,,,,,,,,,,,,,,,,,,,,,,,,,,,,,,,,,,,,,,,,,,,,,,,,,,,,,,,,,,,,,,,,,,,,,,,,,,,,,,,,,,,,,,,,,,,,,,,,,,,,,,,,,,,,,,,,,,,,
,,,,,5b0e9af69663ee000145bc26,6682b41eeb79ab8215dff63d,6682ba8580c6972854304609,28,Male,English,2024-07-01_15h18.24.550,ABmemTask3,2023.2.3,Win32,74.96251874,,,,,,,,,,,,,,,,,,,,,,,,,,,,,,,312.057,313.052,313.052,19,313.545,316.333,0.003,316.586,0.252,0.252,0.254,0.253,0.254,0.255,0.253,0.252,0.254,0.253,0.254,316.586,323.456,right,6.851,,323.456,325.349,left,1.88,,2,0,2,325.35,326.35,0,0,0,0,1,prac_AB,L1_T1P_T2A,1,1,0,6,7,5,5,12,cat,Did you see the cat,0.25,0,resources/,pics/shipinabottle.jpg,pics/table01.jpg,pics/dustpan.jpg,pics/golfball.jpg,pics/giraffe.jpg,pics/cat.jpg,pics/peanut01.jpg,pics/pictureframe04.jpg,pics/fanblades.jpg,pics/laptop01a.jpg,pics/ball02.jpg,pics/blender.jpg,blankImage,blankImage,blankImage,blankImage,blankImage,cat,8,,,,,,,,,,,,,,,,,,,,,,,,,,,,,,,,,,,,,,,,,,,,,,,,,,,,,,,,,,,,,,,,,,,,,,,,,,,,,,,,,,,,,,,,,,,,,,,,,,,,
,,,,,5b0e9af69663ee000145bc26,6682b41eeb79ab8215dff63d,6682ba8580c6972854304609,28,Male,English,2024-07-01_15h18.24.550,ABmemTask3,2023.2.3,Win32,74.96251874,,,,,,,,,,,,,,,,,,,,,,,,,,,,,,,326.352,327.35,327.35,18,327.843,330.005,0.003,330.245,0.239,0.239,0.241,0.24,0.241,0.239,0.24,0.24,0.24,,,330.245,331.471,right,1.219,,331.471,332.698,right,1.22,,4,0,4,332.698,333.699,0,1,1,1,1,prac_AB,L1_T1P_T2P,1,1,1,5,6,4,4,10,tree,Did you see the tree,0.24,0,resources/,pics/carrot01.jpg,pics/hammerheadshark.jpg,pics/kangaroo.jpg,pics/proboscismonkey.jpg,pics/tree.jpg,pics/stapler07.jpg,pics/siamesecat.jpg,pics/ball02.jpg,pics/pictureframe04.jpg,pics/mummy.jpg,blankImage,blankImage,blankImage,blankImage,blankImage,blankImage,blankImage,tree,1,,,,,,,,,,,,,,,,,,,,,,,,,,,,,,,,,,,,,,,,,,,,,,,,,,,,,,,,,,,,,,,,,,,,,,,,,,,,,,,,,,,,,,,,,,,,,,,,,,,,
,,,,,5b0e9af69663ee000145bc26,6682b41eeb79ab8215dff63d,6682ba8580c6972854304609,28,Male,English,2024-07-01_15h18.24.550,ABmemTask3,2023.2.3,Win32,74.96251874,,,,,,,,,,,,,,,,,,,,,,,,,,,,,,,333.7,334.699,334.699,17,335.193,337.688,0.002,337.914,0.226,0.226,0.227,0.227,0.227,0.227,0.227,0.226,0.227,0.226,0.227,337.915,339.435,left,1.51,,339.435,340.756,left,1.305,,4,0,6,340.756,341.756,0,2,2,2,1,prac_AB,L1_T1A_T2P,1,0,1,7,8,6,4,12,grapes,Did you see the grapes,0.23,0,resources/,pics/sailboat.jpg,pics/butterfly.jpg,pics/giraffe.jpg,pics/spoon01.jpg,pics/hose.jpg,pics/nutcracker01.jpg,pics/table01.jpg,pics/stapler13.jpg,pics/pencil01.jpg,pics/football.jpg,pics/triangle.jpg,pics/hairdryer02a.jpg,blankImage,blankImage,blankImage,blankImage,blankImage,grape01,6,,,,,,,,,,,,,,,,,,,,,,,,,,,,,,,,,,,,,,,,,,,,,,,,,,,,,,,,,,,,,,,,,,,,,,,,,,,,,,,,,,,,,,,,,,,,,,,,,,,,
,,,,,5b0e9af69663ee000145bc26,6682b41eeb79ab8215dff63d,6682ba8580c6972854304609,28,Male,English,2024-07-01_15h18.24.550,ABmemTask3,2023.2.3,Win32,74.96251874,,,,,,,,,,,,,,,,,,,,,,,,,,,,,,,341.757,342.756,342.756,16,343.25,346.238,0.002,346.451,0.211,0.214,0.214,0.213,0.214,0.213,0.214,0.213,0.213,0.213,0.214,346.451,347.504,right,1.045,,347.505,348.451,right,0.931,,6,0,8,348.451,349.453,0,3,3,3,1,prac_AB,L5_T1P_T2P,5,1,1,7,12,6,3,15,Human skull,Did you see the Human skull,0.22,0,resources/,pics/peach01.jpg,pics/proboscismonkey.jpg,pics/hose.jpg,pics/laptop01a.jpg,pics/hammerheadshark.jpg,pics/nutcracker01.jpg,pics/humanskull.jpg,pics/table01.jpg,pics/icecube01.jpg,pics/boot02b.jpg,pics/calendar.jpg,pics/stapler03a.jpg,pics/ashtray01.jpg,pics/giraffe.jpg,pics/dromedary.jpg,blankImage,blankImage,humanskull,12,0.213,0.214,0.214,,,,,,,,,,,,,,,,,,,,,,,,,,,,,,,,,,,,,,,,,,,,,,,,,,,,,,,,,,,,,,,,,,,,,,,,,,,,,,,,,,,,,,,,,,,,,,,,,
,,,,,5b0e9af69663ee000145bc26,6682b41eeb79ab8215dff63d,6682ba8580c6972854304609,28,Male,English,2024-07-01_15h18.24.550,ABmemTask3,2023.2.3,Win32,74.96251874,,,,,,,,,,,,,,,,,,,,,,,,,,,,,,,349.455,350.452,350.452,16,350.946,353.08,0.003,353.293,0.212,0.212,0.214,0.214,0.213,0.213,0.214,0.213,0.213,0.213,,353.293,354.721,left,1.418,,354.721,356.348,right,1.618,,8,0,10,356.348,357.348,0,4,4,4,1,prac_AB,L1_T1A_T2P,1,0,1,7,8,6,3,11,dog,Did you see the dog,0.21,0,resources/,pics/ball02.jpg,pics/binder03b.jpg,pics/dromedary.jpg,pics/shipinabottle.jpg,pics/proboscismonkey.jpg,pics/laptop01a.jpg,pics/chainsaw.jpg,pics/stapler13.jpg,pics/nutcracker01.jpg,pics/carrot01.jpg,pics/calendar.jpg,blankImage,blankImage,blankImage,blankImage,blankImage,blankImage,saintbernard,7,,,,,,,,,,,,,,,,,,,,,,,,,,,,,,,,,,,,,,,,,,,,,,,,,,,,,,,,,,,,,,,,,,,,,,,,,,,,,,,,,,,,,,,,,,,,,,,,,,,,
,,,,,5b0e9af69663ee000145bc26,6682b41eeb79ab8215dff63d,6682ba8580c6972854304609,28,Male,English,2024-07-01_15h18.24.550,ABmemTask3,2023.2.3,Win32,74.96251874,,,,,,,,,,,,,,,,,,,,,,,,,,,,,,,357.35,358.349,358.349,15,358.842,361.644,0.002,361.843,0.199,0.2,0.2,0.2,0.2,0.2,0.2,0.2,0.201,0.199,0.199,361.843,362.617,right,0.758,,362.617,363.697,right,1.068,,10,0,12,363.697,364.701,0,5,5,5,1,prac_AB,L5_T1P_T2P,5,1,1,5,10,4,5,15,grater,Did you see the grater,0.2,0,resources/,pics/pencil01.jpg,pics/laptop01a.jpg,pics/hammerheadshark.jpg,pics/cork02.jpg,pics/grater01a.jpg,pics/shipinabottle.jpg,pics/binder03b.jpg,pics/dromedary.jpg,pics/pictureframe04.jpg,pics/stapler04b.jpg,pics/fanblades.jpg,pics/aquarium.jpg,pics/hairdryer02a.jpg,pics/lightswitch01.jpg,pics/piggybank.jpg,blankImage,blankImage,grater01a,11,0.201,0.2,0.2,,,,,,,,,,,,,,,,,,,,,,,,,,,,,,,,,,,,,,,,,,,,,,,,,,,,,,,,,,,,,,,,,,,,,,,,,,,,,,,,,,,,,,,,,,,,,,,,,
,,,,,5b0e9af69663ee000145bc26,6682b41eeb79ab8215dff63d,6682ba8580c6972854304609,28,Male,English,2024-07-01_15h18.24.550,ABmemTask3,2023.2.3,Win32,74.96251874,,,,,,,,,,,,,,,,,,,,,,,,,,,,,,,364.702,365.698,365.698,14,366.192,367.686,0.002,367.872,0.185,0.187,0.187,0.186,0.187,0.187,0.186,0.187,,,,367.872,369.353,left,1.466,,369.353,370.887,left,1.522,,10,0,14,370.887,371.887,0,6,6,6,1,prac_AB,L1_T1P_T2A,1,1,0,4,5,3,4,9,chalk,Did you see the chalk,0.19,0,resources/,pics/necklace.jpg,pics/starfish01.jpg,pics/safetypin.jpg,pics/chalk.jpg,pics/candleholder01.jpg,pics/bowtie.jpg,pics/match.jpg,pics/candle01.jpg,pics/pencilsharpener02a.jpg,blankImage,blankImage,blankImage,blankImage,blankImage,blankImage,blankImage,blankImage,chalk,9,,,,,,,,,,,,,,,,,,,,,,,,,,,,,,,,,,,,,,,,,,,,,,,,,,,,,,,,,,,,,,,,,,,,,,,,,,,,,,,,,,,,,,,,,,,,,,,,,,,,
,,,,,5b0e9af69663ee000145bc26,6682b41eeb79ab8215dff63d,6682ba8580c6972854304609,28,Male,English,2024-07-01_15h18.24.550,ABmemTask3,2023.2.3,Win32,74.96251874,,,,,,,,,,,,,,,,,,,,,,,,,,,,,,,371.888,372.887,372.887,13,373.381,374.942,0.002,375.115,0.172,0.173,0.174,0.173,0.173,0.174,0.174,0.172,0.174,,,375.115,375.942,right,0.814,,375.942,377.076,right,1.125,,12,0,16,377.076,378.076,0,7,7,7,1,prac_AB,L1_T1P_T2P,1,1,1,5,6,4,4,10,pants,Did you see the pants,0.18,0,resources/,pics/kangaroo.jpg,pics/safetypin.jpg,pics/salmon.jpg,pics/sandbarshark.jpg,pics/pants.jpg,pics/stapler03a.jpg,pics/sink.jpg,pics/calendar.jpg,pics/butterfly.jpg,pics/fanblades.jpg,blankImage,blankImage,blankImage,blankImage,blankImage,blankImage,blankImage,pants,2,,,,,,,,,,,,,,,,,,,,,,,,,,,,,,,,,,,,,,,,,,,,,,,,,,,,,,,,,,,,,,,,,,,,,,,,,,,,,,,,,,,,,,,,,,,,,,,,,,,,
,,,,,5b0e9af69663ee000145bc26,6682b41eeb79ab8215dff63d,6682ba8580c6972854304609,28,Male,English,2024-07-01_15h18.24.550,ABmemTask3,2023.2.3,Win32,74.96251874,,,,,,,,,,,,,,,,,,,,,,,,,,,,,,,378.077,379.077,379.077,13,379.57,381.998,0.002,382.171,0.172,0.173,0.173,0.174,0.174,0.173,0.174,0.173,0.173,0.174,0.173,382.171,383.812,left,1.631,,383.813,384.745,right,0.921,,14,0,18,384.745,385.746,0,8,8,8,1,prac_AB,L5_T1A_T2P,5,0,1,7,12,6,3,15,shirt,Did you see the shirt,0.17,0,resources/,pics/banjo.jpg,pics/chainsaw.jpg,pics/sailboat.jpg,pics/shipinabottle.jpg,pics/lightswitch01.jpg,pics/starfish01.jpg,pics/hen.jpg,pics/ball02.jpg,pics/bowlingpin.jpg,pics/hammerheadshark.jpg,pics/footballhelmet.jpg,pics/stapler10.jpg,pics/laptop01a.jpg,pics/cannon.jpg,pics/golfball.jpg,blankImage,blankImage,shirt02,13,0.174,0.173,0.174,,,,,,,,,,,,,,,,,,,,,,,,,,,,,,,,,,,,,,,,,,,,,,,,,,,,,,,,,,,,,,,,,,,,,,,,,,,,,,,,,,,,,,,,,,,,,,,,,
,,,,,5b0e9af69663ee000145bc26,6682b41eeb79ab8215dff63d,6682ba8580c6972854304609,28,Male,English,2024-07-01_15h18.24.550,ABmemTask3,2023.2.3,Win32,74.96251874,,,,,,,,,,,,,,,,,,,,,,,,,,,,,,,385.749,386.746,386.746,12,387.24,388.841,0.003,389,0.158,0.16,0.159,0.161,0.159,0.16,0.161,0.16,0.16,0.16,,389,390.254,right,1.241,,390.254,391.334,right,1.077,,16,0,20,391.334,392.334,0,9,9,9,1,prac_AB,L1_T1P_T2P,1,1,1,7,8,6,3,11,tongs,Did you see the tongs,0.16,0,resources/,pics/sewingmachine01a.jpg,pics/shovel01.jpg,pics/football.jpg,pics/hen.jpg,pics/banjo.jpg,pics/zebra.jpg,pics/tongs01b.jpg,pics/stapler11.jpg,pics/shipinabottle.jpg,pics/match.jpg,pics/candle01.jpg,blankImage,blankImage,blankImage,blankImage,blankImage,blankImage,tongs01b,5,,,,,,,,,,,,,,,,,,,,,,,,,,,,,,,,,,,,,,,,,,,,,,,,,,,,,,,,,,,,,,,,,,,,,,,,,,,,,,,,,,,,,,,,,,,,,,,,,,,,
,,,,,5b0e9af69663ee000145bc26,6682b41eeb79ab8215dff63d,6682ba8580c6972854304609,28,Male,English,2024-07-01_15h18.24.550,ABmemTask3,2023.2.3,Win32,74.96251874,,,,,,,,,,,,,,,,,,,,,,,,,,,,,,,392.336,393.335,393.335,11,393.828,395.443,0.002,395.589,0.146,0.146,0.148,0.146,0.146,0.146,0.147,0.147,0.147,0.147,0.147,395.59,396.684,left,1.079,,396.684,397.617,left,0.927,,18,0,22,397.617,398.617,0,10,10,10,1,prac_AB,L1_T1A_T2A,1,0,0,7,8,6,4,12,camera,Did you see the camera,0.15,0,resources/,pics/lightswitch01.jpg,pics/table01.jpg,pics/aquarium.jpg,pics/boot02b.jpg,pics/butterfly.jpg,pics/chainsaw.jpg,pics/binoculars01b.jpg,pics/giraffe.jpg,pics/triangle.jpg,pics/microscope.jpg,pics/mummy.jpg,pics/icecube01.jpg,blankImage,blankImage,blankImage,blankImage,blankImage,camera01a,10,,,,,,,,,,,,,,,,,,,,,,,,,,,,,,,,,,,,,,,,,,,,,,,,,,,,,,,,,,,,,,,,,,,,,,,,,,,,,,,,,,,,,,,,,,,,,,,,,,,,
,,,,,5b0e9af69663ee000145bc26,6682b41eeb79ab8215dff63d,6682ba8580c6972854304609,28,Male,English,2024-07-01_15h18.24.550,ABmemTask3,2023.2.3,Win32,74.96251874,,,,,,,,,,,,,,,,,,,,,,,,,,,,,,,398.618,399.618,399.618,10,400.111,401.312,0.002,401.445,0.132,0.134,0.133,0.134,0.133,0.134,0.133,0.133,0.134,,,401.445,402.432,right,0.979,,402.432,403.459,right,1.013,,20,0,24,403.459,404.46,0,11,11,11,1,prac_AB,L1_T1P_T2P,1,1,1,6,7,5,3,10,shorts,Did you see the shorts,0.14,0,resources/,pics/snowshoe.jpg,pics/chainsaw.jpg,pics/sailboat.jpg,pics/ball02.jpg,pics/candleholder01.jpg,pics/shorts01.jpg,pics/stapler07.jpg,pics/peach01.jpg,pics/proboscismonkey.jpg,pics/hen.jpg,blankImage,blankImage,blankImage,blankImage,blankImage,blankImage,blankImage,shorts01,4,,,,,,,,,,,,,,,,,,,,,,,,,,,,,,,,,,,,,,,,,,,,,,,,,,,,,,,,,,,,,,,,,,,,,,,,,,,,,,,,,,,,,,,,,,,,,,,,,,,,
,,,,,5b0e9af69663ee000145bc26,6682b41eeb79ab8215dff63d,6682ba8580c6972854304609,28,Male,English,2024-07-01_15h18.24.550,ABmemTask3,2023.2.3,Win32,74.96251874,,,,,,,,,,,,,,,,,,,,,,,,,,,,,,,404.461,405.46,405.46,10,405.953,407.555,0.002,407.687,0.133,0.133,0.133,0.134,0.133,0.134,0.134,0.132,0.134,0.132,0.134,407.688,408.568,right,0.873,,408.568,409.501,left,0.922,,22,0,26,409.502,410.502,0,12,12,12,1,prac_AB,L5_T1P_T2A,5,1,0,5,10,4,3,13,fish,Did you see the fish,0.13,0,resources/,pics/football.jpg,pics/safetypin.jpg,pics/shovel01.jpg,pics/sink.jpg,pics/holdfast.jpg,pics/nutcracker01.jpg,pics/starfish01.jpg,pics/onion.jpg,pics/footballhelmet.jpg,pics/boot02b.jpg,pics/sewingmachine01a.jpg,pics/kangaroo.jpg,pics/banjo.jpg,blankImage,blankImage,blankImage,blankImage,holdfast,14,0.134,,,,,,,,,,,,,,,,,,,,,,,,,,,,,,,,,,,,,,,,,,,,,,,,,,,,,,,,,,,,,,,,,,,,,,,,,,,,,,,,,,,,,,,,,,,,,,,,,,,
,,,,,5b0e9af69663ee000145bc26,6682b41eeb79ab8215dff63d,6682ba8580c6972854304609,28,Male,English,2024-07-01_15h18.24.550,ABmemTask3,2023.2.3,Win32,74.96251874,,,,,,,,,,,,,,,,,,,,,,,,,,,,,,,410.503,411.502,411.502,9,411.996,413.077,0.002,413.196,0.118,0.121,0.119,0.12,0.12,0.121,0.12,0.12,0.12,,,413.196,414.023,right,0.822,,414.023,415.383,left,1.356,,22,0,28,415.383,416.384,0,13,13,13,1,prac_AB,L1_T1P_T2P,1,1,1,5,6,4,4,10,fish,Did you see the fish,0.12,0,resources/,pics/butterfly.jpg,pics/banjo.jpg,pics/leaf02a.jpg,pics/dustpan.jpg,pics/sturgeon.jpg,pics/stapler02.jpg,pics/necklace.jpg,pics/shovel01.jpg,pics/starfish01.jpg,pics/chainsaw.jpg,blankImage,blankImage,blankImage,blankImage,blankImage,blankImage,blankImage,sturgeon,3,,,,,,,,,,,,,,,,,,,,,,,,,,,,,,,,,,,,,,,,,,,,,,,,,,,,,,,,,,,,,,,,,,,,,,,,,,,,,,,,,,,,,,,,,,,,,,,,,,,,
,,,,,5b0e9af69663ee000145bc26,6682b41eeb79ab8215dff63d,6682ba8580c6972854304609,28,Male,English,2024-07-01_15h18.24.550,ABmemTask3,2023.2.3,Win32,74.96251874,,,,,,,,,,,,,,,,,,,,,,,,,,,,,,,,,,,,,,,,,,,,,,,,,,,,,,,,,,,,,,,,,,,,,,,,,,,,,,,,,,,,,,,,,,,,,,,,,,,,,,,,,,,416.384,418.492,space,2.093,,,,,,,,,,,,,,,,,,,,,,,,,,,,,,,,,,,,,,,,,,,,,,,,,,,,,,,,,,,,,,,,,,,,,,,,,,,,,,,,,,,,,,,,,,,,,
,,,,,5b0e9af69663ee000145bc26,6682b41eeb79ab8215dff63d,6682ba8580c6972854304609,28,Male,English,2024-07-01_15h18.24.550,ABmemTask3,2023.2.3,Win32,74.96251874,,,,,,,,,,,,,,,,,,,,,,,,,,,,,,,,,,,,,,,,,,,,,,,,,,,,,,,,,,,,,,,,,,,,,,,,,,,,,,,,,,,,,,,,,,,,,,,,,,,,,,,,,,,418.498,418.502,,,,,,,,,,,,,,,,,,,,,,,,,,,,,,,,,,,,,,,,,,,,,,,,,,,,,,,,,,,,,,,,,,,,,,,,,,,,,,,,,,,,,,,,,,,,,,,
,,,,,5b0e9af69663ee000145bc26,6682b41eeb79ab8215dff63d,6682ba8580c6972854304609,28,Male,English,2024-07-01_15h18.24.550,ABmemTask3,2023.2.3,Win32,74.96251874,,,,,,,,,,,,,,,,,,,,,,,,,,,,,,,,,,,,,,,,,,,,,,,,,,,,,,,,,,,,,,,,,,,,,,,,,,,,,,,,,,,,,,,,,,,,,,,,,,,,,,,,,,,418.505,418.505,,,,,,,,,,,,,,,,,,,,,,,,,,,,,,,,,,,,,,,,,,,,,,,,,,,,,,,,,,,,,,,,,,,,,,,,,,,,,,,,,,,,,,,,,,,,,,,
,,,,,5b0e9af69663ee000145bc26,6682b41eeb79ab8215dff63d,6682ba8580c6972854304609,28,Male,English,2024-07-01_15h18.24.550,ABmemTask3,2023.2.3,Win32,74.96251874,,,,,,,,,,,,,,,,,,,,,,,,,,,,,,,,,,,,,,,,,,,,,,,,,,,,,,,,,,,,,,,,,,,,,,,,,,,,,,,,,,,,,,,,,,,,,,,,,,,,,,,,,,,418.507,418.507,,,,,,,,,,,,,,,,,,,,,,,,,,,,,,,,,,,,,,,,,,,,,,,,,,,,,,,,,,,,,,,,,,,,,,,,,,,,,,,,,,,,,,,,,,,,,,,
,,,,,5b0e9af69663ee000145bc26,6682b41eeb79ab8215dff63d,6682ba8580c6972854304609,28,Male,English,2024-07-01_15h18.24.550,ABmemTask3,2023.2.3,Win32,74.96251874,,,,,,,,,,,,,,,,,,,,,,,,,,,,,,,,,,,,,,,,,,,,,,,,,,,,,,,,,,,,,,,,,,,,,,,,,,,,,,,,,,,,,,,,,,,,,,,,,,,,,,,,,,,418.507,418.507,,,,,,,,,,,,,,,,,,,,,,,,,,,,,,,,,,,,,,,,,,,,,,,,,,,,,,,,,,,,,,,,,,,,,,,,,,,,,,,,,,,,,,,,,,,,,,,
,,,,,5b0e9af69663ee000145bc26,6682b41eeb79ab8215dff63d,6682ba8580c6972854304609,28,Male,English,2024-07-01_15h18.24.550,ABmemTask3,2023.2.3,Win32,74.96251874,,,,,,,,,,,,,,,,,,,,,,,,,,,,,,,,,,,,,,,,,,,,,,,,,,,,,,,,,,,,,,,,,,,,,,,,,,,,,,,,,,,,,,,,,,,,,,,,,,,,,,,,,,,418.509,418.509,,,,,,,,,,,,,,,,,,,,,,,,,,,,,,,,,,,,,,,,,,,,,,,,,,,,,,,,,,,,,,,,,,,,,,,,,,,,,,,,,,,,,,,,,,,,,,,
,,,,,5b0e9af69663ee000145bc26,6682b41eeb79ab8215dff63d,6682ba8580c6972854304609,28,Male,English,2024-07-01_15h18.24.550,ABmemTask3,2023.2.3,Win32,74.96251874,,,,,,,,,,,,,,,,,,,,,,,,,,,,,,,,,,,,,,,,,,,,,,,,,,,,,,,,,,,,,,,,,,,,,,,,,,,,,,,,,,,,,,,,,,,,,,,,,,,,,,,,,,,418.509,418.51,,,,,,,,,,,,,,,,,,,,,,,,,,,,,,,,,,,,,,,,,,,,,,,,,,,,,,,,,,,,,,,,,,,,,,,,,,,,,,,,,,,,,,,,,,,,,,,
,,,,,5b0e9af69663ee000145bc26,6682b41eeb79ab8215dff63d,6682ba8580c6972854304609,28,Male,English,2024-07-01_15h18.24.550,ABmemTask3,2023.2.3,Win32,74.96251874,,,,,,,,,,,,,,,,,,,,,,,,,,,,,,,,,,,,,,,,,,,,,,,,,,,,,,,,,,,,,,,,,,,,,,,,,,,,,,,,,,,,,,,,,,,,,,,,,,,,,,,,,,,418.51,418.51,,,,,,,,,,,,,,,,,,,,,,,,,,,,,,,,,,,,,,,,,,,,,,,,,,,,,,,,,,,,,,,,,,,,,,,,,,,,,,,,,,,,,,,,,,,,,,,
,,,,,5b0e9af69663ee000145bc26,6682b41eeb79ab8215dff63d,6682ba8580c6972854304609,28,Male,English,2024-07-01_15h18.24.550,ABmemTask3,2023.2.3,Win32,74.96251874,,,,,,,,,,,,,,,,,,,,,,,,,,,,,,,,,,,,,,,,,,,,,,,,,,,,,,,,,,,,,,,,,,,,,,,,,,,,,,,,,,,,,,,,,,,,,,,,,,,,,,,,,,,418.511,418.511,,,,,,,,,,,,,,,,,,,,,,,,,,,,,,,,,,,,,,,,,,,,,,,,,,,,,,,,,,,,,,,,,,,,,,,,,,,,,,,,,,,,,,,,,,,,,,,
,,,,,5b0e9af69663ee000145bc26,6682b41eeb79ab8215dff63d,6682ba8580c6972854304609,28,Male,English,2024-07-01_15h18.24.550,ABmemTask3,2023.2.3,Win32,74.96251874,,,,,,,,,,,,,,,,,,,,,,,,,,,,,,,,,,,,,,,,,,,,,,,,,,,,,,,,,,,,,,,,,,,,,,,,,,,,,,,,,,,,,,,,,,,,,,,,,,,,,,,,,,,418.512,418.512,,,,,,,,,,,,,,,,,,,,,,,,,,,,,,,,,,,,,,,,,,,,,,,,,,,,,,,,,,,,,,,,,,,,,,,,,,,,,,,,,,,,,,,,,,,,,,,
,,,,,5b0e9af69663ee000145bc26,6682b41eeb79ab8215dff63d,6682ba8580c6972854304609,28,Male,English,2024-07-01_15h18.24.550,ABmemTask3,2023.2.3,Win32,74.96251874,,,,,,,,,,,,,,,,,,,,,,,,,,,,,,,,,,,,,,,,,,,,,,,,,,,,,,,,,,,,,,,,,,,,,,,,,,,,,,,,,,,,,,,,,,,,,,,,,,,,,,,,,,,418.513,418.513,,,,,,,,,,,,,,,,,,,,,,,,,,,,,,,,,,,,,,,,,,,,,,,,,,,,,,,,,,,,,,,,,,,,,,,,,,,,,,,,,,,,,,,,,,,,,,,
,,,,,5b0e9af69663ee000145bc26,6682b41eeb79ab8215dff63d,6682ba8580c6972854304609,28,Male,English,2024-07-01_15h18.24.550,ABmemTask3,2023.2.3,Win32,74.96251874,,,,,,,,,,,,,,,,,,,,,,,,,,,,,,,,,,,,,,,,,,,,,,,,,,,,,,,,,,,,,,,,,,,,,,,,,,,,,,,,,,,,,,,,,,,,,,,,,,,,,,,,,,,418.513,418.513,,,,,,,,,,,,,,,,,,,,,,,,,,,,,,,,,,,,,,,,,,,,,,,,,,,,,,,,,,,,,,,,,,,,,,,,,,,,,,,,,,,,,,,,,,,,,,,
,,,,,5b0e9af69663ee000145bc26,6682b41eeb79ab8215dff63d,6682ba8580c6972854304609,28,Male,English,2024-07-01_15h18.24.550,ABmemTask3,2023.2.3,Win32,74.96251874,,,,,,,,,,,,,,,,,,,,,,,,,,,,,,,,,,,,,,,,,,,,,,,,,,,,,,,,,,,,,,,,,,,,,,,,,,,,,,,,,,,,,,,,,,,,,,,,,,,,,,,,,,,418.514,418.514,,,,,,,,,,,,,,,,,,,,,,,,,,,,,,,,,,,,,,,,,,,,,,,,,,,,,,,,,,,,,,,,,,,,,,,,,,,,,,,,,,,,,,,,,,,,,,,
,,,,,5b0e9af69663ee000145bc26,6682b41eeb79ab8215dff63d,6682ba8580c6972854304609,28,Male,English,2024-07-01_15h18.24.550,ABmemTask3,2023.2.3,Win32,74.96251874,,,,,,,,,,,,,,,,,,,,,,,,,,,,,,,,,,,,,,,,,,,,,,,,,,,,,,,,,,,,,,,,,,,,,,,,,,,,,,,,,,,,,,,,,,,,,,,,,,,,,,,,,,,418.515,418.515,,,,,,,,,,,,,,,,,,,,,,,,,,,,,,,,,,,,,,,,,,,,,,,,,,,,,,,,,,,,,,,,,,,,,,,,,,,,,,,,,,,,,,,,,,,,,,,
,,,,,5b0e9af69663ee000145bc26,6682b41eeb79ab8215dff63d,6682ba8580c6972854304609,28,Male,English,2024-07-01_15h18.24.550,ABmemTask3,2023.2.3,Win32,74.96251874,,,,,,,,,,,,,,,,,,,,,,,,,,,,,,,,,,,,,,,,,,,,,,,,,,,,,,,,,,,,,,,,,,,,,,,,,,,,,,,,,,,,,,,,,,,,,,,,,,,,,,,,,,,418.516,418.516,,,,,,,,,,,,,,,,,,,,,,,,,,,,,,,,,,,,,,,,,,,,,,,,,,,,,,,,,,,,,,,,,,,,,,,,,,,,,,,,,,,,,,,,,,,,,,,
,,,,,5b0e9af69663ee000145bc26,6682b41eeb79ab8215dff63d,6682ba8580c6972854304609,28,Male,English,2024-07-01_15h18.24.550,ABmemTask3,2023.2.3,Win32,74.96251874,,,,,,,,,,,,,,,,,,,,,,,,,,,,,,,,,,,,,,,,,,,,,,,,,,,,,,,,,,,,,,,,,,,,,,,,,,,,,,,,,,,,,,,,,,,,,,,,,,,,,,,,,,,418.517,418.517,,,,,,,,,,,,,,,,,,,,,,,,,,,,,,,,,,,,,,,,,,,,,,,,,,,,,,,,,,,,,,,,,,,,,,,,,,,,,,,,,,,,,,,,,,,,,,,
,,,,,5b0e9af69663ee000145bc26,6682b41eeb79ab8215dff63d,6682ba8580c6972854304609,28,Male,English,2024-07-01_15h18.24.550,ABmemTask3,2023.2.3,Win32,74.96251874,,,,,,,,,,,,,,,,,,,,,,,,,,,,,,,,,,,,,,,,,,,,,,,,,,,,,,,,,,,,,,,,,,,,,,,,,,,,,,,,,,,,,,,,,,,,,,,,,,,,,,,,,,,418.518,418.518,,,,,,,,,,,,,,,,,,,,,,,,,,,,,,,,,,,,,,,,,,,,,,,,,,,,,,,,,,,,,,,,,,,,,,,,,,,,,,,,,,,,,,,,,,,,,,,
,,,,,5b0e9af69663ee000145bc26,6682b41eeb79ab8215dff63d,6682ba8580c6972854304609,28,Male,English,2024-07-01_15h18.24.550,ABmemTask3,2023.2.3,Win32,74.96251874,,,,,,,,,,,,,,,,,,,,,,,,,,,,,,,,,,,,,,,,,,,,,,,,,,,,,,,,,,,,,,,,,,,,,,,,,,,,,,,,,,,,,,,,,,,,,,,,,,,,,,,,,,,418.519,418.519,,,,,,,,,,,,,,,,,,,,,,,,,,,,,,,,,,,,,,,,,,,,,,,,,,,,,,,,,,,,,,,,,,,,,,,,,,,,,,,,,,,,,,,,,,,,,,,
,,,,,5b0e9af69663ee000145bc26,6682b41eeb79ab8215dff63d,6682ba8580c6972854304609,28,Male,English,2024-07-01_15h18.24.550,ABmemTask3,2023.2.3,Win32,74.96251874,,,,,,,,,,,,,,,,,,,,,,,,,,,,,,,,,,,,,,,,,,,,,,,,,,,,,,,,,,,,,,,,,,,,,,,,,,,,,,,,,,,,,,,,,,,,,,,,,,,,,,,,,,,418.52,418.52,,,,,,,,,,,,,,,,,,,,,,,,,,,,,,,,,,,,,,,,,,,,,,,,,,,,,,,,,,,,,,,,,,,,,,,,,,,,,,,,,,,,,,,,,,,,,,,
,,,,,5b0e9af69663ee000145bc26,6682b41eeb79ab8215dff63d,6682ba8580c6972854304609,28,Male,English,2024-07-01_15h18.24.550,ABmemTask3,2023.2.3,Win32,74.96251874,,,,,,,,,,,,,,,,,,,,,,,,,,,,,,,,,,,,,,,,,,,,,,,,,,,,,,,,,,,,,,,,,,,,,,,,,,,,,,,,,,,,,,,,,,,,,,,,,,,,,,,,,,,418.52,418.52,,,,,,,,,,,,,,,,,,,,,,,,,,,,,,,,,,,,,,,,,,,,,,,,,,,,,,,,,,,,,,,,,,,,,,,,,,,,,,,,,,,,,,,,,,,,,,,
,,,,,5b0e9af69663ee000145bc26,6682b41eeb79ab8215dff63d,6682ba8580c6972854304609,28,Male,English,2024-07-01_15h18.24.550,ABmemTask3,2023.2.3,Win32,74.96251874,,,,,,,,,,,,,,,,,,,,,,,,,,,,,,,,,,,,,,,,,,,,,,,,,,,,,,,,,,,,,,,,,,,,,,,,,,,,,,,,,,,,,,,,,,,,,,,,,,,,,,,,,,,418.521,418.521,,,,,,,,,,,,,,,,,,,,,,,,,,,,,,,,,,,,,,,,,,,,,,,,,,,,,,,,,,,,,,,,,,,,,,,,,,,,,,,,,,,,,,,,,,,,,,,
,,,,,5b0e9af69663ee000145bc26,6682b41eeb79ab8215dff63d,6682ba8580c6972854304609,28,Male,English,2024-07-01_15h18.24.550,ABmemTask3,2023.2.3,Win32,74.96251874,,,,,,,,,,,,,,,,,,,,,,,,,,,,,,,,,,,,,,,,,,,,,,,,,,,,,,,,,,,,,,,,,,,,,,,,,,,,,,,,,,,,,,,,,,,,,,,,,,,,,,,,,,,418.522,418.522,,,,,,,,,,,,,,,,,,,,,,,,,,,,,,,,,,,,,,,,,,,,,,,,,,,,,,,,,,,,,,,,,,,,,,,,,,,,,,,,,,,,,,,,,,,,,,,
,,,,,5b0e9af69663ee000145bc26,6682b41eeb79ab8215dff63d,6682ba8580c6972854304609,28,Male,English,2024-07-01_15h18.24.550,ABmemTask3,2023.2.3,Win32,74.96251874,,,,,,,,,,,,,,,,,,,,,,,,,,,,,,,,,,,,,,,,,,,,,,,,,,,,,,,,,,,,,,,,,,,,,,,,,,,,,,,,,,,,,,,,,,,,,,,,,,,,,,,,,,,,,,,,418.522,451.851,space,33.304,,,,,,,,,,,,,,,,,,,,,,,,,,,,,,,,,,,,,,,,,,,,,,,,,,,,,,,,,,,,,,,,,,,,,,,,,,,,,,,,,,,,,,,,
,,,,,5b0e9af69663ee000145bc26,6682b41eeb79ab8215dff63d,6682ba8580c6972854304609,28,Male,English,2024-07-01_15h18.24.550,ABmemTask3,2023.2.3,Win32,74.96251874,,,,,,,,,,,,,,,,,,,,,,,,,,,,,,,,,451.857,750,452.358,,,,,,,,,,,,,,,,,,,,,,,,,,0,,,,,,,,,prac_MEM,new,,,,,,,,,,,10,,,,,,,,,,,,,,,,,,,,,,,,,,,,,,,,,,,452.358,460.241,-1,4,7.867,,460.241,461.241,0,0,0,10,1,999,999,pics/tomato01.jpg,,,,,,,,,,,,,,,,,,,,,,,,,,,,,,,,,,,,,,,,,,,,,,,,,,,,,,,,,,,,,,,,,,,,,,,
,,,,,5b0e9af69663ee000145bc26,6682b41eeb79ab8215dff63d,6682ba8580c6972854304609,28,Male,English,2024-07-01_15h18.24.550,ABmemTask3,2023.2.3,Win32,74.96251874,,,,,,,,,,,,,,,,,,,,,,,,,,,,,,,,,461.242,750,461.735,,,,,,,,,,,,,,,,,,,,,,,,,,0,,,,,,,,,prac_MEM,old,,,,,,,,,,,10,,,,,,,,,,,,,,,,,,,,,,,,,,,,,,,,,,,461.735,465.51,2,6,3.761,,465.51,466.51,0,1,1,4,1,5,1,pics/tongs01b.jpg,,,,,,,,,,,,,,,,,,,,,,,,,,,,,,,,,,,,,,,,,,,,,,,,,,,,,,,,,,,,,,,,,,,,,,,
,,,,,5b0e9af69663ee000145bc26,6682b41eeb79ab8215dff63d,6682ba8580c6972854304609,28,Male,English,2024-07-01_15h18.24.550,ABmemTask3,2023.2.3,Win32,74.96251874,,,,,,,,,,,,,,,,,,,,,,,,,,,,,,,,,466.511,750,467.003,,,,,,,,,,,,,,,,,,,,,,,,,,0,,,,,,,,,prac_MEM,old,,,,,,,,,,,10,,,,,,,,,,,,,,,,,,,,,,,,,,,,,,,,,,,467.004,469.698,5,6,2.683,,469.698,470.698,0,2,2,3,1,4,1,pics/shorts01.jpg,,,,,,,,,,,,,,,,,,,,,,,,,,,,,,,,,,,,,,,,,,,,,,,,,,,,,,,,,,,,,,,,,,,,,,,
,,,,,5b0e9af69663ee000145bc26,6682b41eeb79ab8215dff63d,6682ba8580c6972854304609,28,Male,English,2024-07-01_15h18.24.550,ABmemTask3,2023.2.3,Win32,74.96251874,,,,,,,,,,,,,,,,,,,,,,,,,,,,,,,,,470.699,750,471.192,,,,,,,,,,,,,,,,,,,,,,,,,,0,,,,,,,,,prac_MEM,new,,,,,,,,,,,10,,,,,,,,,,,,,,,,,,,,,,,,,,,,,,,,,,,471.192,473.46,1,5,2.25,,473.46,474.459,0,3,3,7,1,999,999,pics/cherry01.jpg,,,,,,,,,,,,,,,,,,,,,,,,,,,,,,,,,,,,,,,,,,,,,,,,,,,,,,,,,,,,,,,,,,,,,,,
,,,,,5b0e9af69663ee000145bc26,6682b41eeb79ab8215dff63d,6682ba8580c6972854304609,28,Male,English,2024-07-01_15h18.24.550,ABmemTask3,2023.2.3,Win32,74.96251874,,,,,,,,,,,,,,,,,,,,,,,,,,,,,,,,,474.46,750,474.953,,,,,,,,,,,,,,,,,,,,,,,,,,0,,,,,,,,,prac_MEM,old,,,,,,,,,,,10,,,,,,,,,,,,,,,,,,,,,,,,,,,,,,,,,,,474.953,477.38,4,6,2.416,,477.381,478.381,0,4,4,1,1,2,1,pics/pants.jpg,,,,,,,,,,,,,,,,,,,,,,,,,,,,,,,,,,,,,,,,,,,,,,,,,,,,,,,,,,,,,,,,,,,,,,,
,,,,,5b0e9af69663ee000145bc26,6682b41eeb79ab8215dff63d,6682ba8580c6972854304609,28,Male,English,2024-07-01_15h18.24.550,ABmemTask3,2023.2.3,Win32,74.96251874,,,,,,,,,,,,,,,,,,,,,,,,,,,,,,,,,478.382,750,478.875,,,,,,,,,,,,,,,,,,,,,,,,,,0,,,,,,,,,prac_MEM,old,,,,,,,,,,,10,,,,,,,,,,,,,,,,,,,,,,,,,,,,,,,,,,,478.875,480.889,7,6,1.997,,480.89,481.889,0,5,5,5,1,11,5,pics/grater01a.jpg,,,,,,,,,,,,,,,,,,,,,,,,,,,,,,,,,,,,,,,,,,,,,,,,,,,,,,,,,,,,,,,,,,,,,,,
,,,,,5b0e9af69663ee000145bc26,6682b41eeb79ab8215dff63d,6682ba8580c6972854304609,28,Male,English,2024-07-01_15h18.24.550,ABmemTask3,2023.2.3,Win32,74.96251874,,,,,,,,,,,,,,,,,,,,,,,,,,,,,,,,,481.889,750,482.383,,,,,,,,,,,,,,,,,,,,,,,,,,0,,,,,,,,,prac_MEM,new,,,,,,,,,,,10,,,,,,,,,,,,,,,,,,,,,,,,,,,,,,,,,,,482.383,483.637,-2,6,1.243,,483.638,484.638,0,6,6,9,1,999,999,pics/moth.jpg,,,,,,,,,,,,,,,,,,,,,,,,,,,,,,,,,,,,,,,,,,,,,,,,,,,,,,,,,,,,,,,,,,,,,,,
,,,,,5b0e9af69663ee000145bc26,6682b41eeb79ab8215dff63d,6682ba8580c6972854304609,28,Male,English,2024-07-01_15h18.24.550,ABmemTask3,2023.2.3,Win32,74.96251874,,,,,,,,,,,,,,,,,,,,,,,,,,,,,,,,,484.64,750,485.13,,,,,,,,,,,,,,,,,,,,,,,,,,0,,,,,,,,,prac_MEM,old,,,,,,,,,,,10,,,,,,,,,,,,,,,,,,,,,,,,,,,,,,,,,,,485.13,488.799,-5,1,3.659,,488.8,489.799,0,7,7,0,1,1,1,pics/tree.jpg,,,,,,,,,,,,,,,,,,,,,,,,,,,,,,,,,,,,,,,,,,,,,,,,,,,,,,,,,,,,,,,,,,,,,,,
,,,,,5b0e9af69663ee000145bc26,6682b41eeb79ab8215dff63d,6682ba8580c6972854304609,28,Male,English,2024-07-01_15h18.24.550,ABmemTask3,2023.2.3,Win32,74.96251874,,,,,,,,,,,,,,,,,,,,,,,,,,,,,,,,,489.8,750,490.293,,,,,,,,,,,,,,,,,,,,,,,,,,0,,,,,,,,,prac_MEM,old,,,,,,,,,,,10,,,,,,,,,,,,,,,,,,,,,,,,,,,,,,,,,,,490.293,492.707,-2,6,2.397,,492.708,493.708,0,8,8,6,1,12,5,pics/humanskull.jpg,,,,,,,,,,,,,,,,,,,,,,,,,,,,,,,,,,,,,,,,,,,,,,,,,,,,,,,,,,,,,,,,,,,,,,,
,,,,,5b0e9af69663ee000145bc26,6682b41eeb79ab8215dff63d,6682ba8580c6972854304609,28,Male,English,2024-07-01_15h18.24.550,ABmemTask3,2023.2.3,Win32,74.96251874,,,,,,,,,,,,,,,,,,,,,,,,,,,,,,,,,493.709,750,494.2,,,,,,,,,,,,,,,,,,,,,,,,,,0,,,,,,,,,prac_MEM,old,,,,,,,,,,,10,,,,,,,,,,,,,,,,,,,,,,,,,,,,,,,,,,,494.201,495.641,1,6,1.422,,495.641,496.641,0,9,9,2,1,3,1,pics/sturgeon.jpg,,,,,,,,,,,,,,,,,,,,,,,,,,,,,,,,,,,,,,,,,,,,,,,,,,,,,,,,,,,,,,,,,,,,,,,
,,,,,5b0e9af69663ee000145bc26,6682b41eeb79ab8215dff63d,6682ba8580c6972854304609,28,Male,English,2024-07-01_15h18.24.550,ABmemTask3,2023.2.3,Win32,74.96251874,,,,,,,,,,,,,,,,,,,,,,,,,,,,,,,,,496.643,750,497.135,,,,,,,,,,,,,,,,,,,,,,,,,,0,,,,,,,,,prac_MEM,new,,,,,,,,,,,10,,,,,,,,,,,,,,,,,,,,,,,,,,,,,,,,,,,497.135,499.736,4,1,2.584,,499.737,500.737,0,10,10,8,1,999,999,pics/thread02.jpg,,,,,,,,,,,,,,,,,,,,,,,,,,,,,,,,,,,,,,,,,,,,,,,,,,,,,,,,,,,,,,,,,,,,,,,
,,,,,5b0e9af69663ee000145bc26,6682b41eeb79ab8215dff63d,6682ba8580c6972854304609,28,Male,English,2024-07-01_15h18.24.550,ABmemTask3,2023.2.3,Win32,74.96251874,,,,,,,,,,,,,,,,,,,,,,,,,,,,,,,,,,,,,,,,,,,,,,,,,,,,,,,,,,,,,,,,,,,,,,,,,,,,,,,,,,,,,,,,,,,,,,,,,,,,,,,,,,,,,,,,,,,,,,,,,,,,,,,,,,,,,500.737,502.444,502.444,502.444,,,,,,,,,,,,,,,,,,,,,,,,,,,,,,,,,,,,,,,,,,,,,,,,,,,,,,,,,,,,,,,,,,,
,,,,,5b0e9af69663ee000145bc26,6682b41eeb79ab8215dff63d,6682ba8580c6972854304609,28,Male,English,2024-07-01_15h18.24.550,ABmemTask3,2023.2.3,Win32,74.96251874,,,,,,,,,,,,,,,,,,space,29.21,,,,,,,,,,,,,,,,,,,,,,,,,,,,,,,,,,,,,,,,,,,,,,,,,,,,,,,,,,,,,,,,,,,,,,,,,,,,,,,,,,,,,,,,,,,,,,,,,,,,,,,,,,,,,,,,,,,,,,502.444,531.683,,,,,,,,,,,,,,,,,,,,,,,,,,,,,,,,,,,,,,,,,,,,,,,,,,,,,,,,,,,,,,,,,
,,,,,5b0e9af69663ee000145bc26,6682b41eeb79ab8215dff63d,6682ba8580c6972854304609,28,Male,English,2024-07-01_15h18.24.550,ABmemTask3,2023.2.3,Win32,74.96251874,,,,,,,,,,,,,,,,,,,,,,,,,,,,,,,,,,,,,,,,,,,,,,,,,,,,,,,,,,,,,,,,,,,,,,,,,,,,,,,,,,,,,,,,,,,,,,,,,,,,,,,,,,,,,,,,,,,,,,,,,,,,,,,,,,,,,,,,,,,531.683,547.941,space,16.235,,,,,,,,,,,,,,,,,,,,,,,,,,,,,,,,,,,,,,,,,,,,,,,,,,,,,,,,,,,,,
,,,,,5b0e9af69663ee000145bc26,6682b41eeb79ab8215dff63d,6682ba8580c6972854304609,28,Male,English,2024-07-01_15h18.24.550,ABmemTask3,2023.2.3,Win32,74.96251874,,,,,,,,,,,,,,,,,,,,,,,,,,,,,,,547.95,548.941,548.941,9,549.435,550.275,0.003,550.396,0.118,0.12,0.119,0.122,0.119,0.12,0.12,,,,,550.396,553.57,right,3.159,,553.571,554.943,left,1.36,,0,0,2,554.944,555.944,,,,,,1_AB,L1_T1P_T2P,1,1,1,4,5,3,3,8,Recycling bin,Did you see the Recycling bin,0.12,0,resources/,pics/microscope.jpg,pics/dustpan.jpg,pics/seagull.jpg,pics/recyclingbin.jpg,pics/stapler06.jpg,pics/bowtie.jpg,pics/dromedary.jpg,pics/salmon.jpg,blankImage,blankImage,blankImage,blankImage,blankImage,blankImage,blankImage,blankImage,blankImage,recyclingbin,16,,,,,,,,,,,,,,,,,,,,,,,,,,,,,,,,,,,,,,,,,0,0,0,15,1,,,,,,,,,,,,,,,,,,,,,,,,,,,,,,,,,,,,,,,,,,,,,,,,,,,,,,,
,,,,,5b0e9af69663ee000145bc26,6682b41eeb79ab8215dff63d,6682ba8580c6972854304609,28,Male,English,2024-07-01_15h18.24.550,ABmemTask3,2023.2.3,Win32,74.96251874,,,,,,,,,,,,,,,,,,,,,,,,,,,,,,,555.947,556.945,556.945,9,557.438,558.519,0.003,558.639,0.118,0.12,0.12,0.12,0.12,0.12,0.12,0.12,0.12,,,558.639,559.826,right,1.177,,559.826,561.079,left,1.242,,0,0,4,561.079,562.079,,,,,,1_AB,L1_T1P_T2P,1,1,1,4,5,3,5,10,vacuum,Did you see the vacuum,0.12,0,resources/,pics/birdhouse.jpg,pics/floortile02.jpg,pics/toiletpaper01a.jpg,pics/vacuumcleaner01.jpg,pics/stapler02.jpg,pics/spoon01.jpg,pics/banjo.jpg,pics/binder03b.jpg,pics/leaf02a.jpg,pics/aquarium.jpg,blankImage,blankImage,blankImage,blankImage,blankImage,blankImage,blankImage,vacuumcleaner01,5,,,,,,,,,,,,,,,,,,,,,,,,,,,,,,,,,,,,,,,,,0,1,1,4,1,,,,,,,,,,,,,,,,,,,,,,,,,,,,,,,,,,,,,,,,,,,,,,,,,,,,,,,
,,,,,5b0e9af69663ee000145bc26,6682b41eeb79ab8215dff63d,6682ba8580c6972854304609,28,Male,English,2024-07-01_15h18.24.550,ABmemTask3,2023.2.3,Win32,74.96251874,,,,,,,,,,,,,,,,,,,,,,,,,,,,,,,562.08,563.08,563.08,9,563.574,565.255,0.002,565.375,0.118,0.12,0.12,0.121,0.12,0.119,0.121,0.12,0.12,0.12,0.12,565.375,567.002,left,1.618,,567.002,567.962,left,0.947,,0,0,6,567.963,568.962,,,,,,1_AB,L5_T1A_T2P,5,0,1,7,12,6,3,15,scissors,Did you see the scissors,0.12,0,resources/,pics/cannon.jpg,pics/mummy.jpg,pics/shovel01.jpg,pics/christmaslights.jpg,pics/snowshoe.jpg,pics/candle01.jpg,pics/bowtie.jpg,pics/giraffe.jpg,pics/carrot01.jpg,pics/spoon01.jpg,pics/seaturtle.jpg,pics/stapler10.jpg,pics/footballhelmet.jpg,pics/onion.jpg,pics/wheel01.jpg,blankImage,blankImage,scissors01,57,0.12,0.12,0.12,,,,,,,,,,,,,,,,,,,,,,,,,,,,,,,,,,,,,,0,2,2,56,1,,,,,,,,,,,,,,,,,,,,,,,,,,,,,,,,,,,,,,,,,,,,,,,,,,,,,,,
,,,,,5b0e9af69663ee000145bc26,6682b41eeb79ab8215dff63d,6682ba8580c6972854304609,28,Male,English,2024-07-01_15h18.24.550,ABmemTask3,2023.2.3,Win32,74.96251874,,,,,,,,,,,,,,,,,,,,,,,,,,,,,,,568.963,569.962,569.963,9,570.457,572.378,0.002,572.497,0.118,0.12,0.12,0.121,0.12,0.119,0.12,0.121,0.12,0.12,0.119,572.498,574.712,left,2.199,,574.712,575.672,left,0.947,,2,0,8,575.672,576.672,,,,,,1_AB,L5_T1A_T2A,5,0,0,7,12,6,5,17,Bib,Did you see the Bib,0.12,0,resources/,pics/hammerheadshark.jpg,pics/wheel01.jpg,pics/binder03b.jpg,pics/hairdryer02a.jpg,pics/christmaslights.jpg,pics/sandbarshark.jpg,pics/binoculars01b.jpg,pics/piggybank.jpg,pics/aquarium.jpg,pics/candleholder01.jpg,pics/sink.jpg,pics/calendar.jpg,pics/birdhouse.jpg,pics/bowtie.jpg,pics/onion.jpg,pics/golfball.jpg,pics/sailboat.jpg,bib,62,0.121,0.12,0.12,,,,,,,,,,,,,,,,,,,,,,,,,,,,,,,,,,,,,,0,3,3,61,1,0.12,0.12,,,,,,,,,,,,,,,,,,,,,,,,,,,,,,,,,,,,,,,,,,,,,,,,,,,,,
,,,,,5b0e9af69663ee000145bc26,6682b41eeb79ab8215dff63d,6682ba8580c6972854304609,28,Male,English,2024-07-01_15h18.24.550,ABmemTask3,2023.2.3,Win32,74.96251874,,,,,,,,,,,,,,,,,,,,,,,,,,,,,,,576.674,577.673,577.673,9,578.166,579.367,0.002,579.486,0.119,0.119,0.121,0.121,0.118,0.121,0.12,0.12,0.12,0.12,,579.487,580.286,right,0.788,,580.287,581.18,left,0.886,,2,0,10,581.18,582.181,,,,,,1_AB,L1_T1P_T2P,1,1,1,7,8,6,3,11,toothpick,Did you see the toothpick,0.12,0,resources/,pics/candleholder01.jpg,pics/blender.jpg,pics/siamesecat.jpg,pics/peanut01.jpg,pics/spiderweb.jpg,pics/football.jpg,pics/toothpick02.jpg,pics/stapler04b.jpg,pics/seagull.jpg,pics/pictureframe04.jpg,pics/shipinabottle.jpg,blankImage,blankImage,blankImage,blankImage,blankImage,blankImage,toothpick02,17,,,,,,,,,,,,,,,,,,,,,,,,,,,,,,,,,,,,,,,,,0,4,4,16,1,,,,,,,,,,,,,,,,,,,,,,,,,,,,,,,,,,,,,,,,,,,,,,,,,,,,,,,
,,,,,5b0e9af69663ee000145bc26,6682b41eeb79ab8215dff63d,6682ba8580c6972854304609,28,Male,English,2024-07-01_15h18.24.550,ABmemTask3,2023.2.3,Win32,74.96251874,,,,,,,,,,,,,,,,,,,,,,,,,,,,,,,582.182,583.181,583.182,9,583.674,585.236,0.003,585.355,0.119,0.119,0.121,0.119,0.12,0.121,0.123,0.118,0.119,0.12,0.12,585.356,586.356,left,0.983,,586.356,587.303,left,0.943,,2,0,12,587.303,588.303,,,,,,1_AB,L5_T1A_T2P,5,0,1,4,9,3,5,14,lemon,Did you see the lemon,0.12,0,resources/,pics/seaturtle.jpg,pics/lightswitch01.jpg,pics/candle01.jpg,pics/cannon.jpg,pics/seagull.jpg,pics/spoon01.jpg,pics/spiderweb.jpg,pics/sewingmachine01a.jpg,pics/stapler05.jpg,pics/binoculars01b.jpg,pics/zebra.jpg,pics/sealion.jpg,pics/shovel01.jpg,pics/wheel01.jpg,blankImage,blankImage,blankImage,lemon02,56,0.121,0.119,,,,,,,,,,,,,,,,,,,,,,,,,,,,,,,,,,,,,,,0,5,5,55,1,,,,,,,,,,,,,,,,,,,,,,,,,,,,,,,,,,,,,,,,,,,,,,,,,,,,,,,
,,,,,5b0e9af69663ee000145bc26,6682b41eeb79ab8215dff63d,6682ba8580c6972854304609,28,Male,English,2024-07-01_15h18.24.550,ABmemTask3,2023.2.3,Win32,74.96251874,,,,,,,,,,,,,,,,,,,,,,,,,,,,,,,588.305,589.304,589.304,9,589.797,591.598,0.002,591.717,0.12,0.119,0.12,0.12,0.121,0.119,0.121,0.119,0.12,0.121,0.119,591.718,592.385,right,0.651,,592.385,593.425,left,1.028,,4,0,14,593.425,594.425,,,,,,1_AB,L5_T1P_T2A,5,1,0,6,11,5,5,16,belt,Did you see the belt,0.12,0,resources/,pics/banjo.jpg,pics/birdhouse.jpg,pics/spoon01.jpg,pics/table01.jpg,pics/candle01.jpg,pics/belt02a.jpg,pics/peach01.jpg,pics/chainsaw.jpg,pics/toiletpaper01a.jpg,pics/proboscismonkey.jpg,pics/cymbal.jpg,pics/binoculars01b.jpg,pics/cannon.jpg,pics/noparkingsign.jpg,pics/sailboat.jpg,pics/carrot01.jpg,blankImage,belt02a,61,0.12,0.121,0.12,,,,,,,,,,,,,,,,,,,,,,,,,,,,,,,,,,,,,,0,6,6,60,1,0.119,,,,,,,,,,,,,,,,,,,,,,,,,,,,,,,,,,,,,,,,,,,,,,,,,,,,,,
,,,,,5b0e9af69663ee000145bc26,6682b41eeb79ab8215dff63d,6682ba8580c6972854304609,28,Male,English,2024-07-01_15h18.24.550,ABmemTask3,2023.2.3,Win32,74.96251874,,,,,,,,,,,,,,,,,,,,,,,,,,,,,,,594.426,595.426,595.426,9,595.92,597.481,0.002,597.6,0.118,0.12,0.121,0.119,0.12,0.12,0.12,0.12,0.12,0.12,0.12,597.6,598.934,right,1.322,,598.934,599.814,left,0.869,,6,0,16,599.815,600.815,,,,,,1_AB,L5_T1P_T2A,5,1,0,4,9,3,5,14,Frisbee,Did you see the Frisbee,0.12,0,resources/,pics/giraffe.jpg,pics/christmaslights.jpg,pics/bowtie.jpg,pics/frisbee.jpg,pics/banjo.jpg,pics/calendar.jpg,pics/butterfly.jpg,pics/onion.jpg,pics/starfish01.jpg,pics/footballhelmet.jpg,pics/blender.jpg,pics/candleholder01.jpg,pics/hairdryer02a.jpg,pics/dromedary.jpg,blankImage,blankImage,blankImage,frisbee,58,0.12,0.12,,,,,,,,,,,,,,,,,,,,,,,,,,,,,,,,,,,,,,,0,7,7,57,1,,,,,,,,,,,,,,,,,,,,,,,,,,,,,,,,,,,,,,,,,,,,,,,,,,,,,,,
,,,,,5b0e9af69663ee000145bc26,6682b41eeb79ab8215dff63d,6682ba8580c6972854304609,28,Male,English,2024-07-01_15h18.24.550,ABmemTask3,2023.2.3,Win32,74.96251874,,,,,,,,,,,,,,,,,,,,,,,,,,,,,,,600.816,601.815,601.815,9,602.309,603.749,0.001,603.869,0.119,0.12,0.12,0.12,0.12,0.121,0.119,0.12,0.121,0.12,0.12,603.869,605.029,left,1.148,,605.03,606.203,right,1.16,,8,0,18,606.204,607.204,,,,,,1_AB,L1_T1A_T2P,1,0,1,7,8,6,5,13,statue,Did you see the statue,0.12,0,resources/,pics/giraffe.jpg,pics/seaturtle.jpg,pics/peach01.jpg,pics/boot02b.jpg,pics/backpack01a.jpg,pics/sandbarshark.jpg,pics/microscope.jpg,pics/stapler07.jpg,pics/snowshoe.jpg,pics/laptop01a.jpg,pics/necklace.jpg,pics/zebra.jpg,pics/carrot01.jpg,blankImage,blankImage,blankImage,blankImage,statue,27,0.12,,,,,,,,,,,,,,,,,,,,,,,,,,,,,,,,,,,,,,,,0,8,8,26,1,,,,,,,,,,,,,,,,,,,,,,,,,,,,,,,,,,,,,,,,,,,,,,,,,,,,,,,
,,,,,5b0e9af69663ee000145bc26,6682b41eeb79ab8215dff63d,6682ba8580c6972854304609,28,Male,English,2024-07-01_15h18.24.550,ABmemTask3,2023.2.3,Win32,74.96251874,,,,,,,,,,,,,,,,,,,,,,,,,,,,,,,607.205,608.204,608.205,9,608.698,610.138,0.003,610.258,0.118,0.121,0.12,0.119,0.12,0.121,0.12,0.119,0.12,0.121,0.12,610.258,611.151,right,0.879,,611.151,612.219,right,1.055,,10,0,20,612.219,613.219,,,,,,1_AB,L1_T1P_T2P,1,1,1,7,8,6,5,13,strawberry,Did you see the strawberry,0.12,0,resources/,pics/sealion.jpg,pics/backpack01a.jpg,pics/binoculars01b.jpg,pics/ball02.jpg,pics/proboscismonkey.jpg,pics/pictureframe04.jpg,pics/strawberry.jpg,pics/stapler12.jpg,pics/seaturtle.jpg,pics/dustpan.jpg,pics/bowlingpin.jpg,pics/hammerheadshark.jpg,pics/hen.jpg,blankImage,blankImage,blankImage,blankImage,strawberry,10,0.119,,,,,,,,,,,,,,,,,,,,,,,,,,,,,,,,,,,,,,,,0,9,9,9,1,,,,,,,,,,,,,,,,,,,,,,,,,,,,,,,,,,,,,,,,,,,,,,,,,,,,,,,
,,,,,5b0e9af69663ee000145bc26,6682b41eeb79ab8215dff63d,6682ba8580c6972854304609,28,Male,English,2024-07-01_15h18.24.550,ABmemTask3,2023.2.3,Win32,74.96251874,,,,,,,,,,,,,,,,,,,,,,,,,,,,,,,613.22,614.22,614.22,9,614.713,615.674,0.002,615.793,0.119,0.119,0.122,0.119,0.12,0.121,0.119,0.12,,,,615.794,616.567,right,0.767,,616.568,617.528,right,0.948,,12,0,22,617.528,618.529,,,,,,1_AB,L1_T1P_T2P,1,1,1,4,5,3,4,9,antenna,Did you see the antenna,0.12,0,resources/,pics/microscope.jpg,pics/spoon01.jpg,pics/dromedary.jpg,pics/antenna.jpg,pics/stapler03.jpg,pics/hen.jpg,pics/leaf02a.jpg,pics/candle01.jpg,pics/sealion.jpg,blankImage,blankImage,blankImage,blankImage,blankImage,blankImage,blankImage,blankImage,antenna,9,,,,,,,,,,,,,,,,,,,,,,,,,,,,,,,,,,,,,,,,,0,10,10,8,1,,,,,,,,,,,,,,,,,,,,,,,,,,,,,,,,,,,,,,,,,,,,,,,,,,,,,,,
,,,,,5b0e9af69663ee000145bc26,6682b41eeb79ab8215dff63d,6682ba8580c6972854304609,28,Male,English,2024-07-01_15h18.24.550,ABmemTask3,2023.2.3,Win32,74.96251874,,,,,,,,,,,,,,,,,,,,,,,,,,,,,,,618.531,619.528,619.529,9,620.022,621.343,0.004,621.462,0.118,0.118,0.121,0.12,0.119,0.121,0.12,0.12,0.12,0.12,0.121,621.462,622.17,right,0.691,,622.17,623.144,right,0.961,,14,0,24,623.144,624.144,,,,,,1_AB,L1_T1P_T2P,1,1,1,6,7,5,5,12,jeep,Did you see the jeep,0.12,0,resources/,pics/sandbarshark.jpg,pics/laptop01a.jpg,pics/peach01.jpg,pics/binoculars01b.jpg,pics/giraffe.jpg,pics/jeep.jpg,pics/stapler03b.jpg,pics/fanblades.jpg,pics/cannon.jpg,pics/starfish01.jpg,pics/piggybank.jpg,pics/noparkingsign.jpg,blankImage,blankImage,blankImage,blankImage,blankImage,jeep,2,,,,,,,,,,,,,,,,,,,,,,,,,,,,,,,,,,,,,,,,,0,11,11,1,1,,,,,,,,,,,,,,,,,,,,,,,,,,,,,,,,,,,,,,,,,,,,,,,,,,,,,,,
,,,,,5b0e9af69663ee000145bc26,6682b41eeb79ab8215dff63d,6682ba8580c6972854304609,28,Male,English,2024-07-01_15h18.24.550,ABmemTask3,2023.2.3,Win32,74.96251874,,,,,,,,,,,,,,,,,,,,,,,,,,,,,,,624.144,625.144,625.145,9,625.637,626.838,0.002,626.958,0.119,0.121,0.119,0.12,0.12,0.12,0.121,0.12,0.119,0.12,,626.958,627.852,right,0.882,,627.852,628.705,left,0.839,,16,0,26,628.706,629.705,,,,,,1_AB,L1_T1P_T2A,1,1,0,7,8,6,3,11,Spear,Did you see the Spear,0.12,0,resources/,pics/butterfly.jpg,pics/banjo.jpg,pics/chainsaw.jpg,pics/christmaslights.jpg,pics/dustpan.jpg,pics/shovel01.jpg,pics/spear02.jpg,pics/table01.jpg,pics/starfish01.jpg,pics/bowlingpin.jpg,pics/carrot01.jpg,blankImage,blankImage,blankImage,blankImage,blankImage,blankImage,spear02,39,,,,,,,,,,,,,,,,,,,,,,,,,,,,,,,,,,,,,,,,,0,12,12,38,1,,,,,,,,,,,,,,,,,,,,,,,,,,,,,,,,,,,,,,,,,,,,,,,,,,,,,,,
,,,,,5b0e9af69663ee000145bc26,6682b41eeb79ab8215dff63d,6682ba8580c6972854304609,28,Male,English,2024-07-01_15h18.24.550,ABmemTask3,2023.2.3,Win32,74.96251874,,,,,,,,,,,,,,,,,,,,,,,,,,,,,,,629.706,630.706,630.707,9,631.199,632.761,0.002,632.881,0.119,0.12,0.121,0.119,0.121,0.12,0.119,0.12,0.12,0.121,0.12,632.881,633.4,right,0.505,,633.401,634.361,right,0.955,,14,0,28,634.361,635.361,,,,,,1_AB,L5_T1P_T2A,5,1,0,6,11,5,3,14,Kiwi,Did you see the Kiwi,0.12,0,resources/,pics/candleholder01.jpg,pics/kangaroo.jpg,pics/banjo.jpg,pics/binoculars01b.jpg,pics/microscope.jpg,pics/kiwi03.jpg,pics/bowtie.jpg,pics/peanut01.jpg,pics/backpack01a.jpg,pics/zebra.jpg,pics/toiletpaper01a.jpg,pics/hen.jpg,pics/spoon01.jpg,pics/calendar.jpg,blankImage,blankImage,blankImage,kiwi03,59,0.12,0.12,,,,,,,,,,,,,,,,,,,,,,,,,,,,,,,,,,,,,,,0,13,13,58,1,,,,,,,,,,,,,,,,,,,,,,,,,,,,,,,,,,,,,,,,,,,,,,,,,,,,,,,
,,,,,5b0e9af69663ee000145bc26,6682b41eeb79ab8215dff63d,6682ba8580c6972854304609,28,Male,English,2024-07-01_15h18.24.550,ABmemTask3,2023.2.3,Win32,74.96251874,,,,,,,,,,,,,,,,,,,,,,,,,,,,,,,635.363,636.362,636.362,9,636.855,638.536,0.002,638.656,0.119,0.12,0.12,0.12,0.12,0.119,0.122,0.119,0.12,0.12,0.121,638.656,639.323,right,0.656,,639.323,640.456,right,1.127,,16,0,30,640.456,641.457,,,,,,1_AB,L5_T1P_T2P,5,1,1,5,10,4,5,15,dolphin,Did you see the dolphin,0.12,0,resources/,pics/banjo.jpg,pics/shipinabottle.jpg,pics/laptop01a.jpg,pics/onion.jpg,pics/dolphin01.jpg,pics/sink.jpg,pics/seaturtle.jpg,pics/butterfly.jpg,pics/hen.jpg,pics/stapler10.jpg,pics/proboscismonkey.jpg,pics/starfish01.jpg,pics/salmon.jpg,pics/spiderweb.jpg,pics/cymbal.jpg,blankImage,blankImage,dolphin01,49,0.119,0.12,0.121,,,,,,,,,,,,,,,,,,,,,,,,,,,,,,,,,,,,,,0,14,14,48,1,,,,,,,,,,,,,,,,,,,,,,,,,,,,,,,,,,,,,,,,,,,,,,,,,,,,,,,
,,,,,5b0e9af69663ee000145bc26,6682b41eeb79ab8215dff63d,6682ba8580c6972854304609,28,Male,English,2024-07-01_15h18.24.550,ABmemTask3,2023.2.3,Win32,74.96251874,,,,,,,,,,,,,,,,,,,,,,,,,,,,,,,641.458,642.458,642.458,9,642.951,643.911,0.002,644.031,0.119,0.12,0.119,0.12,0.121,0.12,0.119,0.12,,,,644.031,645.231,left,1.193,,645.232,646.258,right,1.014,,16,0,32,646.259,647.259,,,,,,1_AB,L1_T1P_T2P,1,1,1,4,5,3,4,9,Chefs hat,Did you see the Chefs hat,0.12,0,resources/,pics/sewingmachine01a.jpg,pics/icecube01.jpg,pics/fanblades.jpg,pics/chefshat.jpg,pics/stapler06.jpg,pics/ashtray01.jpg,pics/blender.jpg,pics/sandbarshark.jpg,pics/lock03a.jpg,blankImage,blankImage,blankImage,blankImage,blankImage,blankImage,blankImage,blankImage,chefshat,12,,,,,,,,,,,,,,,,,,,,,,,,,,,,,,,,,,,,,,,,,0,15,15,11,1,,,,,,,,,,,,,,,,,,,,,,,,,,,,,,,,,,,,,,,,,,,,,,,,,,,,,,,
,,,,,5b0e9af69663ee000145bc26,6682b41eeb79ab8215dff63d,6682ba8580c6972854304609,28,Male,English,2024-07-01_15h18.24.550,ABmemTask3,2023.2.3,Win32,74.96251874,,,,,,,,,,,,,,,,,,,,,,,,,,,,,,,647.26,648.259,648.259,9,648.753,650.314,0.003,650.434,0.118,0.12,0.12,0.12,0.12,0.12,0.12,0.12,0.121,0.119,0.12,650.434,651.274,right,0.829,,651.274,652.235,right,0.948,,18,0,34,652.235,653.235,,,,,,1_AB,L5_T1P_T2P,5,1,1,4,9,3,5,14,asparagus,Did you see the asparagus,0.12,0,resources/,pics/siamesecat.jpg,pics/starfish01.jpg,pics/aquarium.jpg,pics/asparagus.jpg,pics/salmon.jpg,pics/binoculars01b.jpg,pics/ball02.jpg,pics/calendar.jpg,pics/stapler10.jpg,pics/giraffe.jpg,pics/dromedary.jpg,pics/seaturtle.jpg,pics/sandbarshark.jpg,pics/shipinabottle.jpg,blankImage,blankImage,blankImage,asparagus,44,0.12,0.12,,,,,,,,,,,,,,,,,,,,,,,,,,,,,,,,,,,,,,,0,16,16,43,1,,,,,,,,,,,,,,,,,,,,,,,,,,,,,,,,,,,,,,,,,,,,,,,,,,,,,,,
,,,,,5b0e9af69663ee000145bc26,6682b41eeb79ab8215dff63d,6682ba8580c6972854304609,28,Male,English,2024-07-01_15h18.24.550,ABmemTask3,2023.2.3,Win32,74.96251874,,,,,,,,,,,,,,,,,,,,,,,,,,,,,,,653.238,654.235,654.235,9,654.729,655.929,0.004,656.049,0.119,0.119,0.12,0.12,0.119,0.12,0.121,0.12,0.12,0.119,,656.049,656.729,right,0.67,,656.729,657.65,right,0.913,,20,0,36,657.65,658.65,,,,,,1_AB,L1_T1P_T2P,1,1,1,7,8,6,3,11,sock,Did you see the sock,0.12,0,resources/,pics/hen.jpg,pics/christmaslights.jpg,pics/salmon.jpg,pics/sealion.jpg,pics/seaturtle.jpg,pics/giraffe.jpg,pics/athleticsock.jpg,pics/stapler01.jpg,pics/shovel01.jpg,pics/leaf02a.jpg,pics/backpack01a.jpg,blankImage,blankImage,blankImage,blankImage,blankImage,blankImage,athleticsock,11,,,,,,,,,,,,,,,,,,,,,,,,,,,,,,,,,,,,,,,,,0,17,17,10,1,,,,,,,,,,,,,,,,,,,,,,,,,,,,,,,,,,,,,,,,,,,,,,,,,,,,,,,
,,,,,5b0e9af69663ee000145bc26,6682b41eeb79ab8215dff63d,6682ba8580c6972854304609,28,Male,English,2024-07-01_15h18.24.550,ABmemTask3,2023.2.3,Win32,74.96251874,,,,,,,,,,,,,,,,,,,,,,,,,,,,,,,658.652,659.651,659.651,9,660.143,661.105,0.002,661.224,0.12,0.12,0.12,0.12,0.12,0.12,0.12,0.12,,,,661.224,662.078,right,0.84,,662.078,663.025,right,0.934,,18,0,38,663.025,664.025,,,,,,1_AB,L1_T1P_T2A,1,1,0,4,5,3,4,9,blueberry,Did you see the blueberry,0.12,0,resources/,pics/sealion.jpg,pics/piggybank.jpg,pics/sink.jpg,pics/blueberry01.jpg,pics/onion.jpg,pics/sailboat.jpg,pics/seaturtle.jpg,pics/hen.jpg,pics/fanblades.jpg,blankImage,blankImage,blankImage,blankImage,blankImage,blankImage,blankImage,blankImage,blueberry01,35,,,,,,,,,,,,,,,,,,,,,,,,,,,,,,,,,,,,,,,,,0,18,18,34,1,,,,,,,,,,,,,,,,,,,,,,,,,,,,,,,,,,,,,,,,,,,,,,,,,,,,,,,
,,,,,5b0e9af69663ee000145bc26,6682b41eeb79ab8215dff63d,6682ba8580c6972854304609,28,Male,English,2024-07-01_15h18.24.550,ABmemTask3,2023.2.3,Win32,74.96251874,,,,,,,,,,,,,,,,,,,,,,,,,,,,,,,664.026,665.027,665.027,9,665.519,666.72,0.002,666.839,0.119,0.12,0.12,0.12,0.121,0.119,0.12,0.12,0.12,0.121,,666.839,667.88,left,1.033,,667.881,668.867,right,0.974,,20,0,40,668.867,669.868,,,,,,1_AB,L1_T1A_T2P,1,0,1,7,8,6,3,11,turkey,Did you see the turkey,0.12,0,resources/,pics/proboscismonkey.jpg,pics/blender.jpg,pics/sealion.jpg,pics/snowshoe.jpg,pics/carrot01.jpg,pics/microscope.jpg,pics/piggybank.jpg,pics/stapler12.jpg,pics/peanut01.jpg,pics/dustpan.jpg,pics/footballhelmet.jpg,blankImage,blankImage,blankImage,blankImage,blankImage,blankImage,turkey,26,,,,,,,,,,,,,,,,,,,,,,,,,,,,,,,,,,,,,,,,,0,19,19,25,1,,,,,,,,,,,,,,,,,,,,,,,,,,,,,,,,,,,,,,,,,,,,,,,,,,,,,,,
,,,,,5b0e9af69663ee000145bc26,6682b41eeb79ab8215dff63d,6682ba8580c6972854304609,28,Male,English,2024-07-01_15h18.24.550,ABmemTask3,2023.2.3,Win32,74.96251874,,,,,,,,,,,,,,,,,,,,,,,,,,,,,,,669.869,670.868,670.868,9,671.361,672.563,0.002,672.682,0.12,0.12,0.119,0.12,0.121,0.12,0.12,0.119,0.121,0.12,,672.682,673.882,left,1.191,,673.882,675.123,right,1.226,,18,0,42,675.123,676.123,,,,,,1_AB,L1_T1A_T2A,1,0,0,7,8,6,3,11,Poker chips,Did you see the Poker chips,0.12,0,resources/,pics/candle01.jpg,pics/proboscismonkey.jpg,pics/fanblades.jpg,pics/dromedary.jpg,pics/aquarium.jpg,pics/salmon.jpg,pics/hose.jpg,pics/kangaroo.jpg,pics/noparkingsign.jpg,pics/carrot01.jpg,pics/leaf02a.jpg,blankImage,blankImage,blankImage,blankImage,blankImage,blankImage,pokerchips,41,,,,,,,,,,,,,,,,,,,,,,,,,,,,,,,,,,,,,,,,,0,20,20,40,1,,,,,,,,,,,,,,,,,,,,,,,,,,,,,,,,,,,,,,,,,,,,,,,,,,,,,,,
,,,,,5b0e9af69663ee000145bc26,6682b41eeb79ab8215dff63d,6682ba8580c6972854304609,28,Male,English,2024-07-01_15h18.24.550,ABmemTask3,2023.2.3,Win32,74.96251874,,,,,,,,,,,,,,,,,,,,,,,,,,,,,,,676.124,677.123,677.124,9,677.618,678.938,0.002,679.057,0.119,0.119,0.12,0.121,0.119,0.12,0.12,0.121,0.12,0.12,0.119,679.058,680.112,left,1.047,,680.112,681.192,left,1.068,,16,0,44,681.192,682.192,,,,,,1_AB,L1_T1P_T2P,1,1,1,7,8,6,4,12,Turnstile,Did you see the Turnstile,0.12,0,resources/,pics/golfball.jpg,pics/hose.jpg,pics/siamesecat.jpg,pics/binoculars01b.jpg,pics/hen.jpg,pics/candleholder01.jpg,pics/turnstile.jpg,pics/stapler03a.jpg,pics/giraffe.jpg,pics/pictureframe04.jpg,pics/sandbarshark.jpg,pics/spoon01.jpg,blankImage,blankImage,blankImage,blankImage,blankImage,turnstile,13,,,,,,,,,,,,,,,,,,,,,,,,,,,,,,,,,,,,,,,,,0,21,21,12,1,,,,,,,,,,,,,,,,,,,,,,,,,,,,,,,,,,,,,,,,,,,,,,,,,,,,,,,
,,,,,5b0e9af69663ee000145bc26,6682b41eeb79ab8215dff63d,6682ba8580c6972854304609,28,Male,English,2024-07-01_15h18.24.550,ABmemTask3,2023.2.3,Win32,74.96251874,,,,,,,,,,,,,,,,,,,,,,,,,,,,,,,682.193,683.192,683.192,9,683.686,684.647,0.003,684.767,0.118,0.12,0.12,0.12,0.12,0.12,0.12,0.121,,,,684.767,685.821,left,1.041,,685.821,686.594,right,0.759,,14,0,46,686.595,687.594,,,,,,1_AB,L1_T1A_T2A,1,0,0,4,5,3,4,9,License Plate,Did you see the License Plate,0.12,0,resources/,pics/snowshoe.jpg,pics/kangaroo.jpg,pics/noparkingsign.jpg,pics/match.jpg,pics/hose.jpg,pics/blender.jpg,pics/ashtray01.jpg,pics/ball02.jpg,pics/sink.jpg,blankImage,blankImage,blankImage,blankImage,blankImage,blankImage,blankImage,blankImage,licenseplate,40,,,,,,,,,,,,,,,,,,,,,,,,,,,,,,,,,,,,,,,,,0,22,22,39,1,,,,,,,,,,,,,,,,,,,,,,,,,,,,,,,,,,,,,,,,,,,,,,,,,,,,,,,
,,,,,5b0e9af69663ee000145bc26,6682b41eeb79ab8215dff63d,6682ba8580c6972854304609,28,Male,English,2024-07-01_15h18.24.550,ABmemTask3,2023.2.3,Win32,74.96251874,,,,,,,,,,,,,,,,,,,,,,,,,,,,,,,687.597,688.594,688.595,9,689.089,690.409,0.002,690.529,0.119,0.119,0.12,0.121,0.12,0.12,0.12,0.119,0.121,0.12,0.119,690.529,691.623,right,1.087,,691.623,692.516,left,0.884,,14,0,48,692.516,693.516,,,,,,1_AB,L5_T1P_T2P,5,1,1,4,9,3,3,12,Sheep,Did you see the Sheep,0.12,0,resources/,pics/icecube01.jpg,pics/cymbal.jpg,pics/wheel01.jpg,pics/sheep.jpg,pics/starfish01.jpg,pics/safetypin.jpg,pics/siamesecat.jpg,pics/lock03a.jpg,pics/stapler01.jpg,pics/sink.jpg,pics/fanblades.jpg,pics/bowlingpin.jpg,blankImage,blankImage,blankImage,blankImage,blankImage,sheep,52,,,,,,,,,,,,,,,,,,,,,,,,,,,,,,,,,,,,,,,,,0,23,23,51,1,,,,,,,,,,,,,,,,,,,,,,,,,,,,,,,,,,,,,,,,,,,,,,,,,,,,,,,
,,,,,5b0e9af69663ee000145bc26,6682b41eeb79ab8215dff63d,6682ba8580c6972854304609,28,Male,English,2024-07-01_15h18.24.550,ABmemTask3,2023.2.3,Win32,74.96251874,,,,,,,,,,,,,,,,,,,,,,,,,,,,,,,693.517,694.517,694.517,9,695.011,696.331,0.002,696.451,0.119,0.119,0.12,0.12,0.121,0.12,0.119,0.12,0.121,0.12,0.119,696.451,697.077,right,0.615,,697.078,697.945,right,0.862,,16,0,50,697.945,698.945,,,,,,1_AB,L1_T1P_T2P,1,1,1,6,7,5,5,12,rope,Did you see the rope,0.12,0,resources/,pics/toiletpaper01a.jpg,pics/sewingmachine01a.jpg,pics/birdhouse.jpg,pics/sealion.jpg,pics/safetypin.jpg,pics/rope03.jpg,pics/stapler04.jpg,pics/binder03b.jpg,pics/ashtray01.jpg,pics/sandbarshark.jpg,pics/chainsaw.jpg,pics/nutcracker01.jpg,blankImage,blankImage,blankImage,blankImage,blankImage,rope03,4,,,,,,,,,,,,,,,,,,,,,,,,,,,,,,,,,,,,,,,,,0,24,24,3,1,,,,,,,,,,,,,,,,,,,,,,,,,,,,,,,,,,,,,,,,,,,,,,,,,,,,,,,
,,,,,5b0e9af69663ee000145bc26,6682b41eeb79ab8215dff63d,6682ba8580c6972854304609,28,Male,English,2024-07-01_15h18.24.550,ABmemTask3,2023.2.3,Win32,74.96251874,,,,,,,,,,,,,,,,,,,,,,,,,,,,,,,698.946,699.946,699.946,9,700.439,702,0.002,702.12,0.119,0.12,0.12,0.12,0.121,0.12,0.119,0.121,0.119,0.121,0.119,702.12,702.587,right,0.452,,702.587,703.494,right,0.897,,18,0,52,703.494,704.494,,,,,,1_AB,L5_T1P_T2P,5,1,1,5,10,4,4,14,Fox,Did you see the Fox,0.12,0,resources/,pics/hammerheadshark.jpg,pics/bowlingpin.jpg,pics/pictureframe04.jpg,pics/peanut01.jpg,pics/redfox.jpg,pics/cymbal.jpg,pics/spoon01.jpg,pics/banjo.jpg,pics/butterfly.jpg,pics/stapler11.jpg,pics/football.jpg,pics/safetypin.jpg,pics/triangle.jpg,pics/onion.jpg,blankImage,blankImage,blankImage,redfox,45,0.12,0.12,,,,,,,,,,,,,,,,,,,,,,,,,,,,,,,,,,,,,,,0,25,25,44,1,,,,,,,,,,,,,,,,,,,,,,,,,,,,,,,,,,,,,,,,,,,,,,,,,,,,,,,
,,,,,5b0e9af69663ee000145bc26,6682b41eeb79ab8215dff63d,6682ba8580c6972854304609,28,Male,English,2024-07-01_15h18.24.550,ABmemTask3,2023.2.3,Win32,74.96251874,,,,,,,,,,,,,,,,,,,,,,,,,,,,,,,704.495,705.495,705.495,9,705.988,707.068,0.002,707.189,0.118,0.121,0.119,0.12,0.12,0.12,0.12,0.119,0.12,,,707.189,708.575,left,1.379,,708.576,709.203,left,0.614,,18,0,54,709.203,710.203,,,,,,1_AB,L1_T1A_T2P,1,0,1,5,6,4,4,10,Rabbit,Did you see the Rabbit,0.12,0,resources/,pics/cannon.jpg,pics/proboscismonkey.jpg,pics/salmon.jpg,pics/nutcracker01.jpg,pics/seagull.jpg,pics/stapler02.jpg,pics/table01.jpg,pics/laptop01a.jpg,pics/necklace.jpg,pics/pencilsharpener02a.jpg,blankImage,blankImage,blankImage,blankImage,blankImage,blankImage,blankImage,jackrabbit,31,,,,,,,,,,,,,,,,,,,,,,,,,,,,,,,,,,,,,,,,,0,26,26,30,1,,,,,,,,,,,,,,,,,,,,,,,,,,,,,,,,,,,,,,,,,,,,,,,,,,,,,,,
,,,,,5b0e9af69663ee000145bc26,6682b41eeb79ab8215dff63d,6682ba8580c6972854304609,28,Male,English,2024-07-01_15h18.24.550,ABmemTask3,2023.2.3,Win32,74.96251874,,,,,,,,,,,,,,,,,,,,,,,,,,,,,,,710.204,711.203,711.204,9,711.697,713.498,0.002,713.618,0.119,0.12,0.12,0.12,0.121,0.119,0.12,0.12,0.121,0.119,0.12,713.618,714.298,right,0.67,,714.298,715.232,left,0.918,,20,0,56,715.232,716.232,,,,,,1_AB,L5_T1P_T2A,5,1,0,7,12,6,4,16,boat,Did you see the boat,0.12,0,resources/,pics/butterfly.jpg,pics/onion.jpg,pics/hose.jpg,pics/ball02.jpg,pics/ashtray01.jpg,pics/bowtie.jpg,pics/boat.jpg,pics/seaturtle.jpg,pics/blender.jpg,pics/zebra.jpg,pics/pictureframe04.jpg,pics/shovel01.jpg,pics/spoon01.jpg,pics/peanut01.jpg,pics/nutcracker01.jpg,pics/aquarium.jpg,blankImage,boat,60,0.12,0.121,0.12,,,,,,,,,,,,,,,,,,,,,,,,,,,,,,,,,,,,,,0,27,27,59,1,0.119,,,,,,,,,,,,,,,,,,,,,,,,,,,,,,,,,,,,,,,,,,,,,,,,,,,,,,
,,,,,5b0e9af69663ee000145bc26,6682b41eeb79ab8215dff63d,6682ba8580c6972854304609,28,Male,English,2024-07-01_15h18.24.550,ABmemTask3,2023.2.3,Win32,74.96251874,,,,,,,,,,,,,,,,,,,,,,,,,,,,,,,716.233,717.232,717.232,9,717.725,719.047,0.003,719.166,0.118,0.121,0.12,0.12,0.12,0.12,0.12,0.12,0.12,0.12,0.121,719.166,720.194,left,1.012,,720.195,720.928,right,0.723,,22,0,58,720.928,721.928,,,,,,1_AB,L5_T1A_T2P,5,0,1,4,9,3,3,12,rooster,Did you see the rooster,0.12,0,resources/,pics/table01.jpg,pics/icecube01.jpg,pics/dustpan.jpg,pics/lock03a.jpg,pics/sailboat.jpg,pics/salmon.jpg,pics/banjo.jpg,pics/zebra.jpg,pics/stapler09.jpg,pics/peach01.jpg,pics/chainsaw.jpg,pics/football.jpg,blankImage,blankImage,blankImage,blankImage,blankImage,rooster,55,,,,,,,,,,,,,,,,,,,,,,,,,,,,,,,,,,,,,,,,,0,28,28,54,1,,,,,,,,,,,,,,,,,,,,,,,,,,,,,,,,,,,,,,,,,,,,,,,,,,,,,,,
,,,,,5b0e9af69663ee000145bc26,6682b41eeb79ab8215dff63d,6682ba8580c6972854304609,28,Male,English,2024-07-01_15h18.24.550,ABmemTask3,2023.2.3,Win32,74.96251874,,,,,,,,,,,,,,,,,,,,,,,,,,,,,,,721.93,722.928,722.928,9,723.421,724.382,0.004,724.502,0.118,0.12,0.12,0.12,0.119,0.12,0.121,0.119,,,,724.502,726.209,right,1.698,,726.209,727.116,left,0.898,,22,0,60,727.116,728.116,,,,,,1_AB,L1_T1P_T2P,1,1,1,5,6,4,3,9,paint brush,Did you see the paint brush,0.12,0,resources/,pics/nutcracker01.jpg,pics/piggybank.jpg,pics/spiderweb.jpg,pics/table01.jpg,pics/paintbrush01.jpg,pics/stapler09.jpg,pics/hose.jpg,pics/cannon.jpg,pics/mummy.jpg,blankImage,blankImage,blankImage,blankImage,blankImage,blankImage,blankImage,blankImage,paintbrush01,20,,,,,,,,,,,,,,,,,,,,,,,,,,,,,,,,,,,,,,,,,0,29,29,19,1,,,,,,,,,,,,,,,,,,,,,,,,,,,,,,,,,,,,,,,,,,,,,,,,,,,,,,,
,,,,,5b0e9af69663ee000145bc26,6682b41eeb79ab8215dff63d,6682ba8580c6972854304609,28,Male,English,2024-07-01_15h18.24.550,ABmemTask3,2023.2.3,Win32,74.96251874,,,,,,,,,,,,,,,,,,,,,,,,,,,,,,,728.117,729.117,729.117,9,729.61,731.172,0.002,731.291,0.12,0.12,0.119,0.12,0.12,0.12,0.119,0.12,0.121,0.12,0.12,731.291,732.025,right,0.724,,732.025,732.772,left,0.737,,22,0,62,732.772,733.772,,,,,,1_AB,L5_T1P_T2P,5,1,1,4,9,3,5,14,pliers,Did you see the pliers,0.12,0,resources/,pics/calendar.jpg,pics/footballhelmet.jpg,pics/seaturtle.jpg,pics/pliers02b.jpg,pics/wheel01.jpg,pics/cannon.jpg,pics/proboscismonkey.jpg,pics/shovel01.jpg,pics/stapler06.jpg,pics/football.jpg,pics/hose.jpg,pics/dustpan.jpg,pics/spiderweb.jpg,pics/golfball.jpg,blankImage,blankImage,blankImage,pliers02b,48,0.119,0.121,,,,,,,,,,,,,,,,,,,,,,,,,,,,,,,,,,,,,,,0,30,30,47,1,,,,,,,,,,,,,,,,,,,,,,,,,,,,,,,,,,,,,,,,,,,,,,,,,,,,,,,
,,,,,5b0e9af69663ee000145bc26,6682b41eeb79ab8215dff63d,6682ba8580c6972854304609,28,Male,English,2024-07-01_15h18.24.550,ABmemTask3,2023.2.3,Win32,74.96251874,,,,,,,,,,,,,,,,,,,,,,,,,,,,,,,733.773,734.773,734.773,9,735.266,736.707,0.002,736.827,0.119,0.12,0.12,0.12,0.12,0.12,0.12,0.12,0.12,0.121,0.119,736.827,737.28,right,0.437,,737.28,738.16,right,0.867,,24,0,64,738.16,739.161,,,,,,1_AB,L5_T1P_T2P,5,1,1,4,9,3,4,13,Forklift,Did you see the Forklift,0.12,0,resources/,pics/dustpan.jpg,pics/table01.jpg,pics/sink.jpg,pics/forklift.jpg,pics/dromedary.jpg,pics/proboscismonkey.jpg,pics/cymbal.jpg,pics/shovel01.jpg,pics/stapler10.jpg,pics/backpack01a.jpg,pics/binder03b.jpg,pics/banjo.jpg,pics/candleholder01.jpg,blankImage,blankImage,blankImage,blankImage,forklift,47,0.12,,,,,,,,,,,,,,,,,,,,,,,,,,,,,,,,,,,,,,,,0,31,31,46,1,,,,,,,,,,,,,,,,,,,,,,,,,,,,,,,,,,,,,,,,,,,,,,,,,,,,,,,
,,,,,5b0e9af69663ee000145bc26,6682b41eeb79ab8215dff63d,6682ba8580c6972854304609,28,Male,English,2024-07-01_15h18.24.550,ABmemTask3,2023.2.3,Win32,74.96251874,,,,,,,,,,,,,,,,,,,,,,,,,,,,,,,739.162,740.161,740.161,9,740.654,741.735,0.003,741.855,0.118,0.121,0.12,0.119,0.12,0.121,0.12,0.12,0.12,,,741.855,743.549,left,1.683,,743.549,744.456,left,0.894,,24,0,66,744.456,745.457,,,,,,1_AB,L1_T1A_T2P,1,0,1,5,6,4,4,10,button,Did you see the button,0.12,0,resources/,pics/pencil01.jpg,pics/necklace.jpg,pics/sink.jpg,pics/noparkingsign.jpg,pics/banjo.jpg,pics/stapler03b.jpg,pics/candle01.jpg,pics/icecube01.jpg,pics/shovel01.jpg,pics/pencilsharpener02a.jpg,blankImage,blankImage,blankImage,blankImage,blankImage,blankImage,blankImage,button01,25,,,,,,,,,,,,,,,,,,,,,,,,,,,,,,,,,,,,,,,,,0,32,32,24,1,,,,,,,,,,,,,,,,,,,,,,,,,,,,,,,,,,,,,,,,,,,,,,,,,,,,,,,
,,,,,5b0e9af69663ee000145bc26,6682b41eeb79ab8215dff63d,6682ba8580c6972854304609,28,Male,English,2024-07-01_15h18.24.550,ABmemTask3,2023.2.3,Win32,74.96251874,,,,,,,,,,,,,,,,,,,,,,,,,,,,,,,745.458,746.457,746.457,9,746.95,747.791,0.002,747.911,0.12,0.119,0.12,0.12,0.12,0.12,0.12,,,,,747.911,749.671,left,1.754,,749.672,750.325,left,0.641,,24,0,68,750.325,751.325,,,,,,1_AB,L1_T1A_T2P,1,0,1,4,5,3,3,8,Parking meter,Did you see the Parking meter,0.12,0,resources/,pics/leaf02a.jpg,pics/carrot01.jpg,pics/sink.jpg,pics/butterfly.jpg,pics/stapler10.jpg,pics/pictureframe04.jpg,pics/spiderweb.jpg,pics/icecube01.jpg,blankImage,blankImage,blankImage,blankImage,blankImage,blankImage,blankImage,blankImage,blankImage,parkingmeter,30,,,,,,,,,,,,,,,,,,,,,,,,,,,,,,,,,,,,,,,,,0,33,33,29,1,,,,,,,,,,,,,,,,,,,,,,,,,,,,,,,,,,,,,,,,,,,,,,,,,,,,,,,
,,,,,5b0e9af69663ee000145bc26,6682b41eeb79ab8215dff63d,6682ba8580c6972854304609,28,Male,English,2024-07-01_15h18.24.550,ABmemTask3,2023.2.3,Win32,74.96251874,,,,,,,,,,,,,,,,,,,,,,,,,,,,,,,751.326,752.326,752.326,9,752.819,754.021,0.002,754.14,0.119,0.121,0.122,0.118,0.119,0.119,0.12,0.121,0.12,0.12,,754.141,754.753,right,0.603,,754.754,755.368,right,0.61,,26,0,70,755.368,756.368,,,,,,1_AB,L1_T1P_T2P,1,1,1,7,8,6,3,11,Eiffel tower,Did you see the Eiffel tower,0.12,0,resources/,pics/seagull.jpg,pics/cymbal.jpg,pics/match.jpg,pics/binoculars01b.jpg,pics/ball02.jpg,pics/onion.jpg,pics/eiffeltower.jpg,pics/stapler11.jpg,pics/peach01.jpg,pics/sandbarshark.jpg,pics/boot02b.jpg,blankImage,blankImage,blankImage,blankImage,blankImage,blankImage,eiffeltower,1,,,,,,,,,,,,,,,,,,,,,,,,,,,,,,,,,,,,,,,,,0,34,34,0,1,,,,,,,,,,,,,,,,,,,,,,,,,,,,,,,,,,,,,,,,,,,,,,,,,,,,,,,
,,,,,5b0e9af69663ee000145bc26,6682b41eeb79ab8215dff63d,6682ba8580c6972854304609,28,Male,English,2024-07-01_15h18.24.550,ABmemTask3,2023.2.3,Win32,74.96251874,,,,,,,,,,,,,,,,,,,,,,,,,,,,,,,756.369,757.368,757.368,9,757.861,759.183,0.003,759.301,0.119,0.119,0.12,0.12,0.12,0.121,0.119,0.12,0.12,0.121,0.121,759.302,759.849,right,0.538,,759.849,760.769,right,0.914,,28,0,72,760.769,761.77,,,,,,1_AB,L1_T1P_T2P,1,1,1,7,8,6,4,12,hammer,Did you see the hammer,0.12,0,resources/,pics/microscope.jpg,pics/blender.jpg,pics/dustpan.jpg,pics/snowshoe.jpg,pics/mummy.jpg,pics/bowtie.jpg,pics/hammer01.jpg,pics/stapler04b.jpg,pics/seaturtle.jpg,pics/candle01.jpg,pics/necklace.jpg,pics/cannon.jpg,blankImage,blankImage,blankImage,blankImage,blankImage,hammer01,21,,,,,,,,,,,,,,,,,,,,,,,,,,,,,,,,,,,,,,,,,0,35,35,20,1,,,,,,,,,,,,,,,,,,,,,,,,,,,,,,,,,,,,,,,,,,,,,,,,,,,,,,,
,,,,,5b0e9af69663ee000145bc26,6682b41eeb79ab8215dff63d,6682ba8580c6972854304609,28,Male,English,2024-07-01_15h18.24.550,ABmemTask3,2023.2.3,Win32,74.96251874,,,,,,,,,,,,,,,,,,,,,,,,,,,,,,,761.771,762.77,762.77,9,763.263,764.464,0.002,764.584,0.119,0.121,0.118,0.122,0.119,0.12,0.121,0.12,0.119,0.12,,764.584,765.171,right,0.577,,765.171,765.744,right,0.569,,30,0,74,765.744,766.744,,,,,,1_AB,L1_T1P_T2P,1,1,1,7,8,6,3,11,pliers,Did you see the pliers,0.12,0,resources/,pics/mummy.jpg,pics/binder03b.jpg,pics/bowtie.jpg,pics/toiletpaper01a.jpg,pics/football.jpg,pics/blender.jpg,pics/needlenosepliers01.jpg,pics/stapler13.jpg,pics/zebra.jpg,pics/hammerheadshark.jpg,pics/sealion.jpg,blankImage,blankImage,blankImage,blankImage,blankImage,blankImage,needlenosepliers01,6,,,,,,,,,,,,,,,,,,,,,,,,,,,,,,,,,,,,,,,,,0,36,36,5,1,,,,,,,,,,,,,,,,,,,,,,,,,,,,,,,,,,,,,,,,,,,,,,,,,,,,,,,
,,,,,5b0e9af69663ee000145bc26,6682b41eeb79ab8215dff63d,6682ba8580c6972854304609,28,Male,English,2024-07-01_15h18.24.550,ABmemTask3,2023.2.3,Win32,74.96251874,,,,,,,,,,,,,,,,,,,,,,,,,,,,,,,766.746,767.745,767.745,9,768.239,769.8,0.002,769.919,0.118,0.12,0.12,0.12,0.121,0.12,0.12,0.119,0.121,0.12,0.119,769.919,770.359,right,0.425,,770.36,770.88,right,0.516,,32,0,76,770.88,771.88,,,,,,1_AB,L5_T1P_T2P,5,1,1,6,11,5,3,14,mail box,Did you see the mail box,0.12,0,resources/,pics/pictureframe04.jpg,pics/seaturtle.jpg,pics/blender.jpg,pics/carrot01.jpg,pics/nutcracker01.jpg,pics/mailbox02.jpg,pics/seagull.jpg,pics/sink.jpg,pics/siamesecat.jpg,pics/spiderweb.jpg,pics/stapler08.jpg,pics/safetypin.jpg,pics/candle01.jpg,pics/mummy.jpg,blankImage,blankImage,blankImage,mailbox02,43,0.12,0.121,,,,,,,,,,,,,,,,,,,,,,,,,,,,,,,,,,,,,,,0,37,37,42,1,,,,,,,,,,,,,,,,,,,,,,,,,,,,,,,,,,,,,,,,,,,,,,,,,,,,,,,
,,,,,5b0e9af69663ee000145bc26,6682b41eeb79ab8215dff63d,6682ba8580c6972854304609,28,Male,English,2024-07-01_15h18.24.550,ABmemTask3,2023.2.3,Win32,74.96251874,,,,,,,,,,,,,,,,,,,,,,,,,,,,,,,771.881,772.881,772.881,9,773.374,774.575,0.002,774.694,0.118,0.121,0.12,0.12,0.12,0.12,0.12,0.12,0.12,0.12,,774.695,775.414,right,0.714,,775.414,776.041,left,0.621,,32,0,78,776.041,777.042,,,,,,1_AB,L1_T1P_T2P,1,1,1,7,8,6,3,11,medal,Did you see the medal,0.12,0,resources/,pics/hen.jpg,pics/starfish01.jpg,pics/nutcracker01.jpg,pics/ball02.jpg,pics/fanblades.jpg,pics/christmaslights.jpg,pics/medal02b.jpg,pics/stapler09.jpg,pics/carrot01.jpg,pics/hammerheadshark.jpg,pics/sailboat.jpg,blankImage,blankImage,blankImage,blankImage,blankImage,blankImage,medal02b,19,,,,,,,,,,,,,,,,,,,,,,,,,,,,,,,,,,,,,,,,,0,38,38,18,1,,,,,,,,,,,,,,,,,,,,,,,,,,,,,,,,,,,,,,,,,,,,,,,,,,,,,,,
,,,,,5b0e9af69663ee000145bc26,6682b41eeb79ab8215dff63d,6682ba8580c6972854304609,28,Male,English,2024-07-01_15h18.24.550,ABmemTask3,2023.2.3,Win32,74.96251874,,,,,,,,,,,,,,,,,,,,,,,,,,,,,,,777.043,778.042,778.042,9,778.536,779.977,0.002,780.097,0.119,0.119,0.12,0.121,0.12,0.12,0.12,0.12,0.12,0.12,0.12,780.097,781.817,left,1.707,,781.817,782.418,right,0.586,,32,0,80,782.418,783.418,,,,,,1_AB,L1_T1P_T2P,1,1,1,7,8,6,5,13,Totem Pole,Did you see the Totem Pole,0.12,0,resources/,pics/laptop01a.jpg,pics/carrot01.jpg,pics/wheel01.jpg,pics/icecube01.jpg,pics/ashtray01.jpg,pics/lock03a.jpg,pics/totempole.jpg,pics/stapler08.jpg,pics/golfball.jpg,pics/pencil01.jpg,pics/banjo.jpg,pics/sandbarshark.jpg,pics/shipinabottle.jpg,blankImage,blankImage,blankImage,blankImage,totempole,22,0.12,,,,,,,,,,,,,,,,,,,,,,,,,,,,,,,,,,,,,,,,0,39,39,21,1,,,,,,,,,,,,,,,,,,,,,,,,,,,,,,,,,,,,,,,,,,,,,,,,,,,,,,,
,,,,,5b0e9af69663ee000145bc26,6682b41eeb79ab8215dff63d,6682ba8580c6972854304609,28,Male,English,2024-07-01_15h18.24.550,ABmemTask3,2023.2.3,Win32,74.96251874,,,,,,,,,,,,,,,,,,,,,,,,,,,,,,,783.42,784.418,784.418,9,784.911,785.992,0.003,786.112,0.119,0.119,0.12,0.121,0.119,0.12,0.121,0.12,0.119,,,786.112,786.779,right,0.658,,786.78,787.432,left,0.64,,34,0,82,787.433,788.433,,,,,,1_AB,L1_T1P_T2A,1,1,0,6,7,5,3,10,Electric toothbrush,Did you see the Electric toothbrush,0.12,0,resources/,pics/football.jpg,pics/sailboat.jpg,pics/cymbal.jpg,pics/hen.jpg,pics/pencil01.jpg,pics/electrictoothbrush01c.jpg,pics/bowlingpin.jpg,pics/wheel01.jpg,pics/birdhouse.jpg,pics/leaf02a.jpg,blankImage,blankImage,blankImage,blankImage,blankImage,blankImage,blankImage,electrictoothbrush01c,34,,,,,,,,,,,,,,,,,,,,,,,,,,,,,,,,,,,,,,,,,0,40,40,33,1,,,,,,,,,,,,,,,,,,,,,,,,,,,,,,,,,,,,,,,,,,,,,,,,,,,,,,,
,,,,,5b0e9af69663ee000145bc26,6682b41eeb79ab8215dff63d,6682ba8580c6972854304609,28,Male,English,2024-07-01_15h18.24.550,ABmemTask3,2023.2.3,Win32,74.96251874,,,,,,,,,,,,,,,,,,,,,,,,,,,,,,,788.436,789.433,789.433,9,789.927,791.488,0.003,791.608,0.12,0.118,0.12,0.12,0.12,0.12,0.12,0.121,0.12,0.119,0.12,791.608,792.02,right,0.4,,792.021,792.541,right,0.509,,36,0,84,792.541,793.541,,,,,,1_AB,L5_T1P_T2P,5,1,1,6,11,5,3,14,truck,Did you see the truck,0.12,0,resources/,pics/calendar.jpg,pics/mummy.jpg,pics/ashtray01.jpg,pics/pencilsharpener02a.jpg,pics/dustpan.jpg,pics/boxtruck.jpg,pics/lightswitch01.jpg,pics/pictureframe04.jpg,pics/starfish01.jpg,pics/zebra.jpg,pics/stapler12.jpg,pics/bowtie.jpg,pics/candleholder01.jpg,pics/candle01.jpg,blankImage,blankImage,blankImage,boxtruck,50,0.121,0.12,,,,,,,,,,,,,,,,,,,,,,,,,,,,,,,,,,,,,,,0,41,41,49,1,,,,,,,,,,,,,,,,,,,,,,,,,,,,,,,,,,,,,,,,,,,,,,,,,,,,,,,
,,,,,5b0e9af69663ee000145bc26,6682b41eeb79ab8215dff63d,6682ba8580c6972854304609,28,Male,English,2024-07-01_15h18.24.550,ABmemTask3,2023.2.3,Win32,74.96251874,,,,,,,,,,,,,,,,,,,,,,,,,,,,,,,793.542,794.542,794.542,9,795.036,796.117,0.002,796.236,0.118,0.12,0.119,0.121,0.12,0.119,0.121,0.119,0.121,,,796.236,796.956,right,0.71,,796.956,797.663,left,0.703,,36,0,86,797.663,798.664,,,,,,1_AB,L1_T1P_T2P,1,1,1,4,5,3,5,10,flute,Did you see the flute,0.12,0,resources/,pics/peach01.jpg,pics/seaturtle.jpg,pics/dromedary.jpg,pics/recorder01.jpg,pics/stapler08.jpg,pics/giraffe.jpg,pics/blender.jpg,pics/necklace.jpg,pics/sink.jpg,pics/dustpan.jpg,blankImage,blankImage,blankImage,blankImage,blankImage,blankImage,blankImage,recorder01,7,,,,,,,,,,,,,,,,,,,,,,,,,,,,,,,,,,,,,,,,,0,42,42,6,1,,,,,,,,,,,,,,,,,,,,,,,,,,,,,,,,,,,,,,,,,,,,,,,,,,,,,,,
,,,,,5b0e9af69663ee000145bc26,6682b41eeb79ab8215dff63d,6682ba8580c6972854304609,28,Male,English,2024-07-01_15h18.24.550,ABmemTask3,2023.2.3,Win32,74.96251874,,,,,,,,,,,,,,,,,,,,,,,,,,,,,,,798.665,799.664,799.664,9,800.158,801.238,0.002,801.357,0.118,0.121,0.119,0.12,0.12,0.12,0.121,0.12,0.119,,,801.357,801.851,right,0.478,,801.852,802.491,right,0.628,,38,0,88,802.492,803.492,,,,,,1_AB,L1_T1P_T2P,1,1,1,4,5,3,5,10,chair,Did you see the chair,0.12,0,resources/,pics/zebra.jpg,pics/floortile02.jpg,pics/cork02.jpg,pics/chair.jpg,pics/stapler07.jpg,pics/sealion.jpg,pics/shovel01.jpg,pics/piggybank.jpg,pics/candleholder01.jpg,pics/laptop01a.jpg,blankImage,blankImage,blankImage,blankImage,blankImage,blankImage,blankImage,chair,3,,,,,,,,,,,,,,,,,,,,,,,,,,,,,,,,,,,,,,,,,0,43,43,2,1,,,,,,,,,,,,,,,,,,,,,,,,,,,,,,,,,,,,,,,,,,,,,,,,,,,,,,,
,,,,,5b0e9af69663ee000145bc26,6682b41eeb79ab8215dff63d,6682ba8580c6972854304609,28,Male,English,2024-07-01_15h18.24.550,ABmemTask3,2023.2.3,Win32,74.96251874,,,,,,,,,,,,,,,,,,,,,,,,,,,,,,,803.494,804.492,804.492,9,804.986,806.667,0.002,806.786,0.119,0.12,0.12,0.12,0.12,0.12,0.12,0.12,0.12,0.12,0.12,806.787,807.16,right,0.366,,807.16,808.161,right,0.986,,40,0,90,808.161,809.161,,,,,,1_AB,L5_T1P_T2P,5,1,1,6,11,5,4,15,toast,Did you see the toast,0.12,0,resources/,pics/piggybank.jpg,pics/leaf02a.jpg,pics/carrot01.jpg,pics/birdhouse.jpg,pics/bowlingpin.jpg,pics/toast.jpg,pics/spiderweb.jpg,pics/cork02.jpg,pics/sink.jpg,pics/nutcracker01.jpg,pics/stapler02.jpg,pics/ashtray01.jpg,pics/fanblades.jpg,pics/pencil01.jpg,pics/lightswitch01.jpg,blankImage,blankImage,toast,46,0.12,0.121,0.12,,,,,,,,,,,,,,,,,,,,,,,,,,,,,,,,,,,,,,0,44,44,45,1,,,,,,,,,,,,,,,,,,,,,,,,,,,,,,,,,,,,,,,,,,,,,,,,,,,,,,,
,,,,,5b0e9af69663ee000145bc26,6682b41eeb79ab8215dff63d,6682ba8580c6972854304609,28,Male,English,2024-07-01_15h18.24.550,ABmemTask3,2023.2.3,Win32,74.96251874,,,,,,,,,,,,,,,,,,,,,,,,,,,,,,,809.163,810.161,810.161,9,810.655,811.856,0.002,811.976,0.119,0.119,0.121,0.12,0.12,0.12,0.12,0.12,0.12,0.12,,811.976,813.136,left,1.145,,813.136,813.95,left,0.804,,40,0,92,813.95,814.95,,,,,,1_AB,L1_T1A_T2P,1,0,1,5,6,4,5,11,Recorder,Did you see the Recorder,0.12,0,resources/,pics/bowtie.jpg,pics/nutcracker01.jpg,pics/hairdryer02a.jpg,pics/shovel01.jpg,pics/onion.jpg,pics/stapler13.jpg,pics/safetypin.jpg,pics/spiderweb.jpg,pics/seagull.jpg,pics/dustpan.jpg,pics/icecube01.jpg,blankImage,blankImage,blankImage,blankImage,blankImage,blankImage,recorder04,28,,,,,,,,,,,,,,,,,,,,,,,,,,,,,,,,,,,,,,,,,0,45,45,27,1,,,,,,,,,,,,,,,,,,,,,,,,,,,,,,,,,,,,,,,,,,,,,,,,,,,,,,,
,,,,,5b0e9af69663ee000145bc26,6682b41eeb79ab8215dff63d,6682ba8580c6972854304609,28,Male,English,2024-07-01_15h18.24.550,ABmemTask3,2023.2.3,Win32,74.96251874,,,,,,,,,,,,,,,,,,,,,,,,,,,,,,,814.951,815.95,815.95,9,816.443,818.125,0.003,818.244,0.119,0.12,0.119,0.12,0.121,0.12,0.119,0.121,0.12,0.12,0.12,818.244,819.698,left,1.444,,819.698,820.259,right,0.548,,42,0,94,820.259,821.259,,,,,,1_AB,L5_T1A_T2P,5,0,1,5,10,4,5,15,scorpion,Did you see the scorpion,0.12,0,resources/,pics/pictureframe04.jpg,pics/binder03b.jpg,pics/pencil01.jpg,pics/leaf02a.jpg,pics/icecube01.jpg,pics/dromedary.jpg,pics/toiletpaper01a.jpg,pics/peanut01.jpg,pics/golfball.jpg,pics/stapler03.jpg,pics/carrot01.jpg,pics/peach01.jpg,pics/sealion.jpg,pics/football.jpg,pics/zebra.jpg,blankImage,blankImage,scorpion,54,0.12,0.121,0.119,,,,,,,,,,,,,,,,,,,,,,,,,,,,,,,,,,,,,,0,46,46,53,1,,,,,,,,,,,,,,,,,,,,,,,,,,,,,,,,,,,,,,,,,,,,,,,,,,,,,,,
,,,,,5b0e9af69663ee000145bc26,6682b41eeb79ab8215dff63d,6682ba8580c6972854304609,28,Male,English,2024-07-01_15h18.24.550,ABmemTask3,2023.2.3,Win32,74.96251874,,,,,,,,,,,,,,,,,,,,,,,,,,,,,,,821.261,822.259,822.259,9,822.753,824.554,0.003,824.673,0.119,0.119,0.119,0.121,0.12,0.12,0.12,0.12,0.12,0.12,0.121,824.673,825.1,right,0.415,,825.1,825.847,right,0.735,,44,0,96,825.847,826.847,,,,,,1_AB,L5_T1P_T2P,5,1,1,6,11,5,5,16,cruise ship,Did you see the cruise ship,0.12,0,resources/,pics/seaturtle.jpg,pics/ashtray01.jpg,pics/pencil01.jpg,pics/fanblades.jpg,pics/triangle.jpg,pics/cruiseship.jpg,pics/wheel01.jpg,pics/dustpan.jpg,pics/starfish01.jpg,pics/banjo.jpg,pics/stapler12.jpg,pics/match.jpg,pics/cannon.jpg,pics/sandbarshark.jpg,pics/sink.jpg,pics/zebra.jpg,blankImage,cruiseship,51,0.12,0.119,0.12,,,,,,,,,,,,,,,,,,,,,,,,,,,,,,,,,,,,,,0,47,47,50,1,0.12,,,,,,,,,,,,,,,,,,,,,,,,,,,,,,,,,,,,,,,,,,,,,,,,,,,,,,
,,,,,5b0e9af69663ee000145bc26,6682b41eeb79ab8215dff63d,6682ba8580c6972854304609,28,Male,English,2024-07-01_15h18.24.550,ABmemTask3,2023.2.3,Win32,74.96251874,,,,,,,,,,,,,,,,,,,,,,,,,,,,,,,826.849,827.848,827.848,9,828.342,829.542,0.002,829.663,0.119,0.119,0.121,0.12,0.12,0.119,0.12,0.121,0.12,0.12,,829.663,830.369,right,0.691,,830.369,831.036,left,0.659,,46,0,98,831.036,832.037,,,,,,1_AB,L1_T1P_T2A,1,1,0,6,7,5,4,11,lamp,Did you see the lamp,0.12,0,resources/,pics/chainsaw.jpg,pics/fanblades.jpg,pics/salmon.jpg,pics/proboscismonkey.jpg,pics/boot02b.jpg,pics/lamp04a.jpg,pics/blender.jpg,pics/sink.jpg,pics/pencil01.jpg,pics/floortile02.jpg,pics/shovel01.jpg,blankImage,blankImage,blankImage,blankImage,blankImage,blankImage,lamp04a,37,,,,,,,,,,,,,,,,,,,,,,,,,,,,,,,,,,,,,,,,,0,48,48,36,1,,,,,,,,,,,,,,,,,,,,,,,,,,,,,,,,,,,,,,,,,,,,,,,,,,,,,,,
,,,,,5b0e9af69663ee000145bc26,6682b41eeb79ab8215dff63d,6682ba8580c6972854304609,28,Male,English,2024-07-01_15h18.24.550,ABmemTask3,2023.2.3,Win32,74.96251874,,,,,,,,,,,,,,,,,,,,,,,,,,,,,,,832.038,833.037,833.037,9,833.53,834.971,0.003,835.091,0.118,0.12,0.12,0.12,0.12,0.121,0.119,0.121,0.119,0.12,0.121,835.091,836.011,left,0.906,,836.012,837.011,left,0.988,,46,0,100,837.012,838.012,,,,,,1_AB,L1_T1A_T2P,1,0,1,7,8,6,5,13,Basketball,Did you see the Basketball,0.12,0,resources/,pics/cork02.jpg,pics/table01.jpg,pics/christmaslights.jpg,pics/nutcracker01.jpg,pics/golfball.jpg,pics/hammerheadshark.jpg,pics/seaturtle.jpg,pics/stapler04b.jpg,pics/lock03a.jpg,pics/snowshoe.jpg,pics/sewingmachine01a.jpg,pics/peach01.jpg,pics/hose.jpg,blankImage,blankImage,blankImage,blankImage,basketball01,24,0.119,,,,,,,,,,,,,,,,,,,,,,,,,,,,,,,,,,,,,,,,0,49,49,23,1,,,,,,,,,,,,,,,,,,,,,,,,,,,,,,,,,,,,,,,,,,,,,,,,,,,,,,,
,,,,,5b0e9af69663ee000145bc26,6682b41eeb79ab8215dff63d,6682ba8580c6972854304609,28,Male,English,2024-07-01_15h18.24.550,ABmemTask3,2023.2.3,Win32,74.96251874,,,,,,,,,,,,,,,,,,,,,,,,,,,,,,,838.013,839.012,839.012,9,839.505,840.707,0.003,840.826,0.119,0.12,0.12,0.119,0.121,0.12,0.12,0.12,0.12,0.12,,840.826,841.467,right,0.626,,841.467,842.093,right,0.617,,44,0,102,842.093,843.094,,,,,,1_AB,L1_T1P_T2A,1,1,0,7,8,6,3,11,garlic,Did you see the garlic,0.12,0,resources/,pics/zebra.jpg,pics/banjo.jpg,pics/pencilsharpener02a.jpg,pics/football.jpg,pics/candle01.jpg,pics/footballhelmet.jpg,pics/garlic01a.jpg,pics/birdhouse.jpg,pics/peach01.jpg,pics/pictureframe04.jpg,pics/binder03b.jpg,blankImage,blankImage,blankImage,blankImage,blankImage,blankImage,garlic01a,33,,,,,,,,,,,,,,,,,,,,,,,,,,,,,,,,,,,,,,,,,0,50,50,32,1,,,,,,,,,,,,,,,,,,,,,,,,,,,,,,,,,,,,,,,,,,,,,,,,,,,,,,,
,,,,,5b0e9af69663ee000145bc26,6682b41eeb79ab8215dff63d,6682ba8580c6972854304609,28,Male,English,2024-07-01_15h18.24.550,ABmemTask3,2023.2.3,Win32,74.96251874,,,,,,,,,,,,,,,,,,,,,,,,,,,,,,,843.095,844.094,844.094,9,844.588,845.909,0.002,846.029,0.119,0.119,0.12,0.121,0.12,0.12,0.12,0.12,0.12,0.12,0.12,846.029,846.656,right,0.62,,846.656,847.336,right,0.669,,46,0,104,847.336,848.336,,,,,,1_AB,L1_T1P_T2P,1,1,1,6,7,5,5,12,Bear,Did you see the Bear,0.12,0,resources/,pics/necklace.jpg,pics/hen.jpg,pics/dromedary.jpg,pics/piggybank.jpg,pics/sandbarshark.jpg,pics/grizzly.jpg,pics/stapler12.jpg,pics/bowlingpin.jpg,pics/christmaslights.jpg,pics/icecube01.jpg,pics/match.jpg,pics/lock03a.jpg,blankImage,blankImage,blankImage,blankImage,blankImage,grizzly,18,,,,,,,,,,,,,,,,,,,,,,,,,,,,,,,,,,,,,,,,,0,51,51,17,1,,,,,,,,,,,,,,,,,,,,,,,,,,,,,,,,,,,,,,,,,,,,,,,,,,,,,,,
,,,,,5b0e9af69663ee000145bc26,6682b41eeb79ab8215dff63d,6682ba8580c6972854304609,28,Male,English,2024-07-01_15h18.24.550,ABmemTask3,2023.2.3,Win32,74.96251874,,,,,,,,,,,,,,,,,,,,,,,,,,,,,,,848.337,849.336,849.336,9,849.83,851.15,0.003,851.27,0.118,0.12,0.119,0.121,0.12,0.12,0.12,0.12,0.119,0.121,0.12,851.27,852.057,right,0.778,,852.057,852.658,left,0.588,,48,0,106,852.658,853.658,,,,,,1_AB,L1_T1P_T2A,1,1,0,7,8,6,4,12,Tennis racket,Did you see the Tennis racket,0.12,0,resources/,pics/banjo.jpg,pics/leaf02a.jpg,pics/shovel01.jpg,pics/microscope.jpg,pics/cork02.jpg,pics/seagull.jpg,pics/tennisracket.jpg,pics/binder03b.jpg,pics/floortile02.jpg,pics/carrot01.jpg,pics/candle01.jpg,pics/siamesecat.jpg,blankImage,blankImage,blankImage,blankImage,blankImage,tennisracket,38,,,,,,,,,,,,,,,,,,,,,,,,,,,,,,,,,,,,,,,,,0,52,52,37,1,,,,,,,,,,,,,,,,,,,,,,,,,,,,,,,,,,,,,,,,,,,,,,,,,,,,,,,
,,,,,5b0e9af69663ee000145bc26,6682b41eeb79ab8215dff63d,6682ba8580c6972854304609,28,Male,English,2024-07-01_15h18.24.550,ABmemTask3,2023.2.3,Win32,74.96251874,,,,,,,,,,,,,,,,,,,,,,,,,,,,,,,853.659,854.659,854.66,9,855.152,856.593,0.004,856.712,0.117,0.12,0.12,0.12,0.119,0.121,0.119,0.12,0.119,0.121,0.12,856.712,858.259,left,1.536,,858.259,859.073,left,0.801,,50,0,108,859.073,860.073,,,,,,1_AB,L1_T1A_T2A,1,0,0,7,8,6,5,13,fan,Did you see the fan,0.12,0,resources/,pics/leaf02a.jpg,pics/dustpan.jpg,pics/pencil01.jpg,pics/kangaroo.jpg,pics/golfball.jpg,pics/lightswitch01.jpg,pics/nutcracker01.jpg,pics/calendar.jpg,pics/hose.jpg,pics/starfish01.jpg,pics/siamesecat.jpg,pics/bowlingpin.jpg,pics/necklace.jpg,blankImage,blankImage,blankImage,blankImage,fan,42,0.12,,,,,,,,,,,,,,,,,,,,,,,,,,,,,,,,,,,,,,,,0,53,53,41,1,,,,,,,,,,,,,,,,,,,,,,,,,,,,,,,,,,,,,,,,,,,,,,,,,,,,,,,
,,,,,5b0e9af69663ee000145bc26,6682b41eeb79ab8215dff63d,6682ba8580c6972854304609,28,Male,English,2024-07-01_15h18.24.550,ABmemTask3,2023.2.3,Win32,74.96251874,,,,,,,,,,,,,,,,,,,,,,,,,,,,,,,860.075,861.074,861.074,9,861.568,862.528,0.002,862.648,0.119,0.119,0.121,0.119,0.121,0.119,0.12,0.12,,,,862.648,863.542,left,0.88,,863.542,864.355,left,0.805,,50,0,110,864.355,865.356,,,,,,1_AB,L1_T1A_T2P,1,0,1,5,6,4,3,9,Trailer,Did you see the Trailer,0.12,0,resources/,pics/pencil01.jpg,pics/football.jpg,pics/hairdryer02a.jpg,pics/wheel01.jpg,pics/chainsaw.jpg,pics/stapler10.jpg,pics/peanut01.jpg,pics/triangle.jpg,pics/sink.jpg,blankImage,blankImage,blankImage,blankImage,blankImage,blankImage,blankImage,blankImage,boxtrailer,29,,,,,,,,,,,,,,,,,,,,,,,,,,,,,,,,,,,,,,,,,0,54,54,28,1,,,,,,,,,,,,,,,,,,,,,,,,,,,,,,,,,,,,,,,,,,,,,,,,,,,,,,,
,,,,,5b0e9af69663ee000145bc26,6682b41eeb79ab8215dff63d,6682ba8580c6972854304609,28,Male,English,2024-07-01_15h18.24.550,ABmemTask3,2023.2.3,Win32,74.96251874,,,,,,,,,,,,,,,,,,,,,,,,,,,,,,,865.357,866.356,866.356,9,866.849,867.81,0.002,867.93,0.12,0.12,0.12,0.119,0.121,0.12,0.12,0.119,,,,867.93,869.091,right,1.15,,869.091,869.758,left,0.654,,50,0,112,869.758,870.758,,,,,,1_AB,L1_T1P_T2P,1,1,1,5,6,4,3,9,cabbage,Did you see the cabbage,0.12,0,resources/,pics/match.jpg,pics/icecube01.jpg,pics/noparkingsign.jpg,pics/christmaslights.jpg,pics/cabbage.jpg,pics/stapler03a.jpg,pics/carrot01.jpg,pics/dustpan.jpg,pics/cannon.jpg,blankImage,blankImage,blankImage,blankImage,blankImage,blankImage,blankImage,blankImage,cabbage,14,,,,,,,,,,,,,,,,,,,,,,,,,,,,,,,,,,,,,,,,,0,55,55,13,1,,,,,,,,,,,,,,,,,,,,,,,,,,,,,,,,,,,,,,,,,,,,,,,,,,,,,,,
,,,,,5b0e9af69663ee000145bc26,6682b41eeb79ab8215dff63d,6682ba8580c6972854304609,28,Male,English,2024-07-01_15h18.24.550,ABmemTask3,2023.2.3,Win32,74.96251874,,,,,,,,,,,,,,,,,,,,,,,,,,,,,,,870.759,871.758,871.758,9,872.251,873.933,0.003,874.053,0.119,0.119,0.121,0.12,0.12,0.12,0.12,0.12,0.12,0.12,0.12,874.053,874.426,right,0.363,,874.426,875.053,right,0.616,,52,0,114,875.053,876.054,,,,,,1_AB,L5_T1P_T2P,5,1,1,5,10,4,5,15,ribbon,Did you see the ribbon,0.12,0,resources/,pics/giraffe.jpg,pics/boot02b.jpg,pics/cymbal.jpg,pics/leaf02a.jpg,pics/ribbon04.jpg,pics/lightswitch01.jpg,pics/necklace.jpg,pics/calendar.jpg,pics/kangaroo.jpg,pics/stapler12.jpg,pics/hose.jpg,pics/carrot01.jpg,pics/match.jpg,pics/sink.jpg,pics/candleholder01.jpg,blankImage,blankImage,ribbon04,53,0.12,0.12,0.121,,,,,,,,,,,,,,,,,,,,,,,,,,,,,,,,,,,,,,0,56,56,52,1,,,,,,,,,,,,,,,,,,,,,,,,,,,,,,,,,,,,,,,,,,,,,,,,,,,,,,,
,,,,,5b0e9af69663ee000145bc26,6682b41eeb79ab8215dff63d,6682ba8580c6972854304609,28,Male,English,2024-07-01_15h18.24.550,ABmemTask3,2023.2.3,Win32,74.96251874,,,,,,,,,,,,,,,,,,,,,,,,,,,,,,,876.055,877.053,877.053,9,877.547,878.748,0.002,878.867,0.119,0.12,0.12,0.12,0.121,0.119,0.12,0.12,0.121,0.119,,878.867,879.868,right,0.99,,879.868,880.535,left,0.664,,52,0,116,880.535,881.535,,,,,,1_AB,L1_T1P_T2P,1,1,1,7,8,6,3,11,bird,Did you see the bird,0.12,0,resources/,pics/sealion.jpg,pics/backpack01a.jpg,pics/hose.jpg,pics/table01.jpg,pics/wheel01.jpg,pics/seaturtle.jpg,pics/americangoldfinch.jpg,pics/stapler08.jpg,pics/siamesecat.jpg,pics/hammerheadshark.jpg,pics/ashtray01.jpg,blankImage,blankImage,blankImage,blankImage,blankImage,blankImage,americangoldfinch,23,,,,,,,,,,,,,,,,,,,,,,,,,,,,,,,,,,,,,,,,,0,57,57,22,1,,,,,,,,,,,,,,,,,,,,,,,,,,,,,,,,,,,,,,,,,,,,,,,,,,,,,,,
,,,,,5b0e9af69663ee000145bc26,6682b41eeb79ab8215dff63d,6682ba8580c6972854304609,28,Male,English,2024-07-01_15h18.24.550,ABmemTask3,2023.2.3,Win32,74.96251874,,,,,,,,,,,,,,,,,,,,,,,,,,,,,,,881.536,882.535,882.535,9,883.029,884.23,0.002,884.349,0.119,0.12,0.121,0.12,0.119,0.121,0.119,0.12,0.12,0.12,,884.349,885.043,right,0.678,,885.043,885.763,left,0.706,,54,0,118,885.764,886.764,,,,,,1_AB,L1_T1P_T2A,1,1,0,7,8,6,3,11,eggplant,Did you see the eggplant,0.12,0,resources/,pics/salmon.jpg,pics/fanblades.jpg,pics/hammerheadshark.jpg,pics/wheel01.jpg,pics/snowshoe.jpg,pics/birdhouse.jpg,pics/eggplant.jpg,pics/spiderweb.jpg,pics/zebra.jpg,pics/pencilsharpener02a.jpg,pics/backpack01a.jpg,blankImage,blankImage,blankImage,blankImage,blankImage,blankImage,eggplant,32,,,,,,,,,,,,,,,,,,,,,,,,,,,,,,,,,,,,,,,,,0,58,58,31,1,,,,,,,,,,,,,,,,,,,,,,,,,,,,,,,,,,,,,,,,,,,,,,,,,,,,,,,
,,,,,5b0e9af69663ee000145bc26,6682b41eeb79ab8215dff63d,6682ba8580c6972854304609,28,Male,English,2024-07-01_15h18.24.550,ABmemTask3,2023.2.3,Win32,74.96251874,,,,,,,,,,,,,,,,,,,,,,,,,,,,,,,886.764,887.766,887.766,9,888.258,889.219,0.003,889.338,0.119,0.118,0.121,0.12,0.12,0.12,0.12,0.12,,,,889.338,890.593,right,1.237,,890.593,891.219,left,0.614,,54,0,120,891.219,892.219,,,,,,1_AB,L1_T1P_T2P,1,1,1,5,6,4,3,9,Ant,Did you see the Ant,0.12,0,resources/,pics/kangaroo.jpg,pics/giraffe.jpg,pics/footballhelmet.jpg,pics/onion.jpg,pics/ant.jpg,pics/stapler04b.jpg,pics/banjo.jpg,pics/zebra.jpg,pics/dromedary.jpg,blankImage,blankImage,blankImage,blankImage,blankImage,blankImage,blankImage,blankImage,ant,15,,,,,,,,,,,,,,,,,,,,,,,,,,,,,,,,,,,,,,,,,0,59,59,14,1,,,,,,,,,,,,,,,,,,,,,,,,,,,,,,,,,,,,,,,,,,,,,,,,,,,,,,,
,,,,,5b0e9af69663ee000145bc26,6682b41eeb79ab8215dff63d,6682ba8580c6972854304609,28,Male,English,2024-07-01_15h18.24.550,ABmemTask3,2023.2.3,Win32,74.96251874,,,,,,,,,,,,,,,,,,,,,,,,,,,,,,,892.221,893.22,893.22,9,893.713,894.795,0.002,894.914,0.119,0.12,0.12,0.12,0.12,0.121,0.119,0.12,0.121,,,894.914,896.515,right,1.584,,896.515,897.047,right,0.529,,56,0,122,897.048,898.049,,,,,,1_AB,L1_T1P_T2P,1,1,1,5,6,4,4,10,thermometer,Did you see the thermometer,0.12,0,resources/,pics/triangle.jpg,pics/shovel01.jpg,pics/mummy.jpg,pics/noparkingsign.jpg,pics/thermometer02b.jpg,pics/stapler04.jpg,pics/piggybank.jpg,pics/golfball.jpg,pics/laptop01a.jpg,pics/aquarium.jpg,blankImage,blankImage,blankImage,blankImage,blankImage,blankImage,blankImage,thermometer02b,8,,,,,,,,,,,,,,,,,,,,,,,,,,,,,,,,,,,,,,,,,0,60,60,7,1,,,,,,,,,,,,,,,,,,,,,,,,,,,,,,,,,,,,,,,,,,,,,,,,,,,,,,,
,,,,,5b0e9af69663ee000145bc26,6682b41eeb79ab8215dff63d,6682ba8580c6972854304609,28,Male,English,2024-07-01_15h18.24.550,ABmemTask3,2023.2.3,Win32,74.96251874,,,,,,,,,,,,,,,,,,,,,,,,,,,,,,,898.049,899.049,899.049,9,899.543,900.622,0.001,900.742,0.119,0.12,0.12,0.12,0.12,0.12,0.12,0.121,0.118,,,900.743,901.383,right,0.626,,901.383,901.97,left,0.574,,58,0,124,901.97,902.97,,,,,,1_AB,L1_T1P_T2A,1,1,0,6,7,5,3,10,Duct tape,Did you see the Duct tape,0.12,0,resources/,pics/butterfly.jpg,pics/noparkingsign.jpg,pics/pictureframe04.jpg,pics/cork02.jpg,pics/fanblades.jpg,pics/ducttape.jpg,pics/icecube01.jpg,pics/siamesecat.jpg,pics/sink.jpg,pics/sandbarshark.jpg,blankImage,blankImage,blankImage,blankImage,blankImage,blankImage,blankImage,ducttape,36,,,,,,,,,,,,,,,,,,,,,,,,,,,,,,,,,,,,,,,,,0,61,61,35,1,,,,,,,,,,,,,,,,,,,,,,,,,,,,,,,,,,,,,,,,,,,,,,,,,,,,,,,
,,,,,5b0e9af69663ee000145bc26,6682b41eeb79ab8215dff63d,6682ba8580c6972854304609,28,Male,English,2024-07-01_15h18.24.550,ABmemTask3,2023.2.3,Win32,74.96251874,,,,,,,,,,,,,,,,,,,,,,,,,,,,,,,,,,,,,,,,,,,,,,,,,,,,,,,,,,,,,,,,,,,,,,,,,,,,,,,,,,,,,,,,,,,,,,,,,,,,,,,,,,,902.971,906.958,space,3.972,,,,,,,,,,,,,,,,,,,,,,,,,,,,,,,,,,,,,,,,,,,,,,,,,,,,,,,,,,,,,,,,,,,,,,,,,,,,,,,,,,,,,,,,,,,,,
,,,,,5b0e9af69663ee000145bc26,6682b41eeb79ab8215dff63d,6682ba8580c6972854304609,28,Male,English,2024-07-01_15h18.24.550,ABmemTask3,2023.2.3,Win32,74.96251874,,,space,10.405,,,,,,,,,,,,,,,,,,,,,,,,,,,,,,,,,,,,,,,,,,,,,,,,,,,,,,,,,,,,,,,,,,,,,,,,,,,,,,,,,,,,,,,,,,,,,,,,,,,,,,,,,,,,,,,,,,,,,,,,,,,,,,,,,,,,,,,,,,,,,,,,,,,906.958,917.376,,,,,,,,,,,,,,,,,,,,,,,,,,,,,,,,,,,,,,,,,,,,,,,,,,,
,,,,,5b0e9af69663ee000145bc26,6682b41eeb79ab8215dff63d,6682ba8580c6972854304609,28,Male,English,2024-07-01_15h18.24.550,ABmemTask3,2023.2.3,Win32,74.96251874,,,,,,,,,,,,,,,,,,,,,,,,,,,,,,,,,,,,,,,,,,,,,,,,,,,,,,,,,,,,,,,,,,,,,,,,,,,,,,,,,,,,,,,,,,,,,,,,,,,,,,,,,,,,,,,,,,,,,,,,,,,,,,,,,,,,,,,,,,,,,,,,,,,,,,,,,917.376,938.504,space,21.111,,,,,,,,,,,,,,,,,,,,,,,,,,,,,,,,,,,,,,,,,,,,,,,
,,,,,5b0e9af69663ee000145bc26,6682b41eeb79ab8215dff63d,6682ba8580c6972854304609,28,Male,English,2024-07-01_15h18.24.550,ABmemTask3,2023.2.3,Win32,74.96251874,,,,,,,,,,,,,,,,,,,,,,,,,,,,,,,938.513,939.504,939.505,9,939.998,941.199,0.004,941.318,0.118,0.12,0.119,0.121,0.12,0.119,0.12,0.121,0.12,0.12,,941.318,942.038,right,0.707,,,,,,,1,58,2,942.038,943.039,,,,,,2_AB,L1_T1P_T2P,1,1,1,6,7,5,4,11,flashlight,Did you see the flashlight,0.12,0,resources/,pics/proboscismonkey.jpg,pics/hen.jpg,pics/hairdryer02a.jpg,pics/candle01.jpg,pics/laptop01a.jpg,pics/flashlight02b.jpg,pics/stapler12.jpg,pics/lock03a.jpg,pics/sewingmachine01a.jpg,pics/seagull.jpg,pics/pictureframe04.jpg,blankImage,blankImage,blankImage,blankImage,blankImage,blankImage,flashlight02b,3,,,,,,,,,,,,,,,,,,,,,,,,,,,,,,,,,,,,,,,,,,,,,,,,,,,,,,,0,0,0,2,1,,,,,,,,,,,,,,,,,,,,,,,,,,,,,,,,,,,,,,,,,
,,,,,5b0e9af69663ee000145bc26,6682b41eeb79ab8215dff63d,6682ba8580c6972854304609,28,Male,English,2024-07-01_15h18.24.550,ABmemTask3,2023.2.3,Win32,74.96251874,,,,,,,,,,,,,,,,,,,,,,,,,,,,,,,943.04,944.039,944.039,9,944.533,945.733,0.001,945.853,0.12,0.119,0.12,0.121,0.12,0.119,0.12,0.121,0.12,0.119,,945.853,946.561,left,0.693,,,,,,,2,58,4,946.561,947.561,,,,,,2_AB,L1_T1A_T2P,1,0,1,6,7,5,4,11,Eye,Did you see the Eye,0.12,0,resources/,pics/spoon01.jpg,pics/ball02.jpg,pics/sandbarshark.jpg,pics/pencil01.jpg,pics/icecube01.jpg,pics/floortile02.jpg,pics/stapler03.jpg,pics/binder03b.jpg,pics/hairdryer02a.jpg,pics/laptop01a.jpg,pics/sewingmachine01a.jpg,blankImage,blankImage,blankImage,blankImage,blankImage,blankImage,eye,24,,,,,,,,,,,,,,,,,,,,,,,,,,,,,,,,,,,,,,,,,,,,,,,,,,,,,,,0,1,1,23,1,,,,,,,,,,,,,,,,,,,,,,,,,,,,,,,,,,,,,,,,,
,,,,,5b0e9af69663ee000145bc26,6682b41eeb79ab8215dff63d,6682ba8580c6972854304609,28,Male,English,2024-07-01_15h18.24.550,ABmemTask3,2023.2.3,Win32,74.96251874,,,,,,,,,,,,,,,,,,,,,,,,,,,,,,,947.562,948.561,948.561,9,949.055,950.735,0.001,950.859,0.119,0.12,0.12,0.121,0.12,0.119,0.121,0.12,0.119,0.119,0.12,950.859,951.615,left,0.744,,,,,,,3,58,6,951.616,952.616,,,,,,2_AB,L5_T1A_T2P,5,0,1,7,12,6,3,15,radish,Did you see the radish,0.12,0,resources/,pics/necklace.jpg,pics/peach01.jpg,pics/chainsaw.jpg,pics/giraffe.jpg,pics/blender.jpg,pics/nutcracker01.jpg,pics/seagull.jpg,pics/hairdryer02a.jpg,pics/cannon.jpg,pics/binder03b.jpg,pics/christmaslights.jpg,pics/stapler06.jpg,pics/proboscismonkey.jpg,pics/ball02.jpg,pics/wheel01.jpg,blankImage,blankImage,radish01,55,0.121,0.12,0.119,,,,,,,,,,,,,,,,,,,,,,,,,,,,,,,,,,,,,,,,,,,,,,,,,,,,0,2,2,54,1,,,,,,,,,,,,,,,,,,,,,,,,,,,,,,,,,,,,,,,,,
,,,,,5b0e9af69663ee000145bc26,6682b41eeb79ab8215dff63d,6682ba8580c6972854304609,28,Male,English,2024-07-01_15h18.24.550,ABmemTask3,2023.2.3,Win32,74.96251874,,,,,,,,,,,,,,,,,,,,,,,,,,,,,,,952.617,953.616,953.616,9,954.109,955.792,0.002,955.91,0.12,0.12,0.12,0.12,0.119,0.121,0.12,0.12,0.122,0.123,0.116,955.911,956.712,left,0.793,,,,,,,4,58,8,956.712,957.711,,,,,,2_AB,L5_T1A_T2P,5,0,1,5,10,4,5,15,wedding cake,Did you see the wedding cake,0.12,0,resources/,pics/microscope.jpg,pics/golfball.jpg,pics/kangaroo.jpg,pics/backpack01a.jpg,pics/sewingmachine01a.jpg,pics/christmaslights.jpg,pics/lightswitch01.jpg,pics/carrot01.jpg,pics/dromedary.jpg,pics/stapler09.jpg,pics/candle01.jpg,pics/hammerheadshark.jpg,pics/footballhelmet.jpg,pics/banjo.jpg,pics/binoculars01b.jpg,blankImage,blankImage,weddingcake,57,0.119,0.12,0.121,,,,,,,,,,,,,,,,,,,,,,,,,,,,,,,,,,,,,,,,,,,,,,,,,,,,0,3,3,56,1,,,,,,,,,,,,,,,,,,,,,,,,,,,,,,,,,,,,,,,,,
,,,,,5b0e9af69663ee000145bc26,6682b41eeb79ab8215dff63d,6682ba8580c6972854304609,28,Male,English,2024-07-01_15h18.24.550,ABmemTask3,2023.2.3,Win32,74.96251874,,,,,,,,,,,,,,,,,,,,,,,,,,,,,,,957.712,958.712,958.712,9,959.205,960.406,0.003,960.526,0.118,0.12,0.12,0.12,0.12,0.121,0.119,0.12,0.12,0.121,,960.526,961.006,right,0.468,,,,,,,5,58,10,961.006,962.006,,,,,,2_AB,L1_T1P_T2P,1,1,1,6,7,5,4,11,goggles,Did you see the goggles,0.12,0,resources/,pics/bowtie.jpg,pics/peach01.jpg,pics/kangaroo.jpg,pics/bowlingpin.jpg,pics/wheel01.jpg,pics/swimgoggles.jpg,pics/stapler03.jpg,pics/cymbal.jpg,pics/cork02.jpg,pics/sealion.jpg,pics/football.jpg,blankImage,blankImage,blankImage,blankImage,blankImage,blankImage,swimgoggles,9,,,,,,,,,,,,,,,,,,,,,,,,,,,,,,,,,,,,,,,,,,,,,,,,,,,,,,,0,4,4,8,1,,,,,,,,,,,,,,,,,,,,,,,,,,,,,,,,,,,,,,,,,
,,,,,5b0e9af69663ee000145bc26,6682b41eeb79ab8215dff63d,6682ba8580c6972854304609,28,Male,English,2024-07-01_15h18.24.550,ABmemTask3,2023.2.3,Win32,74.96251874,,,,,,,,,,,,,,,,,,,,,,,,,,,,,,,962.008,963.006,963.006,9,963.5,964.461,0.002,964.58,0.119,0.12,0.12,0.12,0.12,0.119,0.121,0.12,,,,964.58,965.167,right,0.573,,,,,,,6,58,12,965.167,966.167,,,,,,2_AB,L1_T1P_T2P,1,1,1,5,6,4,3,9,toaster,Did you see the toaster,0.12,0,resources/,pics/cannon.jpg,pics/candle01.jpg,pics/pencil01.jpg,pics/hose.jpg,pics/toaster01.jpg,pics/stapler08.jpg,pics/christmaslights.jpg,pics/sailboat.jpg,pics/lock03a.jpg,blankImage,blankImage,blankImage,blankImage,blankImage,blankImage,blankImage,blankImage,toaster01,6,,,,,,,,,,,,,,,,,,,,,,,,,,,,,,,,,,,,,,,,,,,,,,,,,,,,,,,0,5,5,5,1,,,,,,,,,,,,,,,,,,,,,,,,,,,,,,,,,,,,,,,,,
,,,,,5b0e9af69663ee000145bc26,6682b41eeb79ab8215dff63d,6682ba8580c6972854304609,28,Male,English,2024-07-01_15h18.24.550,ABmemTask3,2023.2.3,Win32,74.96251874,,,,,,,,,,,,,,,,,,,,,,,,,,,,,,,966.168,967.167,967.168,9,967.662,968.623,0.002,968.742,0.118,0.12,0.12,0.121,0.119,0.121,0.12,0.12,,,,968.742,969.422,left,0.667,,,,,,,7,58,14,969.422,970.422,,,,,,2_AB,L1_T1A_T2A,1,0,0,5,6,4,3,9,kiwi,Did you see the kiwi,0.12,0,resources/,pics/cymbal.jpg,pics/laptop01a.jpg,pics/aquarium.jpg,pics/safetypin.jpg,pics/shovel01.jpg,pics/peanut01.jpg,pics/binoculars01b.jpg,pics/mummy.jpg,pics/footballhelmet.jpg,blankImage,blankImage,blankImage,blankImage,blankImage,blankImage,blankImage,blankImage,kiwi01a,41,,,,,,,,,,,,,,,,,,,,,,,,,,,,,,,,,,,,,,,,,,,,,,,,,,,,,,,0,6,6,40,1,,,,,,,,,,,,,,,,,,,,,,,,,,,,,,,,,,,,,,,,,
,,,,,5b0e9af69663ee000145bc26,6682b41eeb79ab8215dff63d,6682ba8580c6972854304609,28,Male,English,2024-07-01_15h18.24.550,ABmemTask3,2023.2.3,Win32,74.96251874,,,,,,,,,,,,,,,,,,,,,,,,,,,,,,,970.423,971.424,971.424,9,971.917,973.358,0.002,973.477,0.118,0.12,0.12,0.12,0.121,0.12,0.119,0.12,0.121,0.12,0.12,973.478,974.358,left,0.868,,,,,,,6,58,16,974.358,975.358,,,,,,2_AB,L5_T1P_T2P,5,1,1,4,9,3,4,13,earrings,Did you see the earrings,0.12,0,resources/,pics/pencil01.jpg,pics/onion.jpg,pics/toiletpaper01a.jpg,pics/earring01.jpg,pics/seagull.jpg,pics/proboscismonkey.jpg,pics/carrot01.jpg,pics/pencilsharpener02a.jpg,pics/stapler11.jpg,pics/hairdryer02a.jpg,pics/peanut01.jpg,pics/zebra.jpg,pics/lightswitch01.jpg,blankImage,blankImage,blankImage,blankImage,earring01,46,0.12,,,,,,,,,,,,,,,,,,,,,,,,,,,,,,,,,,,,,,,,,,,,,,,,,,,,,,0,7,7,45,1,,,,,,,,,,,,,,,,,,,,,,,,,,,,,,,,,,,,,,,,,
,,,,,5b0e9af69663ee000145bc26,6682b41eeb79ab8215dff63d,6682ba8580c6972854304609,28,Male,English,2024-07-01_15h18.24.550,ABmemTask3,2023.2.3,Win32,74.96251874,,,,,,,,,,,,,,,,,,,,,,,,,,,,,,,975.358,976.358,976.359,9,976.852,977.932,0.001,978.052,0.119,0.121,0.12,0.12,0.12,0.12,0.12,0.12,0.12,,,978.052,978.479,right,0.412,,,,,,,7,58,18,978.479,979.479,,,,,,2_AB,L1_T1P_T2P,1,1,1,4,5,3,5,10,Tambourine,Did you see the Tambourine,0.12,0,resources/,pics/icecube01.jpg,pics/peach01.jpg,pics/binder03b.jpg,pics/tambourine03.jpg,pics/stapler03.jpg,pics/leaf02a.jpg,pics/butterfly.jpg,pics/spiderweb.jpg,pics/candleholder01.jpg,pics/toiletpaper01a.jpg,blankImage,blankImage,blankImage,blankImage,blankImage,blankImage,blankImage,tambourine03,4,,,,,,,,,,,,,,,,,,,,,,,,,,,,,,,,,,,,,,,,,,,,,,,,,,,,,,,0,8,8,3,1,,,,,,,,,,,,,,,,,,,,,,,,,,,,,,,,,,,,,,,,,
,,,,,5b0e9af69663ee000145bc26,6682b41eeb79ab8215dff63d,6682ba8580c6972854304609,28,Male,English,2024-07-01_15h18.24.550,ABmemTask3,2023.2.3,Win32,74.96251874,,,,,,,,,,,,,,,,,,,,,,,,,,,,,,,979.48,980.48,980.48,9,980.973,982.054,0.002,982.174,0.119,0.12,0.121,0.119,0.12,0.121,0.119,0.12,0.12,,,982.174,982.721,right,0.532,,,,,,,8,58,20,982.722,983.721,,,,,,2_AB,L1_T1P_T2A,1,1,0,4,5,3,5,10,surf board,Did you see the surf board,0.12,0,resources/,pics/sealion.jpg,pics/necklace.jpg,pics/hose.jpg,pics/surfboard.jpg,pics/butterfly.jpg,pics/golfball.jpg,pics/safetypin.jpg,pics/giraffe.jpg,pics/pencil01.jpg,pics/ashtray01.jpg,blankImage,blankImage,blankImage,blankImage,blankImage,blankImage,blankImage,surfboard,36,,,,,,,,,,,,,,,,,,,,,,,,,,,,,,,,,,,,,,,,,,,,,,,,,,,,,,,0,9,9,35,1,,,,,,,,,,,,,,,,,,,,,,,,,,,,,,,,,,,,,,,,,
,,,,,5b0e9af69663ee000145bc26,6682b41eeb79ab8215dff63d,6682ba8580c6972854304609,28,Male,English,2024-07-01_15h18.24.550,ABmemTask3,2023.2.3,Win32,74.96251874,,,,,,,,,,,,,,,,,,,,,,,,,,,,,,,983.722,984.722,984.722,9,985.215,986.416,0.003,986.535,0.117,0.121,0.12,0.12,0.12,0.119,0.121,0.12,0.12,0.121,,986.535,987.203,left,0.657,,,,,,,9,58,22,987.203,988.203,,,,,,2_AB,L1_T1A_T2P,1,0,1,5,6,4,5,11,bed,Did you see the bed,0.12,0,resources/,pics/ashtray01.jpg,pics/bowtie.jpg,pics/siamesecat.jpg,pics/microscope.jpg,pics/shovel01.jpg,pics/stapler04.jpg,pics/lightswitch01.jpg,pics/carrot01.jpg,pics/boot02b.jpg,pics/pencilsharpener02a.jpg,pics/nutcracker01.jpg,blankImage,blankImage,blankImage,blankImage,blankImage,blankImage,bed,29,,,,,,,,,,,,,,,,,,,,,,,,,,,,,,,,,,,,,,,,,,,,,,,,,,,,,,,0,10,10,28,1,,,,,,,,,,,,,,,,,,,,,,,,,,,,,,,,,,,,,,,,,
,,,,,5b0e9af69663ee000145bc26,6682b41eeb79ab8215dff63d,6682ba8580c6972854304609,28,Male,English,2024-07-01_15h18.24.550,ABmemTask3,2023.2.3,Win32,74.96251874,,,,,,,,,,,,,,,,,,,,,,,,,,,,,,,988.204,989.204,989.205,9,989.697,991.377,0.004,991.498,0.117,0.119,0.121,0.12,0.12,0.12,0.12,0.12,0.12,0.12,0.121,991.498,992.938,left,1.43,,,,,,,10,58,24,992.938,993.938,,,,,,2_AB,L5_T1A_T2P,5,0,1,7,12,6,3,15,Ipad,Did you see the Ipad,0.12,0,resources/,pics/peanut01.jpg,pics/hairdryer02a.jpg,pics/necklace.jpg,pics/shipinabottle.jpg,pics/footballhelmet.jpg,pics/match.jpg,pics/leaf02a.jpg,pics/backpack01a.jpg,pics/noparkingsign.jpg,pics/wheel01.jpg,pics/table01.jpg,pics/stapler03a.jpg,pics/cannon.jpg,pics/aquarium.jpg,pics/lightswitch01.jpg,blankImage,blankImage,ipad02,56,0.119,0.12,0.12,,,,,,,,,,,,,,,,,,,,,,,,,,,,,,,,,,,,,,,,,,,,,,,,,,,,0,11,11,55,1,,,,,,,,,,,,,,,,,,,,,,,,,,,,,,,,,,,,,,,,,
,,,,,5b0e9af69663ee000145bc26,6682b41eeb79ab8215dff63d,6682ba8580c6972854304609,28,Male,English,2024-07-01_15h18.24.550,ABmemTask3,2023.2.3,Win32,74.96251874,,,,,,,,,,,,,,,,,,,,,,,,,,,,,,,993.94,994.939,994.939,9,995.438,996.753,0.001,996.872,0.114,0.121,0.119,0.12,0.119,0.121,0.12,0.12,0.12,0.121,0.12,996.872,997.592,left,0.713,,,,,,,9,58,26,997.593,998.593,,,,,,2_AB,L5_T1P_T2P,5,1,1,4,9,3,3,12,Skis,Did you see the Skis,0.12,0,resources/,pics/mummy.jpg,pics/microscope.jpg,pics/pencilsharpener02a.jpg,pics/crosscountryski.jpg,pics/butterfly.jpg,pics/chainsaw.jpg,pics/sink.jpg,pics/boot02b.jpg,pics/stapler03b.jpg,pics/spoon01.jpg,pics/necklace.jpg,pics/peach01.jpg,blankImage,blankImage,blankImage,blankImage,blankImage,crosscountryski,52,,,,,,,,,,,,,,,,,,,,,,,,,,,,,,,,,,,,,,,,,,,,,,,,,,,,,,,0,12,12,51,1,,,,,,,,,,,,,,,,,,,,,,,,,,,,,,,,,,,,,,,,,
,,,,,5b0e9af69663ee000145bc26,6682b41eeb79ab8215dff63d,6682ba8580c6972854304609,28,Male,English,2024-07-01_15h18.24.550,ABmemTask3,2023.2.3,Win32,74.96251874,,,,,,,,,,,,,,,,,,,,,,,,,,,,,,,998.594,999.593,999.594,9,1000.088,1001.529,0.002,1001.648,0.118,0.12,0.121,0.12,0.119,0.121,0.119,0.121,0.119,0.12,0.12,1001.648,1002.354,right,0.697,,,,,,,10,58,28,1002.355,1003.355,,,,,,2_AB,L5_T1P_T2A,5,1,0,5,10,4,3,13,scooter,Did you see the scooter,0.12,0,resources/,pics/banjo.jpg,pics/candleholder01.jpg,pics/chainsaw.jpg,pics/bowtie.jpg,pics/scooter.jpg,pics/necklace.jpg,pics/lightswitch01.jpg,pics/aquarium.jpg,pics/ashtray01.jpg,pics/carrot01.jpg,pics/butterfly.jpg,pics/icecube01.jpg,pics/cork02.jpg,blankImage,blankImage,blankImage,blankImage,scooter,60,0.121,,,,,,,,,,,,,,,,,,,,,,,,,,,,,,,,,,,,,,,,,,,,,,,,,,,,,,0,13,13,59,1,,,,,,,,,,,,,,,,,,,,,,,,,,,,,,,,,,,,,,,,,
