consent1.started,consent1.stopped,key_resp_8.keys,key_resp_8.rt,key_resp_8.duration,PROLIFIC_PID,STUDY_ID,SESSION_ID,age,sex,native language,date,expName,psychopyVersion,OS,frameRate,consent2.started,consent2.stopped,key_resp_9.keys,key_resp_9.rt,key_resp_9.duration,consent3.started,consent3.stopped,key_resp_10.keys,key_resp_10.rt,key_resp_10.duration,consent4.started,consent4.stopped,key_resp_11.keys,key_resp_11.rt,key_resp_11.duration,consent5.started,consent5.stopped,key_resp_12.keys,key_resp_12.rt,key_resp_12.duration,bonusInstruct.started,bonusInstruct.stopped,key_resp_14.keys,key_resp_14.rt,key_resp_14.duration,practiceInstruct.started,practiceInstruct.stopped,key_resp.keys,key_resp.rt,key_resp.duration,cueWord_2.started,cueWord_2.stopped,fix.started,frameTarget,fix.stopped,trial.started,img1Add,trial.stopped,img2Add,img3Add,img4Add,img5Add,img6Add,img7Add,img8Add,img9Add,img10Add,img11Add,img12Add,prompt1.started,prompt1.stopped,key_resp_2.keys,key_resp_2.rt,key_resp_2.duration,prompt2.started,prompt2.stopped,key_resp_3.keys,key_resp_3.rt,key_resp_3.duration,runningAcc_AB,runningTotal,runningCount_AB,feedback.started,feedback.stopped,trials.thisRepN,trials.thisTrialN,trials.thisN,trials.thisIndex,trials.ran,TrialType,CondType,Lag,T1_PA,T2_PA,T1Loc,T2Loc,PreDistractor,PostDistractor,TotalImg,cueWord,T1cue,StimLength,isi,PicFolder,Img1,Img2,Img3,Img4,Img5,Img6,Img7,Img8,Img9,Img10,Img11,Img12,Img13,Img14,Img15,Img16,Img17,T1_Identity,trialID,img13Add,img14Add,img15Add,ABfeedback.started,ABfeedback.stopped,key_resp_13.keys,key_resp_13.rt,key_resp_13.duration,MemPracticeInstruction.started,MemPracticeInstruction.stopped,key_resp_5.keys,key_resp_5.rt,key_resp_5.duration,memTrial.started,memTrial.stopped,Mem_runningPoints,key_resp_4.keys,key_resp_4.rt,key_resp_4.duration,memTrialFeedback.started,memTrialFeedback.stopped,trials_2.thisRepN,trials_2.thisTrialN,trials_2.thisN,trials_2.thisIndex,trials_2.ran,ABtrialID,priorLag,image,memFeedback.started,memFeedback.frame,memFeedback.ended,memFeedback.stopped,bonus.started,bonus.stopped,memoryBlockABInstruct.started,memoryBlockABInstruct.stopped,key_resp_6.keys,key_resp_6.rt,key_resp_6.duration,AB_block_1.thisRepN,AB_block_1.thisTrialN,AB_block_1.thisN,AB_block_1.thisIndex,AB_block_1.ran,img16Add,img17Add,AB_break1.started,AB_break1.stopped,PerceiveBlockABInstruct.started,PerceiveBlockABInstruct.stopped,key_resp_7.keys,key_resp_7.rt,key_resp_7.duration,AB_block_2.thisRepN,AB_block_2.thisTrialN,AB_block_2.thisN,AB_block_2.thisIndex,AB_block_2.ran,AB_break2.started,AB_break2.stopped,AB_block_3.thisRepN,AB_block_3.thisTrialN,AB_block_3.thisN,AB_block_3.thisIndex,AB_block_3.ran,AB_break3.started,AB_break3.stopped,AB_block_4.thisRepN,AB_block_4.thisTrialN,AB_block_4.thisN,AB_block_4.thisIndex,AB_block_4.ran,AB_break4.started,AB_break4.stopped,AB_block_5.thisRepN,AB_block_5.thisTrialN,AB_block_5.thisN,AB_block_5.thisIndex,AB_block_5.ran,AB_break5.started,AB_break5.stopped,AB_block_6.thisRepN,AB_block_6.thisTrialN,AB_block_6.thisN,AB_block_6.thisIndex,AB_block_6.ran,AB_break6.started,AB_break6.stopped,MemInstructionSURPRISE.started,MemInstructionSURPRISE.stopped,MemInstruction.started,MemInstruction.stopped,memBreak.started,memBreak.stopped,Mem_block_1.thisRepN,Mem_block_1.thisTrialN,Mem_block_1.thisN,Mem_block_1.thisIndex,Mem_block_1.ran
0.0002,9.4267,space,9.4108,,59d00e3d46447f00011f0228,6682b41eeb79ab8215dff63d,6682b8cc8a1a2ffae6a7b7f7,53,f,English,2024-07-01_15h10.54.999,ABmemTask3,2023.2.3,MacIntel,59.88023952,,,,,,,,,,,,,,,,,,,,,,,,,,,,,,,,,,,,,,,,,,,,,,,,,,,,,,,,,,,,,,,,,,,,,,,,,,,,,,,,,,,,,,,,,,,,,,,,,,,,,,,,,,,,,,,,,,,,,,,,,,,,,,,,,,,,,,,,,,,,,,,,,,,,,,,,,,,,,,,,,,,,,,,,,,,,,,,,,,,,,,,,,,,,,,,,,,,,,,,,,,,
,,,,,59d00e3d46447f00011f0228,6682b41eeb79ab8215dff63d,6682b8cc8a1a2ffae6a7b7f7,53,f,English,2024-07-01_15h10.54.999,ABmemTask3,2023.2.3,MacIntel,59.88023952,9.427,14.4266,space,4.9658,,,,,,,,,,,,,,,,,,,,,,,,,,,,,,,,,,,,,,,,,,,,,,,,,,,,,,,,,,,,,,,,,,,,,,,,,,,,,,,,,,,,,,,,,,,,,,,,,,,,,,,,,,,,,,,,,,,,,,,,,,,,,,,,,,,,,,,,,,,,,,,,,,,,,,,,,,,,,,,,,,,,,,,,,,,,,,,,,,,,,,,,,,,,,,,,,,,,,,,
,,,,,59d00e3d46447f00011f0228,6682b41eeb79ab8215dff63d,6682b8cc8a1a2ffae6a7b7f7,53,f,English,2024-07-01_15h10.54.999,ABmemTask3,2023.2.3,MacIntel,59.88023952,,,,,,14.4268,16.9766,space,2.5183,,,,,,,,,,,,,,,,,,,,,,,,,,,,,,,,,,,,,,,,,,,,,,,,,,,,,,,,,,,,,,,,,,,,,,,,,,,,,,,,,,,,,,,,,,,,,,,,,,,,,,,,,,,,,,,,,,,,,,,,,,,,,,,,,,,,,,,,,,,,,,,,,,,,,,,,,,,,,,,,,,,,,,,,,,,,,,,,,,,,,,,,,,,,,,,,,,
,,,,,59d00e3d46447f00011f0228,6682b41eeb79ab8215dff63d,6682b8cc8a1a2ffae6a7b7f7,53,f,English,2024-07-01_15h10.54.999,ABmemTask3,2023.2.3,MacIntel,59.88023952,,,,,,,,,,,16.9768,18.6096,space,1.6124,,,,,,,,,,,,,,,,,,,,,,,,,,,,,,,,,,,,,,,,,,,,,,,,,,,,,,,,,,,,,,,,,,,,,,,,,,,,,,,,,,,,,,,,,,,,,,,,,,,,,,,,,,,,,,,,,,,,,,,,,,,,,,,,,,,,,,,,,,,,,,,,,,,,,,,,,,,,,,,,,,,,,,,,,,,,,,,,,,,,,,,,,,,,,
,,,,,59d00e3d46447f00011f0228,6682b41eeb79ab8215dff63d,6682b8cc8a1a2ffae6a7b7f7,53,f,English,2024-07-01_15h10.54.999,ABmemTask3,2023.2.3,MacIntel,59.88023952,,,,,,,,,,,,,,,,18.6098,20.4933,space,1.8546,,,,,,,,,,,,,,,,,,,,,,,,,,,,,,,,,,,,,,,,,,,,,,,,,,,,,,,,,,,,,,,,,,,,,,,,,,,,,,,,,,,,,,,,,,,,,,,,,,,,,,,,,,,,,,,,,,,,,,,,,,,,,,,,,,,,,,,,,,,,,,,,,,,,,,,,,,,,,,,,,,,,,,,,,,,,,,,,,,,,,,,,
,,,,,59d00e3d46447f00011f0228,6682b41eeb79ab8215dff63d,6682b8cc8a1a2ffae6a7b7f7,53,f,English,2024-07-01_15h10.54.999,ABmemTask3,2023.2.3,MacIntel,59.88023952,,,,,,,,,,,,,,,,,,,,,20.4935,30.6932,space,10.1708,,,,,,,,,,,,,,,,,,,,,,,,,,,,,,,,,,,,,,,,,,,,,,,,,,,,,,,,,,,,,,,,,,,,,,,,,,,,,,,,,,,,,,,,,,,,,,,,,,,,,,,,,,,,,,,,,,,,,,,,,,,,,,,,,,,,,,,,,,,,,,,,,,,,,,,,,,,,,,,,,,,,,,,,,,,,,,,,,,,
,,,,,59d00e3d46447f00011f0228,6682b41eeb79ab8215dff63d,6682b8cc8a1a2ffae6a7b7f7,53,f,English,2024-07-01_15h10.54.999,ABmemTask3,2023.2.3,MacIntel,59.88023952,,,,,,,,,,,,,,,,,,,,,,,,,,30.6934,57.1771,space,26.464,,,,,,,,,,,,,,,,,,,,,,,,,,,,,,,,,,,,,,,,,,,,,,,,,,,,,,,,,,,,,,,,,,,,,,,,,,,,,,,,,,,,,,,,,,,,,,,,,,,,,,,,,,,,,,,,,,,,,,,,,,,,,,,,,,,,,,,,,,,,,,,,,,,,,,,,,,,,,,,,,,,,,,,,,,,,,,
,,,,,59d00e3d46447f00011f0228,6682b41eeb79ab8215dff63d,6682b8cc8a1a2ffae6a7b7f7,53,f,English,2024-07-01_15h10.54.999,ABmemTask3,2023.2.3,MacIntel,59.88023952,,,,,,,,,,,,,,,,,,,,,,,,,,,,,,,57.1864,58.1768,58.177,15,58.6767,61.4269,0.0027,61.6764,0.2484,0.2488,0.2502,0.2505,0.25,0.2499,0.25,0.2502,0.2499,0.25,0.25,61.6776,64.3596,right,2.6534,,64.3596,65.9768,left,1.5994,,2,0,2,65.9771,66.9765,0,0,0,0,1,prac_AB,L1_T1P_T2A,1,1,0,6,7,5,5,12,cat,Did you see the cat,0.25,0,resources/,pics/shipinabottle.jpg,pics/table01.jpg,pics/dustpan.jpg,pics/golfball.jpg,pics/giraffe.jpg,pics/cat.jpg,pics/peanut01.jpg,pics/pictureframe04.jpg,pics/fanblades.jpg,pics/laptop01a.jpg,pics/ball02.jpg,pics/blender.jpg,blankImage,blankImage,blankImage,blankImage,blankImage,cat,8,,,,,,,,,,,,,,,,,,,,,,,,,,,,,,,,,,,,,,,,,,,,,,,,,,,,,,,,,,,,,,,,,,,,,,,,,,,,,,,,,,,,,,,,,,,,,,,,,,,,
,,,,,59d00e3d46447f00011f0228,6682b41eeb79ab8215dff63d,6682b8cc8a1a2ffae6a7b7f7,53,f,English,2024-07-01_15h10.54.999,ABmemTask3,2023.2.3,MacIntel,59.88023952,,,,,,,,,,,,,,,,,,,,,,,,,,,,,,,66.9852,67.9764,67.9764,14,68.476,70.5766,0.0012,70.8098,0.2335,0.2328,0.2333,0.2334,0.2333,0.2324,0.2343,0.2334,0.2334,,,70.8099,72.8596,left,2.0273,,72.8597,73.8598,right,0.9834,,2,0,4,73.8599,74.8593,0,1,1,1,1,prac_AB,L1_T1P_T2P,1,1,1,5,6,4,4,10,tree,Did you see the tree,0.24,0,resources/,pics/carrot01.jpg,pics/hammerheadshark.jpg,pics/kangaroo.jpg,pics/proboscismonkey.jpg,pics/tree.jpg,pics/stapler07.jpg,pics/siamesecat.jpg,pics/ball02.jpg,pics/pictureframe04.jpg,pics/mummy.jpg,blankImage,blankImage,blankImage,blankImage,blankImage,blankImage,blankImage,tree,1,,,,,,,,,,,,,,,,,,,,,,,,,,,,,,,,,,,,,,,,,,,,,,,,,,,,,,,,,,,,,,,,,,,,,,,,,,,,,,,,,,,,,,,,,,,,,,,,,,,,
,,,,,59d00e3d46447f00011f0228,6682b41eeb79ab8215dff63d,6682b8cc8a1a2ffae6a7b7f7,53,f,English,2024-07-01_15h10.54.999,ABmemTask3,2023.2.3,MacIntel,59.88023952,,,,,,,,,,,,,,,,,,,,,,,,,,,,,,,74.8692,75.8589,75.8589,14,76.3598,78.9268,0.0014,79.1598,0.2325,0.2335,0.2333,0.2333,0.2325,0.2343,0.2332,0.2333,0.2335,0.2333,0.2331,79.16,81.01,left,1.8325,,81.01,82.0266,right,0.9996,,4,0,6,82.0267,83.0265,0,2,2,2,1,prac_AB,L1_T1A_T2P,1,0,1,7,8,6,4,12,grapes,Did you see the grapes,0.23,0,resources/,pics/sailboat.jpg,pics/butterfly.jpg,pics/giraffe.jpg,pics/spoon01.jpg,pics/hose.jpg,pics/nutcracker01.jpg,pics/table01.jpg,pics/stapler13.jpg,pics/pencil01.jpg,pics/football.jpg,pics/triangle.jpg,pics/hairdryer02a.jpg,blankImage,blankImage,blankImage,blankImage,blankImage,grape01,6,,,,,,,,,,,,,,,,,,,,,,,,,,,,,,,,,,,,,,,,,,,,,,,,,,,,,,,,,,,,,,,,,,,,,,,,,,,,,,,,,,,,,,,,,,,,,,,,,,,,
,,,,,59d00e3d46447f00011f0228,6682b41eeb79ab8215dff63d,6682b8cc8a1a2ffae6a7b7f7,53,f,English,2024-07-01_15h10.54.999,ABmemTask3,2023.2.3,MacIntel,59.88023952,,,,,,,,,,,,,,,,,,,,,,,,,,,,,,,83.0381,84.0265,84.0267,13,84.5264,87.5602,0.0017,87.7764,0.2155,0.2169,0.2167,0.2166,0.2168,0.2165,0.2168,0.2154,0.2178,0.2166,0.2169,87.7765,88.8099,right,1.0114,,88.81,89.1765,right,0.3503,,6,0,8,89.1766,90.1764,0,3,3,3,1,prac_AB,L5_T1P_T2P,5,1,1,7,12,6,3,15,Human skull,Did you see the Human skull,0.22,0,resources/,pics/peach01.jpg,pics/proboscismonkey.jpg,pics/hose.jpg,pics/laptop01a.jpg,pics/hammerheadshark.jpg,pics/nutcracker01.jpg,pics/humanskull.jpg,pics/table01.jpg,pics/icecube01.jpg,pics/boot02b.jpg,pics/calendar.jpg,pics/stapler03a.jpg,pics/ashtray01.jpg,pics/giraffe.jpg,pics/dromedary.jpg,blankImage,blankImage,humanskull,12,0.2155,0.2179,0.2165,,,,,,,,,,,,,,,,,,,,,,,,,,,,,,,,,,,,,,,,,,,,,,,,,,,,,,,,,,,,,,,,,,,,,,,,,,,,,,,,,,,,,,,,,,,,,,,,,
,,,,,59d00e3d46447f00011f0228,6682b41eeb79ab8215dff63d,6682b8cc8a1a2ffae6a7b7f7,53,f,English,2024-07-01_15h10.54.999,ABmemTask3,2023.2.3,MacIntel,59.88023952,,,,,,,,,,,,,,,,,,,,,,,,,,,,,,,90.177,91.1765,91.1766,13,91.6756,93.8435,0.0012,94.0598,0.217,0.2155,0.2179,0.2157,0.2175,0.2168,0.2167,0.2166,0.2167,0.2165,,94.0599,95.4266,left,1.3435,,95.4267,95.9932,right,0.554,,8,0,10,95.9932,96.9931,0,4,4,4,1,prac_AB,L1_T1A_T2P,1,0,1,7,8,6,3,11,dog,Did you see the dog,0.21,0,resources/,pics/ball02.jpg,pics/binder03b.jpg,pics/dromedary.jpg,pics/shipinabottle.jpg,pics/proboscismonkey.jpg,pics/laptop01a.jpg,pics/chainsaw.jpg,pics/stapler13.jpg,pics/nutcracker01.jpg,pics/carrot01.jpg,pics/calendar.jpg,blankImage,blankImage,blankImage,blankImage,blankImage,blankImage,saintbernard,7,,,,,,,,,,,,,,,,,,,,,,,,,,,,,,,,,,,,,,,,,,,,,,,,,,,,,,,,,,,,,,,,,,,,,,,,,,,,,,,,,,,,,,,,,,,,,,,,,,,,
,,,,,59d00e3d46447f00011f0228,6682b41eeb79ab8215dff63d,6682b8cc8a1a2ffae6a7b7f7,53,f,English,2024-07-01_15h10.54.999,ABmemTask3,2023.2.3,MacIntel,59.88023952,,,,,,,,,,,,,,,,,,,,,,,,,,,,,,,96.9939,97.9932,97.9932,12,98.4932,101.2934,0.0015,101.4931,0.1993,0.2,0.1999,0.2001,0.1999,0.2,0.1991,0.2008,0.1999,0.2002,0.1999,101.4932,102.6432,right,1.1274,,102.6433,102.9765,right,0.3206,,10,0,12,102.9766,103.9764,0,5,5,5,1,prac_AB,L5_T1P_T2P,5,1,1,5,10,4,5,15,grater,Did you see the grater,0.2,0,resources/,pics/pencil01.jpg,pics/laptop01a.jpg,pics/hammerheadshark.jpg,pics/cork02.jpg,pics/grater01a.jpg,pics/shipinabottle.jpg,pics/binder03b.jpg,pics/dromedary.jpg,pics/pictureframe04.jpg,pics/stapler04b.jpg,pics/fanblades.jpg,pics/aquarium.jpg,pics/hairdryer02a.jpg,pics/lightswitch01.jpg,pics/piggybank.jpg,blankImage,blankImage,grater01a,11,0.2001,0.1999,0.2,,,,,,,,,,,,,,,,,,,,,,,,,,,,,,,,,,,,,,,,,,,,,,,,,,,,,,,,,,,,,,,,,,,,,,,,,,,,,,,,,,,,,,,,,,,,,,,,,
,,,,,59d00e3d46447f00011f0228,6682b41eeb79ab8215dff63d,6682b8cc8a1a2ffae6a7b7f7,53,f,English,2024-07-01_15h10.54.999,ABmemTask3,2023.2.3,MacIntel,59.88023952,,,,,,,,,,,,,,,,,,,,,,,,,,,,,,,103.9771,104.9765,104.9766,11,105.4765,106.9436,0.0014,107.1265,0.1826,0.1834,0.1831,0.1833,0.1834,0.1823,0.1844,0.1835,,,,107.1266,108.46,right,1.3117,,108.4601,109.4932,left,1.028,,12,0,14,109.4932,110.4931,0,6,6,6,1,prac_AB,L1_T1P_T2A,1,1,0,4,5,3,4,9,chalk,Did you see the chalk,0.19,0,resources/,pics/necklace.jpg,pics/starfish01.jpg,pics/safetypin.jpg,pics/chalk.jpg,pics/candleholder01.jpg,pics/bowtie.jpg,pics/match.jpg,pics/candle01.jpg,pics/pencilsharpener02a.jpg,blankImage,blankImage,blankImage,blankImage,blankImage,blankImage,blankImage,blankImage,chalk,9,,,,,,,,,,,,,,,,,,,,,,,,,,,,,,,,,,,,,,,,,,,,,,,,,,,,,,,,,,,,,,,,,,,,,,,,,,,,,,,,,,,,,,,,,,,,,,,,,,,,
,,,,,59d00e3d46447f00011f0228,6682b41eeb79ab8215dff63d,6682b8cc8a1a2ffae6a7b7f7,53,f,English,2024-07-01_15h10.54.999,ABmemTask3,2023.2.3,MacIntel,59.88023952,,,,,,,,,,,,,,,,,,,,,,,,,,,,,,,110.5029,111.4932,111.4933,11,111.9932,113.6436,0.001,113.8265,0.1829,0.1833,0.1834,0.1833,0.1833,0.1833,0.1831,0.1835,0.1834,,,113.8266,114.8599,right,1.0182,,114.86,115.1265,right,0.253,,14,0,16,115.1266,116.1266,0,7,7,7,1,prac_AB,L1_T1P_T2P,1,1,1,5,6,4,4,10,pants,Did you see the pants,0.18,0,resources/,pics/kangaroo.jpg,pics/safetypin.jpg,pics/salmon.jpg,pics/sandbarshark.jpg,pics/pants.jpg,pics/stapler03a.jpg,pics/sink.jpg,pics/calendar.jpg,pics/butterfly.jpg,pics/fanblades.jpg,blankImage,blankImage,blankImage,blankImage,blankImage,blankImage,blankImage,pants,2,,,,,,,,,,,,,,,,,,,,,,,,,,,,,,,,,,,,,,,,,,,,,,,,,,,,,,,,,,,,,,,,,,,,,,,,,,,,,,,,,,,,,,,,,,,,,,,,,,,,
,,,,,59d00e3d46447f00011f0228,6682b41eeb79ab8215dff63d,6682b8cc8a1a2ffae6a7b7f7,53,f,English,2024-07-01_15h10.54.999,ABmemTask3,2023.2.3,MacIntel,59.88023952,,,,,,,,,,,,,,,,,,,,,,,,,,,,,,,116.1272,117.1255,117.1256,10,117.6266,119.9602,0.0015,120.1265,0.1659,0.1665,0.1668,0.1666,0.1656,0.1677,0.1666,0.1657,0.1674,0.1669,0.1667,120.1266,121.4099,left,1.2602,,121.41,121.9267,right,0.5001,,16,0,18,121.9267,122.9255,0,8,8,8,1,prac_AB,L5_T1A_T2P,5,0,1,7,12,6,3,15,shirt,Did you see the shirt,0.17,0,resources/,pics/banjo.jpg,pics/chainsaw.jpg,pics/sailboat.jpg,pics/shipinabottle.jpg,pics/lightswitch01.jpg,pics/starfish01.jpg,pics/hen.jpg,pics/ball02.jpg,pics/bowlingpin.jpg,pics/hammerheadshark.jpg,pics/footballhelmet.jpg,pics/stapler10.jpg,pics/laptop01a.jpg,pics/cannon.jpg,pics/golfball.jpg,blankImage,blankImage,shirt02,13,0.1666,0.1667,0.1666,,,,,,,,,,,,,,,,,,,,,,,,,,,,,,,,,,,,,,,,,,,,,,,,,,,,,,,,,,,,,,,,,,,,,,,,,,,,,,,,,,,,,,,,,,,,,,,,,
,,,,,59d00e3d46447f00011f0228,6682b41eeb79ab8215dff63d,6682b8cc8a1a2ffae6a7b7f7,53,f,English,2024-07-01_15h10.54.999,ABmemTask3,2023.2.3,MacIntel,59.88023952,,,,,,,,,,,,,,,,,,,,,,,,,,,,,,,122.9261,123.9265,123.9266,10,124.4266,126.0936,0.0013,126.2598,0.1659,0.1667,0.1667,0.1667,0.1666,0.1667,0.1668,0.1667,0.1664,0.1667,,126.2599,127.4434,right,1.1607,,127.4435,128.2266,left,0.7678,,16,0,20,128.2267,129.2265,0,9,9,9,1,prac_AB,L1_T1P_T2P,1,1,1,7,8,6,3,11,tongs,Did you see the tongs,0.16,0,resources/,pics/sewingmachine01a.jpg,pics/shovel01.jpg,pics/football.jpg,pics/hen.jpg,pics/banjo.jpg,pics/zebra.jpg,pics/tongs01b.jpg,pics/stapler11.jpg,pics/shipinabottle.jpg,pics/match.jpg,pics/candle01.jpg,blankImage,blankImage,blankImage,blankImage,blankImage,blankImage,tongs01b,5,,,,,,,,,,,,,,,,,,,,,,,,,,,,,,,,,,,,,,,,,,,,,,,,,,,,,,,,,,,,,,,,,,,,,,,,,,,,,,,,,,,,,,,,,,,,,,,,,,,,
,,,,,59d00e3d46447f00011f0228,6682b41eeb79ab8215dff63d,6682b8cc8a1a2ffae6a7b7f7,53,f,English,2024-07-01_15h10.54.999,ABmemTask3,2023.2.3,MacIntel,59.88023952,,,,,,,,,,,,,,,,,,,,,,,,,,,,,,,129.2269,130.2266,130.2267,9,130.7265,132.3759,0.0014,132.5265,0.1493,0.1501,0.15,0.15,0.1487,0.1513,0.1499,0.1501,0.15,0.1497,0.1491,132.5266,133.7766,left,1.2273,,133.7767,135.0599,left,1.2677,,18,0,22,135.0599,136.0599,0,10,10,10,1,prac_AB,L1_T1A_T2A,1,0,0,7,8,6,4,12,camera,Did you see the camera,0.15,0,resources/,pics/lightswitch01.jpg,pics/table01.jpg,pics/aquarium.jpg,pics/boot02b.jpg,pics/butterfly.jpg,pics/chainsaw.jpg,pics/binoculars01b.jpg,pics/giraffe.jpg,pics/triangle.jpg,pics/microscope.jpg,pics/mummy.jpg,pics/icecube01.jpg,blankImage,blankImage,blankImage,blankImage,blankImage,camera01a,10,,,,,,,,,,,,,,,,,,,,,,,,,,,,,,,,,,,,,,,,,,,,,,,,,,,,,,,,,,,,,,,,,,,,,,,,,,,,,,,,,,,,,,,,,,,,,,,,,,,,
,,,,,59d00e3d46447f00011f0228,6682b41eeb79ab8215dff63d,6682b8cc8a1a2ffae6a7b7f7,53,f,English,2024-07-01_15h10.54.999,ABmemTask3,2023.2.3,MacIntel,59.88023952,,,,,,,,,,,,,,,,,,,,,,,,,,,,,,,136.0698,137.0599,137.06,8,137.5592,138.7603,0.0012,138.8932,0.1335,0.1334,0.1332,0.1335,0.1325,0.1341,0.1334,0.1333,0.1333,,,138.8933,140.0931,right,1.184,,140.0931,140.5266,right,0.4177,,20,0,24,140.5267,141.5266,0,11,11,11,1,prac_AB,L1_T1P_T2P,1,1,1,6,7,5,3,10,shorts,Did you see the shorts,0.14,0,resources/,pics/snowshoe.jpg,pics/chainsaw.jpg,pics/sailboat.jpg,pics/ball02.jpg,pics/candleholder01.jpg,pics/shorts01.jpg,pics/stapler07.jpg,pics/peach01.jpg,pics/proboscismonkey.jpg,pics/hen.jpg,blankImage,blankImage,blankImage,blankImage,blankImage,blankImage,blankImage,shorts01,4,,,,,,,,,,,,,,,,,,,,,,,,,,,,,,,,,,,,,,,,,,,,,,,,,,,,,,,,,,,,,,,,,,,,,,,,,,,,,,,,,,,,,,,,,,,,,,,,,,,,
,,,,,59d00e3d46447f00011f0228,6682b41eeb79ab8215dff63d,6682b8cc8a1a2ffae6a7b7f7,53,f,English,2024-07-01_15h10.54.999,ABmemTask3,2023.2.3,MacIntel,59.88023952,,,,,,,,,,,,,,,,,,,,,,,,,,,,,,,141.5375,142.5266,142.5266,8,143.0265,144.6269,0.0014,144.7598,0.1327,0.1332,0.1333,0.1334,0.1334,0.1334,0.1333,0.1333,0.1334,0.1333,0.1334,144.7598,145.7434,right,0.9619,,145.7435,146.51,left,0.7516,,22,0,26,146.5101,147.5099,0,12,12,12,1,prac_AB,L5_T1P_T2A,5,1,0,5,10,4,3,13,fish,Did you see the fish,0.13,0,resources/,pics/football.jpg,pics/safetypin.jpg,pics/shovel01.jpg,pics/sink.jpg,pics/holdfast.jpg,pics/nutcracker01.jpg,pics/starfish01.jpg,pics/onion.jpg,pics/footballhelmet.jpg,pics/boot02b.jpg,pics/sewingmachine01a.jpg,pics/kangaroo.jpg,pics/banjo.jpg,blankImage,blankImage,blankImage,blankImage,holdfast,14,0.1331,,,,,,,,,,,,,,,,,,,,,,,,,,,,,,,,,,,,,,,,,,,,,,,,,,,,,,,,,,,,,,,,,,,,,,,,,,,,,,,,,,,,,,,,,,,,,,,,,,,
,,,,,59d00e3d46447f00011f0228,6682b41eeb79ab8215dff63d,6682b8cc8a1a2ffae6a7b7f7,53,f,English,2024-07-01_15h10.54.999,ABmemTask3,2023.2.3,MacIntel,59.88023952,,,,,,,,,,,,,,,,,,,,,,,,,,,,,,,147.5197,148.5099,148.51,7,149.01,150.0605,0.001,150.1766,0.1165,0.1158,0.1175,0.1166,0.1166,0.1166,0.1167,0.1165,0.1168,,,150.1766,151.36,right,1.1663,,151.3601,152.16,left,0.784,,22,0,28,152.16,153.1599,0,13,13,13,1,prac_AB,L1_T1P_T2P,1,1,1,5,6,4,4,10,fish,Did you see the fish,0.12,0,resources/,pics/butterfly.jpg,pics/banjo.jpg,pics/leaf02a.jpg,pics/dustpan.jpg,pics/sturgeon.jpg,pics/stapler02.jpg,pics/necklace.jpg,pics/shovel01.jpg,pics/starfish01.jpg,pics/chainsaw.jpg,blankImage,blankImage,blankImage,blankImage,blankImage,blankImage,blankImage,sturgeon,3,,,,,,,,,,,,,,,,,,,,,,,,,,,,,,,,,,,,,,,,,,,,,,,,,,,,,,,,,,,,,,,,,,,,,,,,,,,,,,,,,,,,,,,,,,,,,,,,,,,,
,,,,,59d00e3d46447f00011f0228,6682b41eeb79ab8215dff63d,6682b8cc8a1a2ffae6a7b7f7,53,f,English,2024-07-01_15h10.54.999,ABmemTask3,2023.2.3,MacIntel,59.88023952,,,,,,,,,,,,,,,,,,,,,,,,,,,,,,,,,,,,,,,,,,,,,,,,,,,,,,,,,,,,,,,,,,,,,,,,,,,,,,,,,,,,,,,,,,,,,,,,,,,,,,,,,,,153.1612,155.3778,space,2.1881,,,,,,,,,,,,,,,,,,,,,,,,,,,,,,,,,,,,,,,,,,,,,,,,,,,,,,,,,,,,,,,,,,,,,,,,,,,,,,,,,,,,,,,,,,,,,
,,,,,59d00e3d46447f00011f0228,6682b41eeb79ab8215dff63d,6682b8cc8a1a2ffae6a7b7f7,53,f,English,2024-07-01_15h10.54.999,ABmemTask3,2023.2.3,MacIntel,59.88023952,,,,,,,,,,,,,,,,,,,,,,,,,,,,,,,,,,,,,,,,,,,,,,,,,,,,,,,,,,,,,,,,,,,,,,,,,,,,,,,,,,,,,,,,,,,,,,,,,,,,,,,,,,,155.3899,155.3923,,,,,,,,,,,,,,,,,,,,,,,,,,,,,,,,,,,,,,,,,,,,,,,,,,,,,,,,,,,,,,,,,,,,,,,,,,,,,,,,,,,,,,,,,,,,,,,
,,,,,59d00e3d46447f00011f0228,6682b41eeb79ab8215dff63d,6682b8cc8a1a2ffae6a7b7f7,53,f,English,2024-07-01_15h10.54.999,ABmemTask3,2023.2.3,MacIntel,59.88023952,,,,,,,,,,,,,,,,,,,,,,,,,,,,,,,,,,,,,,,,,,,,,,,,,,,,,,,,,,,,,,,,,,,,,,,,,,,,,,,,,,,,,,,,,,,,,,,,,,,,,,,,,,,155.3946,155.3946,,,,,,,,,,,,,,,,,,,,,,,,,,,,,,,,,,,,,,,,,,,,,,,,,,,,,,,,,,,,,,,,,,,,,,,,,,,,,,,,,,,,,,,,,,,,,,,
,,,,,59d00e3d46447f00011f0228,6682b41eeb79ab8215dff63d,6682b8cc8a1a2ffae6a7b7f7,53,f,English,2024-07-01_15h10.54.999,ABmemTask3,2023.2.3,MacIntel,59.88023952,,,,,,,,,,,,,,,,,,,,,,,,,,,,,,,,,,,,,,,,,,,,,,,,,,,,,,,,,,,,,,,,,,,,,,,,,,,,,,,,,,,,,,,,,,,,,,,,,,,,,,,,,,,155.3967,155.3967,,,,,,,,,,,,,,,,,,,,,,,,,,,,,,,,,,,,,,,,,,,,,,,,,,,,,,,,,,,,,,,,,,,,,,,,,,,,,,,,,,,,,,,,,,,,,,,
,,,,,59d00e3d46447f00011f0228,6682b41eeb79ab8215dff63d,6682b8cc8a1a2ffae6a7b7f7,53,f,English,2024-07-01_15h10.54.999,ABmemTask3,2023.2.3,MacIntel,59.88023952,,,,,,,,,,,,,,,,,,,,,,,,,,,,,,,,,,,,,,,,,,,,,,,,,,,,,,,,,,,,,,,,,,,,,,,,,,,,,,,,,,,,,,,,,,,,,,,,,,,,,,,,,,,155.3979,155.3979,,,,,,,,,,,,,,,,,,,,,,,,,,,,,,,,,,,,,,,,,,,,,,,,,,,,,,,,,,,,,,,,,,,,,,,,,,,,,,,,,,,,,,,,,,,,,,,
,,,,,59d00e3d46447f00011f0228,6682b41eeb79ab8215dff63d,6682b8cc8a1a2ffae6a7b7f7,53,f,English,2024-07-01_15h10.54.999,ABmemTask3,2023.2.3,MacIntel,59.88023952,,,,,,,,,,,,,,,,,,,,,,,,,,,,,,,,,,,,,,,,,,,,,,,,,,,,,,,,,,,,,,,,,,,,,,,,,,,,,,,,,,,,,,,,,,,,,,,,,,,,,,,,,,,155.3989,155.3989,,,,,,,,,,,,,,,,,,,,,,,,,,,,,,,,,,,,,,,,,,,,,,,,,,,,,,,,,,,,,,,,,,,,,,,,,,,,,,,,,,,,,,,,,,,,,,,
,,,,,59d00e3d46447f00011f0228,6682b41eeb79ab8215dff63d,6682b8cc8a1a2ffae6a7b7f7,53,f,English,2024-07-01_15h10.54.999,ABmemTask3,2023.2.3,MacIntel,59.88023952,,,,,,,,,,,,,,,,,,,,,,,,,,,,,,,,,,,,,,,,,,,,,,,,,,,,,,,,,,,,,,,,,,,,,,,,,,,,,,,,,,,,,,,,,,,,,,,,,,,,,,,,,,,155.3999,155.4,,,,,,,,,,,,,,,,,,,,,,,,,,,,,,,,,,,,,,,,,,,,,,,,,,,,,,,,,,,,,,,,,,,,,,,,,,,,,,,,,,,,,,,,,,,,,,,
,,,,,59d00e3d46447f00011f0228,6682b41eeb79ab8215dff63d,6682b8cc8a1a2ffae6a7b7f7,53,f,English,2024-07-01_15h10.54.999,ABmemTask3,2023.2.3,MacIntel,59.88023952,,,,,,,,,,,,,,,,,,,,,,,,,,,,,,,,,,,,,,,,,,,,,,,,,,,,,,,,,,,,,,,,,,,,,,,,,,,,,,,,,,,,,,,,,,,,,,,,,,,,,,,,,,,155.4015,155.4015,,,,,,,,,,,,,,,,,,,,,,,,,,,,,,,,,,,,,,,,,,,,,,,,,,,,,,,,,,,,,,,,,,,,,,,,,,,,,,,,,,,,,,,,,,,,,,,
,,,,,59d00e3d46447f00011f0228,6682b41eeb79ab8215dff63d,6682b8cc8a1a2ffae6a7b7f7,53,f,English,2024-07-01_15h10.54.999,ABmemTask3,2023.2.3,MacIntel,59.88023952,,,,,,,,,,,,,,,,,,,,,,,,,,,,,,,,,,,,,,,,,,,,,,,,,,,,,,,,,,,,,,,,,,,,,,,,,,,,,,,,,,,,,,,,,,,,,,,,,,,,,,,,,,,155.4024,155.4024,,,,,,,,,,,,,,,,,,,,,,,,,,,,,,,,,,,,,,,,,,,,,,,,,,,,,,,,,,,,,,,,,,,,,,,,,,,,,,,,,,,,,,,,,,,,,,,
,,,,,59d00e3d46447f00011f0228,6682b41eeb79ab8215dff63d,6682b8cc8a1a2ffae6a7b7f7,53,f,English,2024-07-01_15h10.54.999,ABmemTask3,2023.2.3,MacIntel,59.88023952,,,,,,,,,,,,,,,,,,,,,,,,,,,,,,,,,,,,,,,,,,,,,,,,,,,,,,,,,,,,,,,,,,,,,,,,,,,,,,,,,,,,,,,,,,,,,,,,,,,,,,,,,,,155.4031,155.4031,,,,,,,,,,,,,,,,,,,,,,,,,,,,,,,,,,,,,,,,,,,,,,,,,,,,,,,,,,,,,,,,,,,,,,,,,,,,,,,,,,,,,,,,,,,,,,,
,,,,,59d00e3d46447f00011f0228,6682b41eeb79ab8215dff63d,6682b8cc8a1a2ffae6a7b7f7,53,f,English,2024-07-01_15h10.54.999,ABmemTask3,2023.2.3,MacIntel,59.88023952,,,,,,,,,,,,,,,,,,,,,,,,,,,,,,,,,,,,,,,,,,,,,,,,,,,,,,,,,,,,,,,,,,,,,,,,,,,,,,,,,,,,,,,,,,,,,,,,,,,,,,,,,,,155.4039,155.4039,,,,,,,,,,,,,,,,,,,,,,,,,,,,,,,,,,,,,,,,,,,,,,,,,,,,,,,,,,,,,,,,,,,,,,,,,,,,,,,,,,,,,,,,,,,,,,,
,,,,,59d00e3d46447f00011f0228,6682b41eeb79ab8215dff63d,6682b8cc8a1a2ffae6a7b7f7,53,f,English,2024-07-01_15h10.54.999,ABmemTask3,2023.2.3,MacIntel,59.88023952,,,,,,,,,,,,,,,,,,,,,,,,,,,,,,,,,,,,,,,,,,,,,,,,,,,,,,,,,,,,,,,,,,,,,,,,,,,,,,,,,,,,,,,,,,,,,,,,,,,,,,,,,,,155.405,155.405,,,,,,,,,,,,,,,,,,,,,,,,,,,,,,,,,,,,,,,,,,,,,,,,,,,,,,,,,,,,,,,,,,,,,,,,,,,,,,,,,,,,,,,,,,,,,,,
,,,,,59d00e3d46447f00011f0228,6682b41eeb79ab8215dff63d,6682b8cc8a1a2ffae6a7b7f7,53,f,English,2024-07-01_15h10.54.999,ABmemTask3,2023.2.3,MacIntel,59.88023952,,,,,,,,,,,,,,,,,,,,,,,,,,,,,,,,,,,,,,,,,,,,,,,,,,,,,,,,,,,,,,,,,,,,,,,,,,,,,,,,,,,,,,,,,,,,,,,,,,,,,,,,,,,155.4057,155.4057,,,,,,,,,,,,,,,,,,,,,,,,,,,,,,,,,,,,,,,,,,,,,,,,,,,,,,,,,,,,,,,,,,,,,,,,,,,,,,,,,,,,,,,,,,,,,,,
,,,,,59d00e3d46447f00011f0228,6682b41eeb79ab8215dff63d,6682b8cc8a1a2ffae6a7b7f7,53,f,English,2024-07-01_15h10.54.999,ABmemTask3,2023.2.3,MacIntel,59.88023952,,,,,,,,,,,,,,,,,,,,,,,,,,,,,,,,,,,,,,,,,,,,,,,,,,,,,,,,,,,,,,,,,,,,,,,,,,,,,,,,,,,,,,,,,,,,,,,,,,,,,,,,,,,155.4065,155.4065,,,,,,,,,,,,,,,,,,,,,,,,,,,,,,,,,,,,,,,,,,,,,,,,,,,,,,,,,,,,,,,,,,,,,,,,,,,,,,,,,,,,,,,,,,,,,,,
,,,,,59d00e3d46447f00011f0228,6682b41eeb79ab8215dff63d,6682b8cc8a1a2ffae6a7b7f7,53,f,English,2024-07-01_15h10.54.999,ABmemTask3,2023.2.3,MacIntel,59.88023952,,,,,,,,,,,,,,,,,,,,,,,,,,,,,,,,,,,,,,,,,,,,,,,,,,,,,,,,,,,,,,,,,,,,,,,,,,,,,,,,,,,,,,,,,,,,,,,,,,,,,,,,,,,155.4076,155.4077,,,,,,,,,,,,,,,,,,,,,,,,,,,,,,,,,,,,,,,,,,,,,,,,,,,,,,,,,,,,,,,,,,,,,,,,,,,,,,,,,,,,,,,,,,,,,,,
,,,,,59d00e3d46447f00011f0228,6682b41eeb79ab8215dff63d,6682b8cc8a1a2ffae6a7b7f7,53,f,English,2024-07-01_15h10.54.999,ABmemTask3,2023.2.3,MacIntel,59.88023952,,,,,,,,,,,,,,,,,,,,,,,,,,,,,,,,,,,,,,,,,,,,,,,,,,,,,,,,,,,,,,,,,,,,,,,,,,,,,,,,,,,,,,,,,,,,,,,,,,,,,,,,,,,155.4083,155.4083,,,,,,,,,,,,,,,,,,,,,,,,,,,,,,,,,,,,,,,,,,,,,,,,,,,,,,,,,,,,,,,,,,,,,,,,,,,,,,,,,,,,,,,,,,,,,,,
,,,,,59d00e3d46447f00011f0228,6682b41eeb79ab8215dff63d,6682b8cc8a1a2ffae6a7b7f7,53,f,English,2024-07-01_15h10.54.999,ABmemTask3,2023.2.3,MacIntel,59.88023952,,,,,,,,,,,,,,,,,,,,,,,,,,,,,,,,,,,,,,,,,,,,,,,,,,,,,,,,,,,,,,,,,,,,,,,,,,,,,,,,,,,,,,,,,,,,,,,,,,,,,,,,,,,155.4089,155.4089,,,,,,,,,,,,,,,,,,,,,,,,,,,,,,,,,,,,,,,,,,,,,,,,,,,,,,,,,,,,,,,,,,,,,,,,,,,,,,,,,,,,,,,,,,,,,,,
,,,,,59d00e3d46447f00011f0228,6682b41eeb79ab8215dff63d,6682b8cc8a1a2ffae6a7b7f7,53,f,English,2024-07-01_15h10.54.999,ABmemTask3,2023.2.3,MacIntel,59.88023952,,,,,,,,,,,,,,,,,,,,,,,,,,,,,,,,,,,,,,,,,,,,,,,,,,,,,,,,,,,,,,,,,,,,,,,,,,,,,,,,,,,,,,,,,,,,,,,,,,,,,,,,,,,155.4096,155.4096,,,,,,,,,,,,,,,,,,,,,,,,,,,,,,,,,,,,,,,,,,,,,,,,,,,,,,,,,,,,,,,,,,,,,,,,,,,,,,,,,,,,,,,,,,,,,,,
,,,,,59d00e3d46447f00011f0228,6682b41eeb79ab8215dff63d,6682b8cc8a1a2ffae6a7b7f7,53,f,English,2024-07-01_15h10.54.999,ABmemTask3,2023.2.3,MacIntel,59.88023952,,,,,,,,,,,,,,,,,,,,,,,,,,,,,,,,,,,,,,,,,,,,,,,,,,,,,,,,,,,,,,,,,,,,,,,,,,,,,,,,,,,,,,,,,,,,,,,,,,,,,,,,,,,155.4105,155.4105,,,,,,,,,,,,,,,,,,,,,,,,,,,,,,,,,,,,,,,,,,,,,,,,,,,,,,,,,,,,,,,,,,,,,,,,,,,,,,,,,,,,,,,,,,,,,,,
,,,,,59d00e3d46447f00011f0228,6682b41eeb79ab8215dff63d,6682b8cc8a1a2ffae6a7b7f7,53,f,English,2024-07-01_15h10.54.999,ABmemTask3,2023.2.3,MacIntel,59.88023952,,,,,,,,,,,,,,,,,,,,,,,,,,,,,,,,,,,,,,,,,,,,,,,,,,,,,,,,,,,,,,,,,,,,,,,,,,,,,,,,,,,,,,,,,,,,,,,,,,,,,,,,,,,155.4111,155.4111,,,,,,,,,,,,,,,,,,,,,,,,,,,,,,,,,,,,,,,,,,,,,,,,,,,,,,,,,,,,,,,,,,,,,,,,,,,,,,,,,,,,,,,,,,,,,,,
,,,,,59d00e3d46447f00011f0228,6682b41eeb79ab8215dff63d,6682b8cc8a1a2ffae6a7b7f7,53,f,English,2024-07-01_15h10.54.999,ABmemTask3,2023.2.3,MacIntel,59.88023952,,,,,,,,,,,,,,,,,,,,,,,,,,,,,,,,,,,,,,,,,,,,,,,,,,,,,,,,,,,,,,,,,,,,,,,,,,,,,,,,,,,,,,,,,,,,,,,,,,,,,,,,,,,155.4117,155.4118,,,,,,,,,,,,,,,,,,,,,,,,,,,,,,,,,,,,,,,,,,,,,,,,,,,,,,,,,,,,,,,,,,,,,,,,,,,,,,,,,,,,,,,,,,,,,,,
,,,,,59d00e3d46447f00011f0228,6682b41eeb79ab8215dff63d,6682b8cc8a1a2ffae6a7b7f7,53,f,English,2024-07-01_15h10.54.999,ABmemTask3,2023.2.3,MacIntel,59.88023952,,,,,,,,,,,,,,,,,,,,,,,,,,,,,,,,,,,,,,,,,,,,,,,,,,,,,,,,,,,,,,,,,,,,,,,,,,,,,,,,,,,,,,,,,,,,,,,,,,,,,,,,,,,155.4125,155.4126,,,,,,,,,,,,,,,,,,,,,,,,,,,,,,,,,,,,,,,,,,,,,,,,,,,,,,,,,,,,,,,,,,,,,,,,,,,,,,,,,,,,,,,,,,,,,,,
,,,,,59d00e3d46447f00011f0228,6682b41eeb79ab8215dff63d,6682b8cc8a1a2ffae6a7b7f7,53,f,English,2024-07-01_15h10.54.999,ABmemTask3,2023.2.3,MacIntel,59.88023952,,,,,,,,,,,,,,,,,,,,,,,,,,,,,,,,,,,,,,,,,,,,,,,,,,,,,,,,,,,,,,,,,,,,,,,,,,,,,,,,,,,,,,,,,,,,,,,,,,,,,,,,,,,,,,,,155.4126,169.7447,space,14.3218,,,,,,,,,,,,,,,,,,,,,,,,,,,,,,,,,,,,,,,,,,,,,,,,,,,,,,,,,,,,,,,,,,,,,,,,,,,,,,,,,,,,,,,,
,,,,,59d00e3d46447f00011f0228,6682b41eeb79ab8215dff63d,6682b8cc8a1a2ffae6a7b7f7,53,f,English,2024-07-01_15h10.54.999,ABmemTask3,2023.2.3,MacIntel,59.88023952,,,,,,,,,,,,,,,,,,,,,,,,,,,,,,,,,169.7557,599,170.26,,,,,,,,,,,,,,,,,,,,,,,,,,0,,,,,,,,,prac_MEM,old,,,,,,,,,,,10,,,,,,,,,,,,,,,,,,,,,,,,,,,,,,,,,,,170.2603,174.1107,3,6,3.833,,174.1118,175.1102,0,0,0,4,1,5,1,pics/tongs01b.jpg,,,,,,,,,,,,,,,,,,,,,,,,,,,,,,,,,,,,,,,,,,,,,,,,,,,,,,,,,,,,,,,,,,,,,,,
,,,,,59d00e3d46447f00011f0228,6682b41eeb79ab8215dff63d,6682b8cc8a1a2ffae6a7b7f7,53,f,English,2024-07-01_15h10.54.999,ABmemTask3,2023.2.3,MacIntel,59.88023952,,,,,,,,,,,,,,,,,,,,,,,,,,,,,,,,,175.1218,599,175.61,,,,,,,,,,,,,,,,,,,,,,,,,,0,,,,,,,,,prac_MEM,new,,,,,,,,,,,10,,,,,,,,,,,,,,,,,,,,,,,,,,,,,,,,,,,175.61,178.3433,4,3,2.7179,,178.3439,179.3433,0,1,1,7,1,999,999,pics/cherry01.jpg,,,,,,,,,,,,,,,,,,,,,,,,,,,,,,,,,,,,,,,,,,,,,,,,,,,,,,,,,,,,,,,,,,,,,,,
,,,,,59d00e3d46447f00011f0228,6682b41eeb79ab8215dff63d,6682b8cc8a1a2ffae6a7b7f7,53,f,English,2024-07-01_15h10.54.999,ABmemTask3,2023.2.3,MacIntel,59.88023952,,,,,,,,,,,,,,,,,,,,,,,,,,,,,,,,,179.3532,599,179.8434,,,,,,,,,,,,,,,,,,,,,,,,,,0,,,,,,,,,prac_MEM,old,,,,,,,,,,,10,,,,,,,,,,,,,,,,,,,,,,,,,,,,,,,,,,,179.8435,183.7605,1,1,3.9089,,183.7614,184.7601,0,2,2,0,1,1,1,pics/tree.jpg,,,,,,,,,,,,,,,,,,,,,,,,,,,,,,,,,,,,,,,,,,,,,,,,,,,,,,,,,,,,,,,,,,,,,,,
,,,,,59d00e3d46447f00011f0228,6682b41eeb79ab8215dff63d,6682b8cc8a1a2ffae6a7b7f7,53,f,English,2024-07-01_15h10.54.999,ABmemTask3,2023.2.3,MacIntel,59.88023952,,,,,,,,,,,,,,,,,,,,,,,,,,,,,,,,,184.7699,599,185.26,,,,,,,,,,,,,,,,,,,,,,,,,,0,,,,,,,,,prac_MEM,new,,,,,,,,,,,10,,,,,,,,,,,,,,,,,,,,,,,,,,,,,,,,,,,185.26,187.6104,2,3,2.3418,,187.6106,188.6092,0,3,3,8,1,999,999,pics/thread02.jpg,,,,,,,,,,,,,,,,,,,,,,,,,,,,,,,,,,,,,,,,,,,,,,,,,,,,,,,,,,,,,,,,,,,,,,,
,,,,,59d00e3d46447f00011f0228,6682b41eeb79ab8215dff63d,6682b8cc8a1a2ffae6a7b7f7,53,f,English,2024-07-01_15h10.54.999,ABmemTask3,2023.2.3,MacIntel,59.88023952,,,,,,,,,,,,,,,,,,,,,,,,,,,,,,,,,188.6209,599,189.11,,,,,,,,,,,,,,,,,,,,,,,,,,0,,,,,,,,,prac_MEM,old,,,,,,,,,,,10,,,,,,,,,,,,,,,,,,,,,,,,,,,,,,,,,,,189.11,191.9268,5,6,2.8079,,191.9277,192.9267,0,4,4,2,1,3,1,pics/sturgeon.jpg,,,,,,,,,,,,,,,,,,,,,,,,,,,,,,,,,,,,,,,,,,,,,,,,,,,,,,,,,,,,,,,,,,,,,,,
,,,,,59d00e3d46447f00011f0228,6682b41eeb79ab8215dff63d,6682b8cc8a1a2ffae6a7b7f7,53,f,English,2024-07-01_15h10.54.999,ABmemTask3,2023.2.3,MacIntel,59.88023952,,,,,,,,,,,,,,,,,,,,,,,,,,,,,,,,,192.9366,599,193.4267,,,,,,,,,,,,,,,,,,,,,,,,,,0,,,,,,,,,prac_MEM,new,,,,,,,,,,,10,,,,,,,,,,,,,,,,,,,,,,,,,,,,,,,,,,,193.4267,195.2768,-4,6,1.8289,,195.277,196.2767,0,5,5,9,1,999,999,pics/moth.jpg,,,,,,,,,,,,,,,,,,,,,,,,,,,,,,,,,,,,,,,,,,,,,,,,,,,,,,,,,,,,,,,,,,,,,,,
,,,,,59d00e3d46447f00011f0228,6682b41eeb79ab8215dff63d,6682b8cc8a1a2ffae6a7b7f7,53,f,English,2024-07-01_15h10.54.999,ABmemTask3,2023.2.3,MacIntel,59.88023952,,,,,,,,,,,,,,,,,,,,,,,,,,,,,,,,,196.2869,599,196.7767,,,,,,,,,,,,,,,,,,,,,,,,,,0,,,,,,,,,prac_MEM,old,,,,,,,,,,,10,,,,,,,,,,,,,,,,,,,,,,,,,,,,,,,,,,,196.7768,199.1435,-2,5,2.3466,,199.1441,200.1434,0,6,6,5,1,11,5,pics/grater01a.jpg,,,,,,,,,,,,,,,,,,,,,,,,,,,,,,,,,,,,,,,,,,,,,,,,,,,,,,,,,,,,,,,,,,,,,,,
,,,,,59d00e3d46447f00011f0228,6682b41eeb79ab8215dff63d,6682b8cc8a1a2ffae6a7b7f7,53,f,English,2024-07-01_15h10.54.999,ABmemTask3,2023.2.3,MacIntel,59.88023952,,,,,,,,,,,,,,,,,,,,,,,,,,,,,,,,,200.1561,599,200.66,,,,,,,,,,,,,,,,,,,,,,,,,,0,,,,,,,,,prac_MEM,old,,,,,,,,,,,10,,,,,,,,,,,,,,,,,,,,,,,,,,,,,,,,,,,200.66,202.2104,1,6,1.5419,,202.211,203.2101,0,7,7,1,1,2,1,pics/pants.jpg,,,,,,,,,,,,,,,,,,,,,,,,,,,,,,,,,,,,,,,,,,,,,,,,,,,,,,,,,,,,,,,,,,,,,,,
,,,,,59d00e3d46447f00011f0228,6682b41eeb79ab8215dff63d,6682b8cc8a1a2ffae6a7b7f7,53,f,English,2024-07-01_15h10.54.999,ABmemTask3,2023.2.3,MacIntel,59.88023952,,,,,,,,,,,,,,,,,,,,,,,,,,,,,,,,,203.2107,599,203.71,,,,,,,,,,,,,,,,,,,,,,,,,,0,,,,,,,,,prac_MEM,old,,,,,,,,,,,10,,,,,,,,,,,,,,,,,,,,,,,,,,,,,,,,,,,203.71,205.1268,4,6,1.396,,205.127,206.1268,0,8,8,6,1,12,5,pics/humanskull.jpg,,,,,,,,,,,,,,,,,,,,,,,,,,,,,,,,,,,,,,,,,,,,,,,,,,,,,,,,,,,,,,,,,,,,,,,
,,,,,59d00e3d46447f00011f0228,6682b41eeb79ab8215dff63d,6682b8cc8a1a2ffae6a7b7f7,53,f,English,2024-07-01_15h10.54.999,ABmemTask3,2023.2.3,MacIntel,59.88023952,,,,,,,,,,,,,,,,,,,,,,,,,,,,,,,,,206.1382,599,206.6268,,,,,,,,,,,,,,,,,,,,,,,,,,0,,,,,,,,,prac_MEM,new,,,,,,,,,,,10,,,,,,,,,,,,,,,,,,,,,,,,,,,,,,,,,,,206.6268,210.7267,6,2,4.0918,,210.7273,211.7268,0,9,9,10,1,999,999,pics/tomato01.jpg,,,,,,,,,,,,,,,,,,,,,,,,,,,,,,,,,,,,,,,,,,,,,,,,,,,,,,,,,,,,,,,,,,,,,,,
,,,,,59d00e3d46447f00011f0228,6682b41eeb79ab8215dff63d,6682b8cc8a1a2ffae6a7b7f7,53,f,English,2024-07-01_15h10.54.999,ABmemTask3,2023.2.3,MacIntel,59.88023952,,,,,,,,,,,,,,,,,,,,,,,,,,,,,,,,,211.7365,599,212.2267,,,,,,,,,,,,,,,,,,,,,,,,,,0,,,,,,,,,prac_MEM,old,,,,,,,,,,,10,,,,,,,,,,,,,,,,,,,,,,,,,,,,,,,,,,,212.2268,215.8933,4,2,3.6589,,215.8939,216.8934,0,10,10,3,1,4,1,pics/shorts01.jpg,,,,,,,,,,,,,,,,,,,,,,,,,,,,,,,,,,,,,,,,,,,,,,,,,,,,,,,,,,,,,,,,,,,,,,,
,,,,,59d00e3d46447f00011f0228,6682b41eeb79ab8215dff63d,6682b8cc8a1a2ffae6a7b7f7,53,f,English,2024-07-01_15h10.54.999,ABmemTask3,2023.2.3,MacIntel,59.88023952,,,,,,,,,,,,,,,,,,,,,,,,,,,,,,,,,,,,,,,,,,,,,,,,,,,,,,,,,,,,,,,,,,,,,,,,,,,,,,,,,,,,,,,,,,,,,,,,,,,,,,,,,,,,,,,,,,,,,,,,,,,,,,,,,,,,,216.8939,218.9768,218.977,218.9773,,,,,,,,,,,,,,,,,,,,,,,,,,,,,,,,,,,,,,,,,,,,,,,,,,,,,,,,,,,,,,,,,,,
,,,,,59d00e3d46447f00011f0228,6682b41eeb79ab8215dff63d,6682b8cc8a1a2ffae6a7b7f7,53,f,English,2024-07-01_15h10.54.999,ABmemTask3,2023.2.3,MacIntel,59.88023952,,,,,,,,,,,,,,,,,,space,15.8484,,,,,,,,,,,,,,,,,,,,,,,,,,,,,,,,,,,,,,,,,,,,,,,,,,,,,,,,,,,,,,,,,,,,,,,,,,,,,,,,,,,,,,,,,,,,,,,,,,,,,,,,,,,,,,,,,,,,,,218.9775,234.8443,,,,,,,,,,,,,,,,,,,,,,,,,,,,,,,,,,,,,,,,,,,,,,,,,,,,,,,,,,,,,,,,,
,,,,,59d00e3d46447f00011f0228,6682b41eeb79ab8215dff63d,6682b8cc8a1a2ffae6a7b7f7,53,f,English,2024-07-01_15h10.54.999,ABmemTask3,2023.2.3,MacIntel,59.88023952,,,,,,,,,,,,,,,,,,,,,,,,,,,,,,,,,,,,,,,,,,,,,,,,,,,,,,,,,,,,,,,,,,,,,,,,,,,,,,,,,,,,,,,,,,,,,,,,,,,,,,,,,,,,,,,,,,,,,,,,,,,,,,,,,,,,,,,,,,,234.8445,244.2277,space,9.357,,,,,,,,,,,,,,,,,,,,,,,,,,,,,,,,,,,,,,,,,,,,,,,,,,,,,,,,,,,,,
,,,,,59d00e3d46447f00011f0228,6682b41eeb79ab8215dff63d,6682b8cc8a1a2ffae6a7b7f7,53,f,English,2024-07-01_15h10.54.999,ABmemTask3,2023.2.3,MacIntel,59.88023952,,,,,,,,,,,,,,,,,,,,,,,,,,,,,,,244.2393,245.2435,245.2435,7,245.7435,247.0273,0.0016,247.1435,0.1159,0.1165,0.1167,0.1166,0.1166,0.1165,0.1164,0.1171,0.1167,0.1168,0.1166,247.1437,248.1769,right,1.0141,,248.1769,248.9603,left,0.7668,,0,0,2,248.9605,249.9603,,,,,,1_AB,L1_T1P_T2P,1,1,1,6,7,5,5,12,Bear,Did you see the Bear,0.12,0,resources/,pics/necklace.jpg,pics/hen.jpg,pics/dromedary.jpg,pics/piggybank.jpg,pics/sandbarshark.jpg,pics/grizzly.jpg,pics/stapler12.jpg,pics/bowlingpin.jpg,pics/christmaslights.jpg,pics/icecube01.jpg,pics/match.jpg,pics/lock03a.jpg,blankImage,blankImage,blankImage,blankImage,blankImage,grizzly,18,,,,,,,,,,,,,,,,,,,,,,,,,,,,,,,,,,,,,,,,,0,0,0,17,1,,,,,,,,,,,,,,,,,,,,,,,,,,,,,,,,,,,,,,,,,,,,,,,,,,,,,,,
,,,,,59d00e3d46447f00011f0228,6682b41eeb79ab8215dff63d,6682b8cc8a1a2ffae6a7b7f7,53,f,English,2024-07-01_15h10.54.999,ABmemTask3,2023.2.3,MacIntel,59.88023952,,,,,,,,,,,,,,,,,,,,,,,,,,,,,,,249.9612,250.9602,250.9603,7,251.4601,252.3938,0.001,252.5102,0.1165,0.1165,0.1167,0.1167,0.1166,0.1168,0.1164,0.1169,,,,252.5103,253.7602,left,1.2321,,253.7603,254.2436,left,0.4704,,-2,0,4,254.2436,255.2435,,,,,,1_AB,L1_T1P_T2P,1,1,1,4,5,3,4,9,Chefs hat,Did you see the Chefs hat,0.12,0,resources/,pics/sewingmachine01a.jpg,pics/icecube01.jpg,pics/fanblades.jpg,pics/chefshat.jpg,pics/stapler06.jpg,pics/ashtray01.jpg,pics/blender.jpg,pics/sandbarshark.jpg,pics/lock03a.jpg,blankImage,blankImage,blankImage,blankImage,blankImage,blankImage,blankImage,blankImage,chefshat,12,,,,,,,,,,,,,,,,,,,,,,,,,,,,,,,,,,,,,,,,,0,1,1,11,1,,,,,,,,,,,,,,,,,,,,,,,,,,,,,,,,,,,,,,,,,,,,,,,,,,,,,,,
,,,,,59d00e3d46447f00011f0228,6682b41eeb79ab8215dff63d,6682b8cc8a1a2ffae6a7b7f7,53,f,English,2024-07-01_15h10.54.999,ABmemTask3,2023.2.3,MacIntel,59.88023952,,,,,,,,,,,,,,,,,,,,,,,,,,,,,,,255.2543,256.2435,256.2435,7,256.7435,258.144,0.0014,258.2602,0.116,0.1167,0.1166,0.1166,0.1167,0.1166,0.1166,0.1166,0.1168,0.1166,0.1167,258.2603,259.2934,left,1.0178,,259.2934,259.7269,right,0.417,,0,0,6,259.727,260.7268,,,,,,1_AB,L1_T1A_T2P,1,0,1,7,8,6,5,13,statue,Did you see the statue,0.12,0,resources/,pics/giraffe.jpg,pics/seaturtle.jpg,pics/peach01.jpg,pics/boot02b.jpg,pics/backpack01a.jpg,pics/sandbarshark.jpg,pics/microscope.jpg,pics/stapler07.jpg,pics/snowshoe.jpg,pics/laptop01a.jpg,pics/necklace.jpg,pics/zebra.jpg,pics/carrot01.jpg,blankImage,blankImage,blankImage,blankImage,statue,27,0.1165,,,,,,,,,,,,,,,,,,,,,,,,,,,,,,,,,,,,,,,,0,2,2,26,1,,,,,,,,,,,,,,,,,,,,,,,,,,,,,,,,,,,,,,,,,,,,,,,,,,,,,,,
,,,,,59d00e3d46447f00011f0228,6682b41eeb79ab8215dff63d,6682b8cc8a1a2ffae6a7b7f7,53,f,English,2024-07-01_15h10.54.999,ABmemTask3,2023.2.3,MacIntel,59.88023952,,,,,,,,,,,,,,,,,,,,,,,,,,,,,,,260.7276,261.7269,261.727,7,262.2269,263.1605,0.001,263.2768,0.1163,0.1166,0.1168,0.1168,0.1163,0.1169,0.1168,0.1164,,,,263.2769,264.3102,left,1.014,,264.3103,264.6769,left,0.3626,,0,0,8,264.677,265.6768,,,,,,1_AB,L1_T1A_T2P,1,0,1,5,6,4,3,9,Trailer,Did you see the Trailer,0.12,0,resources/,pics/pencil01.jpg,pics/football.jpg,pics/hairdryer02a.jpg,pics/wheel01.jpg,pics/chainsaw.jpg,pics/stapler10.jpg,pics/peanut01.jpg,pics/triangle.jpg,pics/sink.jpg,blankImage,blankImage,blankImage,blankImage,blankImage,blankImage,blankImage,blankImage,boxtrailer,29,,,,,,,,,,,,,,,,,,,,,,,,,,,,,,,,,,,,,,,,,0,3,3,28,1,,,,,,,,,,,,,,,,,,,,,,,,,,,,,,,,,,,,,,,,,,,,,,,,,,,,,,,
,,,,,59d00e3d46447f00011f0228,6682b41eeb79ab8215dff63d,6682b8cc8a1a2ffae6a7b7f7,53,f,English,2024-07-01_15h10.54.999,ABmemTask3,2023.2.3,MacIntel,59.88023952,,,,,,,,,,,,,,,,,,,,,,,,,,,,,,,265.6775,266.6769,266.677,7,267.1769,268.6939,0.0012,268.8102,0.1151,0.1174,0.1169,0.1167,0.1167,0.1167,0.1167,0.1168,0.1165,0.1167,0.1165,268.8103,269.5765,right,0.7504,,269.5766,270.0437,left,0.4618,,0,0,10,270.0437,271.0438,,,,,,1_AB,L5_T1P_T2P,5,1,1,4,9,3,5,14,pliers,Did you see the pliers,0.12,0,resources/,pics/calendar.jpg,pics/footballhelmet.jpg,pics/seaturtle.jpg,pics/pliers02b.jpg,pics/wheel01.jpg,pics/cannon.jpg,pics/proboscismonkey.jpg,pics/shovel01.jpg,pics/stapler06.jpg,pics/football.jpg,pics/hose.jpg,pics/dustpan.jpg,pics/spiderweb.jpg,pics/golfball.jpg,blankImage,blankImage,blankImage,pliers02b,48,0.1168,0.1168,,,,,,,,,,,,,,,,,,,,,,,,,,,,,,,,,,,,,,,0,4,4,47,1,,,,,,,,,,,,,,,,,,,,,,,,,,,,,,,,,,,,,,,,,,,,,,,,,,,,,,,
,,,,,59d00e3d46447f00011f0228,6682b41eeb79ab8215dff63d,6682b8cc8a1a2ffae6a7b7f7,53,f,English,2024-07-01_15h10.54.999,ABmemTask3,2023.2.3,MacIntel,59.88023952,,,,,,,,,,,,,,,,,,,,,,,,,,,,,,,271.0539,272.0427,272.0428,7,272.5435,273.9439,0.0014,274.0604,0.1161,0.1164,0.1169,0.1166,0.1167,0.1166,0.1164,0.1167,0.1167,0.1166,0.1168,274.0604,275.0771,right,0.9947,,275.0771,275.5103,left,0.4166,,0,0,12,275.5103,276.5102,,,,,,1_AB,L5_T1P_T2P,5,1,1,4,9,3,4,13,Forklift,Did you see the Forklift,0.12,0,resources/,pics/dustpan.jpg,pics/table01.jpg,pics/sink.jpg,pics/forklift.jpg,pics/dromedary.jpg,pics/proboscismonkey.jpg,pics/cymbal.jpg,pics/shovel01.jpg,pics/stapler10.jpg,pics/backpack01a.jpg,pics/binder03b.jpg,pics/banjo.jpg,pics/candleholder01.jpg,blankImage,blankImage,blankImage,blankImage,forklift,47,0.1164,,,,,,,,,,,,,,,,,,,,,,,,,,,,,,,,,,,,,,,,0,5,5,46,1,,,,,,,,,,,,,,,,,,,,,,,,,,,,,,,,,,,,,,,,,,,,,,,,,,,,,,,
,,,,,59d00e3d46447f00011f0228,6682b41eeb79ab8215dff63d,6682b8cc8a1a2ffae6a7b7f7,53,f,English,2024-07-01_15h10.54.999,ABmemTask3,2023.2.3,MacIntel,59.88023952,,,,,,,,,,,,,,,,,,,,,,,,,,,,,,,276.5109,277.5103,277.5104,7,278.0102,279.5273,0.0013,279.6436,0.116,0.1166,0.1168,0.1167,0.1165,0.1168,0.1167,0.1164,0.1163,0.1171,0.1169,279.6436,280.6937,right,1.0272,,280.6938,281.0938,left,0.3952,,0,0,14,281.0939,282.0936,,,,,,1_AB,L5_T1P_T2P,5,1,1,4,9,3,5,14,asparagus,Did you see the asparagus,0.12,0,resources/,pics/siamesecat.jpg,pics/starfish01.jpg,pics/aquarium.jpg,pics/asparagus.jpg,pics/salmon.jpg,pics/binoculars01b.jpg,pics/ball02.jpg,pics/calendar.jpg,pics/stapler10.jpg,pics/giraffe.jpg,pics/dromedary.jpg,pics/seaturtle.jpg,pics/sandbarshark.jpg,pics/shipinabottle.jpg,blankImage,blankImage,blankImage,asparagus,44,0.1166,0.1165,,,,,,,,,,,,,,,,,,,,,,,,,,,,,,,,,,,,,,,0,6,6,43,1,,,,,,,,,,,,,,,,,,,,,,,,,,,,,,,,,,,,,,,,,,,,,,,,,,,,,,,
,,,,,59d00e3d46447f00011f0228,6682b41eeb79ab8215dff63d,6682b8cc8a1a2ffae6a7b7f7,53,f,English,2024-07-01_15h10.54.999,ABmemTask3,2023.2.3,MacIntel,59.88023952,,,,,,,,,,,,,,,,,,,,,,,,,,,,,,,282.0943,283.0936,283.0936,7,283.5928,285.2274,0.001,285.3437,0.1163,0.1176,0.1165,0.1169,0.1166,0.1167,0.1167,0.1166,0.1166,0.1167,0.1165,285.3437,285.9095,right,0.546,,285.9095,286.3436,right,0.4203,,2,0,16,286.3437,287.3436,,,,,,1_AB,L5_T1P_T2P,5,1,1,5,10,4,5,15,ribbon,Did you see the ribbon,0.12,0,resources/,pics/giraffe.jpg,pics/boot02b.jpg,pics/cymbal.jpg,pics/leaf02a.jpg,pics/ribbon04.jpg,pics/lightswitch01.jpg,pics/necklace.jpg,pics/calendar.jpg,pics/kangaroo.jpg,pics/stapler12.jpg,pics/hose.jpg,pics/carrot01.jpg,pics/match.jpg,pics/sink.jpg,pics/candleholder01.jpg,blankImage,blankImage,ribbon04,53,0.1157,0.1167,0.1178,,,,,,,,,,,,,,,,,,,,,,,,,,,,,,,,,,,,,,0,7,7,52,1,,,,,,,,,,,,,,,,,,,,,,,,,,,,,,,,,,,,,,,,,,,,,,,,,,,,,,,
,,,,,59d00e3d46447f00011f0228,6682b41eeb79ab8215dff63d,6682b8cc8a1a2ffae6a7b7f7,53,f,English,2024-07-01_15h10.54.999,ABmemTask3,2023.2.3,MacIntel,59.88023952,,,,,,,,,,,,,,,,,,,,,,,,,,,,,,,287.3443,288.3436,288.3437,7,288.8436,290.4773,0.0013,290.5936,0.116,0.1158,0.1176,0.1168,0.1167,0.1166,0.1167,0.1166,0.1167,0.1166,0.1167,290.5937,291.4437,left,0.8279,,291.4438,292.7604,right,1.3,,4,0,18,292.7604,293.7603,,,,,,1_AB,L5_T1A_T2P,5,0,1,7,12,6,3,15,scissors,Did you see the scissors,0.12,0,resources/,pics/cannon.jpg,pics/mummy.jpg,pics/shovel01.jpg,pics/christmaslights.jpg,pics/snowshoe.jpg,pics/candle01.jpg,pics/bowtie.jpg,pics/giraffe.jpg,pics/carrot01.jpg,pics/spoon01.jpg,pics/seaturtle.jpg,pics/stapler10.jpg,pics/footballhelmet.jpg,pics/onion.jpg,pics/wheel01.jpg,blankImage,blankImage,scissors01,57,0.1167,0.1167,0.1166,,,,,,,,,,,,,,,,,,,,,,,,,,,,,,,,,,,,,,0,8,8,56,1,,,,,,,,,,,,,,,,,,,,,,,,,,,,,,,,,,,,,,,,,,,,,,,,,,,,,,,
,,,,,59d00e3d46447f00011f0228,6682b41eeb79ab8215dff63d,6682b8cc8a1a2ffae6a7b7f7,53,f,English,2024-07-01_15h10.54.999,ABmemTask3,2023.2.3,MacIntel,59.88023952,,,,,,,,,,,,,,,,,,,,,,,,,,,,,,,293.7715,294.7602,294.7603,7,295.2593,296.3101,0.001,296.4269,0.1173,0.1164,0.1171,0.1166,0.1164,0.1169,0.1166,0.1168,0.1156,,,296.4269,297.4606,left,1.0137,,297.4607,298.5606,right,1.0952,,6,0,20,298.5607,299.5603,,,,,,1_AB,L1_T1A_T2P,1,0,1,5,6,4,4,10,button,Did you see the button,0.12,0,resources/,pics/pencil01.jpg,pics/necklace.jpg,pics/sink.jpg,pics/noparkingsign.jpg,pics/banjo.jpg,pics/stapler03b.jpg,pics/candle01.jpg,pics/icecube01.jpg,pics/shovel01.jpg,pics/pencilsharpener02a.jpg,blankImage,blankImage,blankImage,blankImage,blankImage,blankImage,blankImage,button01,25,,,,,,,,,,,,,,,,,,,,,,,,,,,,,,,,,,,,,,,,,0,9,9,24,1,,,,,,,,,,,,,,,,,,,,,,,,,,,,,,,,,,,,,,,,,,,,,,,,,,,,,,,
,,,,,59d00e3d46447f00011f0228,6682b41eeb79ab8215dff63d,6682b8cc8a1a2ffae6a7b7f7,53,f,English,2024-07-01_15h10.54.999,ABmemTask3,2023.2.3,MacIntel,59.88023952,,,,,,,,,,,,,,,,,,,,,,,,,,,,,,,299.5709,300.5603,300.5603,7,301.0603,302.2265,0.0012,302.3438,0.1163,0.1166,0.1166,0.1167,0.1166,0.1167,0.1167,0.1167,0.1166,0.1156,,302.3438,303.527,left,1.1606,,303.5271,304.5938,right,1.0497,,8,0,22,304.5939,305.5936,,,,,,1_AB,L1_T1A_T2P,1,0,1,5,6,4,5,11,Recorder,Did you see the Recorder,0.12,0,resources/,pics/bowtie.jpg,pics/nutcracker01.jpg,pics/hairdryer02a.jpg,pics/shovel01.jpg,pics/onion.jpg,pics/stapler13.jpg,pics/safetypin.jpg,pics/spiderweb.jpg,pics/seagull.jpg,pics/dustpan.jpg,pics/icecube01.jpg,blankImage,blankImage,blankImage,blankImage,blankImage,blankImage,recorder04,28,,,,,,,,,,,,,,,,,,,,,,,,,,,,,,,,,,,,,,,,,0,10,10,27,1,,,,,,,,,,,,,,,,,,,,,,,,,,,,,,,,,,,,,,,,,,,,,,,,,,,,,,,
,,,,,59d00e3d46447f00011f0228,6682b41eeb79ab8215dff63d,6682b8cc8a1a2ffae6a7b7f7,53,f,English,2024-07-01_15h10.54.999,ABmemTask3,2023.2.3,MacIntel,59.88023952,,,,,,,,,,,,,,,,,,,,,,,,,,,,,,,305.6027,306.5936,306.5937,7,307.0933,308.3775,0.0008,308.4937,0.1169,0.1155,0.1178,0.1159,0.1172,0.1169,0.1166,0.1168,0.1156,0.1176,0.1167,308.4937,309.1772,right,0.6608,,309.1773,309.7438,right,0.5487,,10,0,24,309.7439,310.7436,,,,,,1_AB,L5_T1P_T2P,5,1,1,4,9,3,3,12,Sheep,Did you see the Sheep,0.12,0,resources/,pics/icecube01.jpg,pics/cymbal.jpg,pics/wheel01.jpg,pics/sheep.jpg,pics/starfish01.jpg,pics/safetypin.jpg,pics/siamesecat.jpg,pics/lock03a.jpg,pics/stapler01.jpg,pics/sink.jpg,pics/fanblades.jpg,pics/bowlingpin.jpg,blankImage,blankImage,blankImage,blankImage,blankImage,sheep,52,,,,,,,,,,,,,,,,,,,,,,,,,,,,,,,,,,,,,,,,,0,11,11,51,1,,,,,,,,,,,,,,,,,,,,,,,,,,,,,,,,,,,,,,,,,,,,,,,,,,,,,,,
,,,,,59d00e3d46447f00011f0228,6682b41eeb79ab8215dff63d,6682b8cc8a1a2ffae6a7b7f7,53,f,English,2024-07-01_15h10.54.999,ABmemTask3,2023.2.3,MacIntel,59.88023952,,,,,,,,,,,,,,,,,,,,,,,,,,,,,,,310.7443,311.7437,311.7439,7,312.2436,313.5274,0.0016,313.6436,0.1159,0.1168,0.1157,0.1174,0.1167,0.1167,0.1158,0.1175,0.1166,0.1166,0.1168,313.6438,314.6438,right,0.9828,,314.6439,315.1771,left,0.5229,,10,0,26,315.1771,316.1771,,,,,,1_AB,L1_T1P_T2P,1,1,1,6,7,5,5,12,jeep,Did you see the jeep,0.12,0,resources/,pics/sandbarshark.jpg,pics/laptop01a.jpg,pics/peach01.jpg,pics/binoculars01b.jpg,pics/giraffe.jpg,pics/jeep.jpg,pics/stapler03b.jpg,pics/fanblades.jpg,pics/cannon.jpg,pics/starfish01.jpg,pics/piggybank.jpg,pics/noparkingsign.jpg,blankImage,blankImage,blankImage,blankImage,blankImage,jeep,2,,,,,,,,,,,,,,,,,,,,,,,,,,,,,,,,,,,,,,,,,0,12,12,1,1,,,,,,,,,,,,,,,,,,,,,,,,,,,,,,,,,,,,,,,,,,,,,,,,,,,,,,,
,,,,,59d00e3d46447f00011f0228,6682b41eeb79ab8215dff63d,6682b8cc8a1a2ffae6a7b7f7,53,f,English,2024-07-01_15h10.54.999,ABmemTask3,2023.2.3,MacIntel,59.88023952,,,,,,,,,,,,,,,,,,,,,,,,,,,,,,,316.1778,317.1771,317.1771,7,317.6771,319.3109,0.0011,319.4271,0.1164,0.1157,0.1176,0.1166,0.1167,0.116,0.1173,0.1159,0.1162,0.1178,0.1164,319.4271,321.0768,left,1.6385,,321.0769,321.5605,right,0.4682,,12,0,28,321.5605,322.5603,,,,,,1_AB,L5_T1A_T2P,5,0,1,5,10,4,5,15,scorpion,Did you see the scorpion,0.12,0,resources/,pics/pictureframe04.jpg,pics/binder03b.jpg,pics/pencil01.jpg,pics/leaf02a.jpg,pics/icecube01.jpg,pics/dromedary.jpg,pics/toiletpaper01a.jpg,pics/peanut01.jpg,pics/golfball.jpg,pics/stapler03.jpg,pics/carrot01.jpg,pics/peach01.jpg,pics/sealion.jpg,pics/football.jpg,pics/zebra.jpg,blankImage,blankImage,scorpion,54,0.117,0.1168,0.1167,,,,,,,,,,,,,,,,,,,,,,,,,,,,,,,,,,,,,,0,13,13,53,1,,,,,,,,,,,,,,,,,,,,,,,,,,,,,,,,,,,,,,,,,,,,,,,,,,,,,,,
,,,,,59d00e3d46447f00011f0228,6682b41eeb79ab8215dff63d,6682b8cc8a1a2ffae6a7b7f7,53,f,English,2024-07-01_15h10.54.999,ABmemTask3,2023.2.3,MacIntel,59.88023952,,,,,,,,,,,,,,,,,,,,,,,,,,,,,,,322.561,323.5604,323.5605,7,324.0603,325.3441,0.0014,325.4603,0.1162,0.1165,0.1168,0.1167,0.1166,0.1166,0.1168,0.1166,0.1166,0.1168,0.1164,325.4605,326.4772,right,0.9935,,326.4773,326.9606,left,0.4686,,12,0,30,326.9606,327.9604,,,,,,1_AB,L1_T1P_T2P,1,1,1,7,8,6,4,12,hammer,Did you see the hammer,0.12,0,resources/,pics/microscope.jpg,pics/blender.jpg,pics/dustpan.jpg,pics/snowshoe.jpg,pics/mummy.jpg,pics/bowtie.jpg,pics/hammer01.jpg,pics/stapler04b.jpg,pics/seaturtle.jpg,pics/candle01.jpg,pics/necklace.jpg,pics/cannon.jpg,blankImage,blankImage,blankImage,blankImage,blankImage,hammer01,21,,,,,,,,,,,,,,,,,,,,,,,,,,,,,,,,,,,,,,,,,0,14,14,20,1,,,,,,,,,,,,,,,,,,,,,,,,,,,,,,,,,,,,,,,,,,,,,,,,,,,,,,,
,,,,,59d00e3d46447f00011f0228,6682b41eeb79ab8215dff63d,6682b8cc8a1a2ffae6a7b7f7,53,f,English,2024-07-01_15h10.54.999,ABmemTask3,2023.2.3,MacIntel,59.88023952,,,,,,,,,,,,,,,,,,,,,,,,,,,,,,,327.9612,328.9603,328.9605,7,329.4604,330.5107,0.0012,330.6271,0.1162,0.1166,0.1166,0.1158,0.1176,0.1165,0.1158,0.1165,0.1176,,,330.6272,333.2438,left,2.5949,,333.244,334.5273,right,1.2672,,8,0,32,334.5274,335.5271,,,,,,1_AB,L1_T1P_T2A,1,1,0,6,7,5,3,10,Electric toothbrush,Did you see the Electric toothbrush,0.12,0,resources/,pics/football.jpg,pics/sailboat.jpg,pics/cymbal.jpg,pics/hen.jpg,pics/pencil01.jpg,pics/electrictoothbrush01c.jpg,pics/bowlingpin.jpg,pics/wheel01.jpg,pics/birdhouse.jpg,pics/leaf02a.jpg,blankImage,blankImage,blankImage,blankImage,blankImage,blankImage,blankImage,electrictoothbrush01c,34,,,,,,,,,,,,,,,,,,,,,,,,,,,,,,,,,,,,,,,,,0,15,15,33,1,,,,,,,,,,,,,,,,,,,,,,,,,,,,,,,,,,,,,,,,,,,,,,,,,,,,,,,
,,,,,59d00e3d46447f00011f0228,6682b41eeb79ab8215dff63d,6682b8cc8a1a2ffae6a7b7f7,53,f,English,2024-07-01_15h10.54.999,ABmemTask3,2023.2.3,MacIntel,59.88023952,,,,,,,,,,,,,,,,,,,,,,,,,,,,,,,335.5362,336.527,336.5272,7,337.0271,338.3108,0.0013,338.4271,0.1161,0.1167,0.1166,0.1167,0.1166,0.1166,0.1167,0.1168,0.1166,0.1165,0.1168,338.4272,339.3938,left,0.9497,,339.3939,339.9098,right,0.5019,,8,0,34,339.9098,340.9104,,,,,,1_AB,L1_T1P_T2P,1,1,1,7,8,6,4,12,Turnstile,Did you see the Turnstile,0.12,0,resources/,pics/golfball.jpg,pics/hose.jpg,pics/siamesecat.jpg,pics/binoculars01b.jpg,pics/hen.jpg,pics/candleholder01.jpg,pics/turnstile.jpg,pics/stapler03a.jpg,pics/giraffe.jpg,pics/pictureframe04.jpg,pics/sandbarshark.jpg,pics/spoon01.jpg,blankImage,blankImage,blankImage,blankImage,blankImage,turnstile,13,,,,,,,,,,,,,,,,,,,,,,,,,,,,,,,,,,,,,,,,,0,16,16,12,1,,,,,,,,,,,,,,,,,,,,,,,,,,,,,,,,,,,,,,,,,,,,,,,,,,,,,,,
,,,,,59d00e3d46447f00011f0228,6682b41eeb79ab8215dff63d,6682b8cc8a1a2ffae6a7b7f7,53,f,English,2024-07-01_15h10.54.999,ABmemTask3,2023.2.3,MacIntel,59.88023952,,,,,,,,,,,,,,,,,,,,,,,,,,,,,,,340.9224,341.9105,341.9105,7,342.4104,343.3441,0.0011,343.4604,0.1163,0.1166,0.1166,0.1169,0.1164,0.1158,0.1176,0.1167,,,,343.4606,344.3272,right,0.8446,,344.3274,344.8771,left,0.535,,8,0,36,344.8772,345.8771,,,,,,1_AB,L1_T1P_T2P,1,1,1,4,5,3,4,9,antenna,Did you see the antenna,0.12,0,resources/,pics/microscope.jpg,pics/spoon01.jpg,pics/dromedary.jpg,pics/antenna.jpg,pics/stapler03.jpg,pics/hen.jpg,pics/leaf02a.jpg,pics/candle01.jpg,pics/sealion.jpg,blankImage,blankImage,blankImage,blankImage,blankImage,blankImage,blankImage,blankImage,antenna,9,,,,,,,,,,,,,,,,,,,,,,,,,,,,,,,,,,,,,,,,,0,17,17,8,1,,,,,,,,,,,,,,,,,,,,,,,,,,,,,,,,,,,,,,,,,,,,,,,,,,,,,,,
,,,,,59d00e3d46447f00011f0228,6682b41eeb79ab8215dff63d,6682b8cc8a1a2ffae6a7b7f7,53,f,English,2024-07-01_15h10.54.999,ABmemTask3,2023.2.3,MacIntel,59.88023952,,,,,,,,,,,,,,,,,,,,,,,,,,,,,,,345.8779,346.877,346.877,7,347.3771,349.1276,0.0013,349.2437,0.1161,0.1167,0.1166,0.1167,0.1167,0.1165,0.1167,0.1166,0.1169,0.1166,0.1167,349.2438,350.2105,right,0.9462,,350.2105,350.6272,right,0.4122,,6,0,38,350.6273,351.6272,,,,,,1_AB,L5_T1P_T2A,5,1,0,7,12,6,4,16,boat,Did you see the boat,0.12,0,resources/,pics/butterfly.jpg,pics/onion.jpg,pics/hose.jpg,pics/ball02.jpg,pics/ashtray01.jpg,pics/bowtie.jpg,pics/boat.jpg,pics/seaturtle.jpg,pics/blender.jpg,pics/zebra.jpg,pics/pictureframe04.jpg,pics/shovel01.jpg,pics/spoon01.jpg,pics/peanut01.jpg,pics/nutcracker01.jpg,pics/aquarium.jpg,blankImage,boat,60,0.1167,0.1166,0.1166,,,,,,,,,,,,,,,,,,,,,,,,,,,,,,,,,,,,,,0,18,18,59,1,0.1166,,,,,,,,,,,,,,,,,,,,,,,,,,,,,,,,,,,,,,,,,,,,,,,,,,,,,,
,,,,,59d00e3d46447f00011f0228,6682b41eeb79ab8215dff63d,6682b8cc8a1a2ffae6a7b7f7,53,f,English,2024-07-01_15h10.54.999,ABmemTask3,2023.2.3,MacIntel,59.88023952,,,,,,,,,,,,,,,,,,,,,,,,,,,,,,,351.6277,352.6272,352.6272,7,353.1271,354.2941,0.0012,354.4104,0.1152,0.1176,0.1166,0.1168,0.1167,0.1166,0.1166,0.116,0.1175,0.1166,,354.4105,355.2939,left,0.861,,355.2939,356.2939,right,0.9829,,6,0,40,356.2939,357.2939,,,,,,1_AB,L1_T1P_T2P,1,1,1,7,8,6,3,11,sock,Did you see the sock,0.12,0,resources/,pics/hen.jpg,pics/christmaslights.jpg,pics/salmon.jpg,pics/sealion.jpg,pics/seaturtle.jpg,pics/giraffe.jpg,pics/athleticsock.jpg,pics/stapler01.jpg,pics/shovel01.jpg,pics/leaf02a.jpg,pics/backpack01a.jpg,blankImage,blankImage,blankImage,blankImage,blankImage,blankImage,athleticsock,11,,,,,,,,,,,,,,,,,,,,,,,,,,,,,,,,,,,,,,,,,0,19,19,10,1,,,,,,,,,,,,,,,,,,,,,,,,,,,,,,,,,,,,,,,,,,,,,,,,,,,,,,,
,,,,,59d00e3d46447f00011f0228,6682b41eeb79ab8215dff63d,6682b8cc8a1a2ffae6a7b7f7,53,f,English,2024-07-01_15h10.54.999,ABmemTask3,2023.2.3,MacIntel,59.88023952,,,,,,,,,,,,,,,,,,,,,,,,,,,,,,,357.3034,358.2938,358.2938,7,358.7939,359.6109,0.0011,359.7262,0.1162,0.1167,0.1167,0.1155,0.1168,0.1178,0.1166,,,,,359.7263,360.7439,left,0.9947,,360.744,362.8939,right,2.1335,,8,0,42,362.894,363.8939,,,,,,1_AB,L1_T1A_T2P,1,0,1,4,5,3,3,8,Parking meter,Did you see the Parking meter,0.12,0,resources/,pics/leaf02a.jpg,pics/carrot01.jpg,pics/sink.jpg,pics/butterfly.jpg,pics/stapler10.jpg,pics/pictureframe04.jpg,pics/spiderweb.jpg,pics/icecube01.jpg,blankImage,blankImage,blankImage,blankImage,blankImage,blankImage,blankImage,blankImage,blankImage,parkingmeter,30,,,,,,,,,,,,,,,,,,,,,,,,,,,,,,,,,,,,,,,,,0,20,20,29,1,,,,,,,,,,,,,,,,,,,,,,,,,,,,,,,,,,,,,,,,,,,,,,,,,,,,,,,
,,,,,59d00e3d46447f00011f0228,6682b41eeb79ab8215dff63d,6682b8cc8a1a2ffae6a7b7f7,53,f,English,2024-07-01_15h10.54.999,ABmemTask3,2023.2.3,MacIntel,59.88023952,,,,,,,,,,,,,,,,,,,,,,,,,,,,,,,363.9035,364.8938,364.8939,7,365.3938,366.6776,0.0012,366.7939,0.1162,0.1166,0.1167,0.1167,0.1159,0.1174,0.1166,0.1167,0.1167,0.1157,0.1177,366.794,368.2763,left,1.4623,,368.2764,368.744,right,0.4515,,10,0,44,368.744,369.7439,,,,,,1_AB,L5_T1A_T2P,5,0,1,4,9,3,3,12,rooster,Did you see the rooster,0.12,0,resources/,pics/table01.jpg,pics/icecube01.jpg,pics/dustpan.jpg,pics/lock03a.jpg,pics/sailboat.jpg,pics/salmon.jpg,pics/banjo.jpg,pics/zebra.jpg,pics/stapler09.jpg,pics/peach01.jpg,pics/chainsaw.jpg,pics/football.jpg,blankImage,blankImage,blankImage,blankImage,blankImage,rooster,55,,,,,,,,,,,,,,,,,,,,,,,,,,,,,,,,,,,,,,,,,0,21,21,54,1,,,,,,,,,,,,,,,,,,,,,,,,,,,,,,,,,,,,,,,,,,,,,,,,,,,,,,,
,,,,,59d00e3d46447f00011f0228,6682b41eeb79ab8215dff63d,6682b8cc8a1a2ffae6a7b7f7,53,f,English,2024-07-01_15h10.54.999,ABmemTask3,2023.2.3,MacIntel,59.88023952,,,,,,,,,,,,,,,,,,,,,,,,,,,,,,,369.7532,370.7439,370.7439,7,371.2439,372.2944,0.0012,372.4105,0.1158,0.1171,0.1162,0.1169,0.1167,0.1164,0.1169,0.1168,0.1166,,,372.4106,373.8772,right,1.4455,,373.8772,374.3105,left,0.4168,,10,0,46,374.3105,375.3105,,,,,,1_AB,L1_T1P_T2P,1,1,1,4,5,3,5,10,vacuum,Did you see the vacuum,0.12,0,resources/,pics/birdhouse.jpg,pics/floortile02.jpg,pics/toiletpaper01a.jpg,pics/vacuumcleaner01.jpg,pics/stapler02.jpg,pics/spoon01.jpg,pics/banjo.jpg,pics/binder03b.jpg,pics/leaf02a.jpg,pics/aquarium.jpg,blankImage,blankImage,blankImage,blankImage,blankImage,blankImage,blankImage,vacuumcleaner01,5,,,,,,,,,,,,,,,,,,,,,,,,,,,,,,,,,,,,,,,,,0,22,22,4,1,,,,,,,,,,,,,,,,,,,,,,,,,,,,,,,,,,,,,,,,,,,,,,,,,,,,,,,
,,,,,59d00e3d46447f00011f0228,6682b41eeb79ab8215dff63d,6682b8cc8a1a2ffae6a7b7f7,53,f,English,2024-07-01_15h10.54.999,ABmemTask3,2023.2.3,MacIntel,59.88023952,,,,,,,,,,,,,,,,,,,,,,,,,,,,,,,375.3219,376.3271,376.3271,7,376.8265,378.2275,0.001,378.3439,0.1169,0.1168,0.1157,0.1176,0.1167,0.1167,0.1156,0.1176,0.1165,0.1168,0.1167,378.3439,379.8272,right,1.462,,379.8272,380.2607,right,0.4288,,12,0,48,380.2608,381.2607,,,,,,1_AB,L1_T1P_T2P,1,1,1,7,8,6,5,13,strawberry,Did you see the strawberry,0.12,0,resources/,pics/sealion.jpg,pics/backpack01a.jpg,pics/binoculars01b.jpg,pics/ball02.jpg,pics/proboscismonkey.jpg,pics/pictureframe04.jpg,pics/strawberry.jpg,pics/stapler12.jpg,pics/seaturtle.jpg,pics/dustpan.jpg,pics/bowlingpin.jpg,pics/hammerheadshark.jpg,pics/hen.jpg,blankImage,blankImage,blankImage,blankImage,strawberry,10,0.1164,,,,,,,,,,,,,,,,,,,,,,,,,,,,,,,,,,,,,,,,0,23,23,9,1,,,,,,,,,,,,,,,,,,,,,,,,,,,,,,,,,,,,,,,,,,,,,,,,,,,,,,,
,,,,,59d00e3d46447f00011f0228,6682b41eeb79ab8215dff63d,6682b8cc8a1a2ffae6a7b7f7,53,f,English,2024-07-01_15h10.54.999,ABmemTask3,2023.2.3,MacIntel,59.88023952,,,,,,,,,,,,,,,,,,,,,,,,,,,,,,,381.2723,382.2606,382.2606,7,382.7605,384.2777,0.0013,384.3939,0.1162,0.1165,0.1167,0.1168,0.1165,0.1157,0.1178,0.1164,0.1167,0.1167,0.1167,384.3939,385.2774,right,0.8615,,385.2774,385.7272,left,0.433,,14,0,50,385.7273,386.7272,,,,,,1_AB,L5_T1P_T2A,5,1,0,6,11,5,3,14,Kiwi,Did you see the Kiwi,0.12,0,resources/,pics/candleholder01.jpg,pics/kangaroo.jpg,pics/banjo.jpg,pics/binoculars01b.jpg,pics/microscope.jpg,pics/kiwi03.jpg,pics/bowtie.jpg,pics/peanut01.jpg,pics/backpack01a.jpg,pics/zebra.jpg,pics/toiletpaper01a.jpg,pics/hen.jpg,pics/spoon01.jpg,pics/calendar.jpg,blankImage,blankImage,blankImage,kiwi03,59,0.1167,0.1167,,,,,,,,,,,,,,,,,,,,,,,,,,,,,,,,,,,,,,,0,24,24,58,1,,,,,,,,,,,,,,,,,,,,,,,,,,,,,,,,,,,,,,,,,,,,,,,,,,,,,,,
,,,,,59d00e3d46447f00011f0228,6682b41eeb79ab8215dff63d,6682b8cc8a1a2ffae6a7b7f7,53,f,English,2024-07-01_15h10.54.999,ABmemTask3,2023.2.3,MacIntel,59.88023952,,,,,,,,,,,,,,,,,,,,,,,,,,,,,,,386.7279,387.7272,387.7274,7,388.2272,389.6276,0.0013,389.7439,0.1158,0.117,0.1166,0.1168,0.1165,0.1168,0.1166,0.1157,0.1175,0.1169,0.1166,389.744,390.9773,left,1.2112,,390.9774,391.6772,right,0.6864,,12,0,52,391.6773,392.6772,,,,,,1_AB,L1_T1A_T2A,1,0,0,7,8,6,5,13,fan,Did you see the fan,0.12,0,resources/,pics/leaf02a.jpg,pics/dustpan.jpg,pics/pencil01.jpg,pics/kangaroo.jpg,pics/golfball.jpg,pics/lightswitch01.jpg,pics/nutcracker01.jpg,pics/calendar.jpg,pics/hose.jpg,pics/starfish01.jpg,pics/siamesecat.jpg,pics/bowlingpin.jpg,pics/necklace.jpg,blankImage,blankImage,blankImage,blankImage,fan,42,0.1167,,,,,,,,,,,,,,,,,,,,,,,,,,,,,,,,,,,,,,,,0,25,25,41,1,,,,,,,,,,,,,,,,,,,,,,,,,,,,,,,,,,,,,,,,,,,,,,,,,,,,,,,
,,,,,59d00e3d46447f00011f0228,6682b41eeb79ab8215dff63d,6682b8cc8a1a2ffae6a7b7f7,53,f,English,2024-07-01_15h10.54.999,ABmemTask3,2023.2.3,MacIntel,59.88023952,,,,,,,,,,,,,,,,,,,,,,,,,,,,,,,392.6779,393.6772,393.6773,7,394.1773,395.6933,0.0014,395.8106,0.116,0.1155,0.1169,0.1165,0.1175,0.1169,0.1158,0.1175,0.1166,0.1166,0.1157,395.8107,396.3274,right,0.5002,,396.3275,396.6772,right,0.3349,,14,0,54,396.6774,397.6772,,,,,,1_AB,L5_T1P_T2P,5,1,1,5,10,4,4,14,Fox,Did you see the Fox,0.12,0,resources/,pics/hammerheadshark.jpg,pics/bowlingpin.jpg,pics/pictureframe04.jpg,pics/peanut01.jpg,pics/redfox.jpg,pics/cymbal.jpg,pics/spoon01.jpg,pics/banjo.jpg,pics/butterfly.jpg,pics/stapler11.jpg,pics/football.jpg,pics/safetypin.jpg,pics/triangle.jpg,pics/onion.jpg,blankImage,blankImage,blankImage,redfox,45,0.1178,0.1154,,,,,,,,,,,,,,,,,,,,,,,,,,,,,,,,,,,,,,,0,26,26,44,1,,,,,,,,,,,,,,,,,,,,,,,,,,,,,,,,,,,,,,,,,,,,,,,,,,,,,,,
,,,,,59d00e3d46447f00011f0228,6682b41eeb79ab8215dff63d,6682b8cc8a1a2ffae6a7b7f7,53,f,English,2024-07-01_15h10.54.999,ABmemTask3,2023.2.3,MacIntel,59.88023952,,,,,,,,,,,,,,,,,,,,,,,,,,,,,,,397.6779,398.6772,398.6773,7,399.1774,400.3443,0.0014,400.4606,0.116,0.1166,0.1168,0.1162,0.117,0.1168,0.1164,0.1168,0.1167,0.1165,,400.4607,401.3774,right,0.8937,,401.3775,402.2265,right,0.8319,,16,0,56,402.2265,403.2273,,,,,,1_AB,L1_T1P_T2P,1,1,1,7,8,6,3,11,bird,Did you see the bird,0.12,0,resources/,pics/sealion.jpg,pics/backpack01a.jpg,pics/hose.jpg,pics/table01.jpg,pics/wheel01.jpg,pics/seaturtle.jpg,pics/americangoldfinch.jpg,pics/stapler08.jpg,pics/siamesecat.jpg,pics/hammerheadshark.jpg,pics/ashtray01.jpg,blankImage,blankImage,blankImage,blankImage,blankImage,blankImage,americangoldfinch,23,,,,,,,,,,,,,,,,,,,,,,,,,,,,,,,,,,,,,,,,,0,27,27,22,1,,,,,,,,,,,,,,,,,,,,,,,,,,,,,,,,,,,,,,,,,,,,,,,,,,,,,,,
,,,,,59d00e3d46447f00011f0228,6682b41eeb79ab8215dff63d,6682b8cc8a1a2ffae6a7b7f7,53,f,English,2024-07-01_15h10.54.999,ABmemTask3,2023.2.3,MacIntel,59.88023952,,,,,,,,,,,,,,,,,,,,,,,,,,,,,,,403.239,404.2273,404.2273,7,404.7273,405.8943,0.0012,406.0106,0.1161,0.1169,0.1165,0.1166,0.1168,0.1166,0.1166,0.1167,0.1154,0.1178,,406.0106,406.8774,right,0.8441,,406.8775,407.3607,left,0.466,,18,0,58,407.3607,408.3597,,,,,,1_AB,L1_T1P_T2A,1,1,0,6,7,5,4,11,lamp,Did you see the lamp,0.12,0,resources/,pics/chainsaw.jpg,pics/fanblades.jpg,pics/salmon.jpg,pics/proboscismonkey.jpg,pics/boot02b.jpg,pics/lamp04a.jpg,pics/blender.jpg,pics/sink.jpg,pics/pencil01.jpg,pics/floortile02.jpg,pics/shovel01.jpg,blankImage,blankImage,blankImage,blankImage,blankImage,blankImage,lamp04a,37,,,,,,,,,,,,,,,,,,,,,,,,,,,,,,,,,,,,,,,,,0,28,28,36,1,,,,,,,,,,,,,,,,,,,,,,,,,,,,,,,,,,,,,,,,,,,,,,,,,,,,,,,
,,,,,59d00e3d46447f00011f0228,6682b41eeb79ab8215dff63d,6682b8cc8a1a2ffae6a7b7f7,53,f,English,2024-07-01_15h10.54.999,ABmemTask3,2023.2.3,MacIntel,59.88023952,,,,,,,,,,,,,,,,,,,,,,,,,,,,,,,408.3602,409.3596,409.3597,7,409.8607,410.6776,0.0014,410.7939,0.1156,0.117,0.1167,0.1167,0.1166,0.1168,0.1166,,,,,410.794,411.9275,right,1.1239,,411.9275,413.4433,left,1.5004,,18,0,60,413.4433,414.4439,,,,,,1_AB,L1_T1P_T2P,1,1,1,4,5,3,3,8,Recycling bin,Did you see the Recycling bin,0.12,0,resources/,pics/microscope.jpg,pics/dustpan.jpg,pics/seagull.jpg,pics/recyclingbin.jpg,pics/stapler06.jpg,pics/bowtie.jpg,pics/dromedary.jpg,pics/salmon.jpg,blankImage,blankImage,blankImage,blankImage,blankImage,blankImage,blankImage,blankImage,blankImage,recyclingbin,16,,,,,,,,,,,,,,,,,,,,,,,,,,,,,,,,,,,,,,,,,0,29,29,15,1,,,,,,,,,,,,,,,,,,,,,,,,,,,,,,,,,,,,,,,,,,,,,,,,,,,,,,,
,,,,,59d00e3d46447f00011f0228,6682b41eeb79ab8215dff63d,6682b8cc8a1a2ffae6a7b7f7,53,f,English,2024-07-01_15h10.54.999,ABmemTask3,2023.2.3,MacIntel,59.88023952,,,,,,,,,,,,,,,,,,,,,,,,,,,,,,,414.454,415.444,415.444,7,415.9439,417.2268,0.001,417.344,0.1165,0.1167,0.1166,0.1166,0.1167,0.1167,0.1167,0.1166,0.1167,0.1167,0.1156,417.3441,418.1273,right,0.7606,,418.1274,418.6439,left,0.5003,,20,0,62,418.6441,419.6439,,,,,,1_AB,L1_T1P_T2A,1,1,0,7,8,6,4,12,Tennis racket,Did you see the Tennis racket,0.12,0,resources/,pics/banjo.jpg,pics/leaf02a.jpg,pics/shovel01.jpg,pics/microscope.jpg,pics/cork02.jpg,pics/seagull.jpg,pics/tennisracket.jpg,pics/binder03b.jpg,pics/floortile02.jpg,pics/carrot01.jpg,pics/candle01.jpg,pics/siamesecat.jpg,blankImage,blankImage,blankImage,blankImage,blankImage,tennisracket,38,,,,,,,,,,,,,,,,,,,,,,,,,,,,,,,,,,,,,,,,,0,30,30,37,1,,,,,,,,,,,,,,,,,,,,,,,,,,,,,,,,,,,,,,,,,,,,,,,,,,,,,,,
,,,,,59d00e3d46447f00011f0228,6682b41eeb79ab8215dff63d,6682b8cc8a1a2ffae6a7b7f7,53,f,English,2024-07-01_15h10.54.999,ABmemTask3,2023.2.3,MacIntel,59.88023952,,,,,,,,,,,,,,,,,,,,,,,,,,,,,,,419.6443,420.6439,420.644,7,421.144,422.311,0.0014,422.4273,0.116,0.1167,0.1166,0.1164,0.1165,0.1172,0.1163,0.117,0.1168,0.1164,,422.4273,423.3441,left,0.8932,,423.3441,424.294,right,0.9333,,18,0,64,424.2941,425.294,,,,,,1_AB,L1_T1A_T2A,1,0,0,7,8,6,3,11,Poker chips,Did you see the Poker chips,0.12,0,resources/,pics/candle01.jpg,pics/proboscismonkey.jpg,pics/fanblades.jpg,pics/dromedary.jpg,pics/aquarium.jpg,pics/salmon.jpg,pics/hose.jpg,pics/kangaroo.jpg,pics/noparkingsign.jpg,pics/carrot01.jpg,pics/leaf02a.jpg,blankImage,blankImage,blankImage,blankImage,blankImage,blankImage,pokerchips,41,,,,,,,,,,,,,,,,,,,,,,,,,,,,,,,,,,,,,,,,,0,31,31,40,1,,,,,,,,,,,,,,,,,,,,,,,,,,,,,,,,,,,,,,,,,,,,,,,,,,,,,,,
,,,,,59d00e3d46447f00011f0228,6682b41eeb79ab8215dff63d,6682b8cc8a1a2ffae6a7b7f7,53,f,English,2024-07-01_15h10.54.999,ABmemTask3,2023.2.3,MacIntel,59.88023952,,,,,,,,,,,,,,,,,,,,,,,,,,,,,,,425.3057,426.294,426.2941,7,426.794,428.1945,0.001,428.3098,0.1162,0.1164,0.1171,0.1167,0.1156,0.1167,0.1175,0.1168,0.1167,0.1167,0.1165,428.3098,429.2775,right,0.9449,,429.2775,429.6276,right,0.3343,,20,0,66,429.6276,430.6273,,,,,,1_AB,L1_T1P_T2P,1,1,1,7,8,6,5,13,Totem Pole,Did you see the Totem Pole,0.12,0,resources/,pics/laptop01a.jpg,pics/carrot01.jpg,pics/wheel01.jpg,pics/icecube01.jpg,pics/ashtray01.jpg,pics/lock03a.jpg,pics/totempole.jpg,pics/stapler08.jpg,pics/golfball.jpg,pics/pencil01.jpg,pics/banjo.jpg,pics/sandbarshark.jpg,pics/shipinabottle.jpg,blankImage,blankImage,blankImage,blankImage,totempole,22,0.1169,,,,,,,,,,,,,,,,,,,,,,,,,,,,,,,,,,,,,,,,0,32,32,21,1,,,,,,,,,,,,,,,,,,,,,,,,,,,,,,,,,,,,,,,,,,,,,,,,,,,,,,,
,,,,,59d00e3d46447f00011f0228,6682b41eeb79ab8215dff63d,6682b8cc8a1a2ffae6a7b7f7,53,f,English,2024-07-01_15h10.54.999,ABmemTask3,2023.2.3,MacIntel,59.88023952,,,,,,,,,,,,,,,,,,,,,,,,,,,,,,,430.628,431.6274,431.6274,7,432.1265,433.0601,0.001,433.1773,0.1172,0.1167,0.1167,0.1166,0.1155,0.1178,0.1167,0.1157,,,,433.1774,434.4099,right,1.2126,,434.4101,435.044,right,0.6205,,22,0,68,435.0441,436.044,,,,,,1_AB,L1_T1P_T2P,1,1,1,5,6,4,3,9,Ant,Did you see the Ant,0.12,0,resources/,pics/kangaroo.jpg,pics/giraffe.jpg,pics/footballhelmet.jpg,pics/onion.jpg,pics/ant.jpg,pics/stapler04b.jpg,pics/banjo.jpg,pics/zebra.jpg,pics/dromedary.jpg,blankImage,blankImage,blankImage,blankImage,blankImage,blankImage,blankImage,blankImage,ant,15,,,,,,,,,,,,,,,,,,,,,,,,,,,,,,,,,,,,,,,,,0,33,33,14,1,,,,,,,,,,,,,,,,,,,,,,,,,,,,,,,,,,,,,,,,,,,,,,,,,,,,,,,
,,,,,59d00e3d46447f00011f0228,6682b41eeb79ab8215dff63d,6682b8cc8a1a2ffae6a7b7f7,53,f,English,2024-07-01_15h10.54.999,ABmemTask3,2023.2.3,MacIntel,59.88023952,,,,,,,,,,,,,,,,,,,,,,,,,,,,,,,436.0447,437.044,437.044,7,437.5441,439.1778,0.0013,439.294,0.116,0.1167,0.1167,0.1166,0.1166,0.1169,0.1165,0.1167,0.1166,0.1166,0.1168,439.2941,439.761,right,0.4457,,439.7611,440.1606,right,0.3822,,24,0,70,440.1606,441.1608,,,,,,1_AB,L5_T1P_T2P,5,1,1,5,10,4,5,15,dolphin,Did you see the dolphin,0.12,0,resources/,pics/banjo.jpg,pics/shipinabottle.jpg,pics/laptop01a.jpg,pics/onion.jpg,pics/dolphin01.jpg,pics/sink.jpg,pics/seaturtle.jpg,pics/butterfly.jpg,pics/hen.jpg,pics/stapler10.jpg,pics/proboscismonkey.jpg,pics/starfish01.jpg,pics/salmon.jpg,pics/spiderweb.jpg,pics/cymbal.jpg,blankImage,blankImage,dolphin01,49,0.1166,0.1167,0.1167,,,,,,,,,,,,,,,,,,,,,,,,,,,,,,,,,,,,,,0,34,34,48,1,,,,,,,,,,,,,,,,,,,,,,,,,,,,,,,,,,,,,,,,,,,,,,,,,,,,,,,
,,,,,59d00e3d46447f00011f0228,6682b41eeb79ab8215dff63d,6682b8cc8a1a2ffae6a7b7f7,53,f,English,2024-07-01_15h10.54.999,ABmemTask3,2023.2.3,MacIntel,59.88023952,,,,,,,,,,,,,,,,,,,,,,,,,,,,,,,441.1614,442.1607,442.1608,7,442.6607,443.8277,0.0011,443.9441,0.1163,0.1165,0.1167,0.1169,0.1164,0.1158,0.1177,0.1166,0.1165,0.1168,,443.9441,444.96,right,0.9948,,444.9602,445.3773,left,0.4122,,26,0,72,445.3774,446.3773,,,,,,1_AB,L1_T1P_T2A,1,1,0,7,8,6,3,11,garlic,Did you see the garlic,0.12,0,resources/,pics/zebra.jpg,pics/banjo.jpg,pics/pencilsharpener02a.jpg,pics/football.jpg,pics/candle01.jpg,pics/footballhelmet.jpg,pics/garlic01a.jpg,pics/birdhouse.jpg,pics/peach01.jpg,pics/pictureframe04.jpg,pics/binder03b.jpg,blankImage,blankImage,blankImage,blankImage,blankImage,blankImage,garlic01a,33,,,,,,,,,,,,,,,,,,,,,,,,,,,,,,,,,,,,,,,,,0,35,35,32,1,,,,,,,,,,,,,,,,,,,,,,,,,,,,,,,,,,,,,,,,,,,,,,,,,,,,,,,
,,,,,59d00e3d46447f00011f0228,6682b41eeb79ab8215dff63d,6682b8cc8a1a2ffae6a7b7f7,53,f,English,2024-07-01_15h10.54.999,ABmemTask3,2023.2.3,MacIntel,59.88023952,,,,,,,,,,,,,,,,,,,,,,,,,,,,,,,446.3778,447.3774,447.3775,7,447.8773,449.3945,0.0012,449.5108,0.1162,0.1167,0.1166,0.1168,0.1166,0.1167,0.1166,0.1167,0.1167,0.1166,0.1167,449.5109,450.527,left,0.9949,,450.5271,451.0605,right,0.5284,,28,0,74,451.0606,452.0608,,,,,,1_AB,L5_T1A_T2P,5,0,1,4,9,3,5,14,lemon,Did you see the lemon,0.12,0,resources/,pics/seaturtle.jpg,pics/lightswitch01.jpg,pics/candle01.jpg,pics/cannon.jpg,pics/seagull.jpg,pics/spoon01.jpg,pics/spiderweb.jpg,pics/sewingmachine01a.jpg,pics/stapler05.jpg,pics/binoculars01b.jpg,pics/zebra.jpg,pics/sealion.jpg,pics/shovel01.jpg,pics/wheel01.jpg,blankImage,blankImage,blankImage,lemon02,56,0.1166,0.1167,,,,,,,,,,,,,,,,,,,,,,,,,,,,,,,,,,,,,,,0,36,36,55,1,,,,,,,,,,,,,,,,,,,,,,,,,,,,,,,,,,,,,,,,,,,,,,,,,,,,,,,
,,,,,59d00e3d46447f00011f0228,6682b41eeb79ab8215dff63d,6682b8cc8a1a2ffae6a7b7f7,53,f,English,2024-07-01_15h10.54.999,ABmemTask3,2023.2.3,MacIntel,59.88023952,,,,,,,,,,,,,,,,,,,,,,,,,,,,,,,452.0615,453.0597,453.0599,7,453.5607,454.7277,0.0013,454.844,0.116,0.1168,0.1156,0.1175,0.1168,0.1168,0.1167,0.1166,0.1167,0.1166,,454.8441,455.7765,right,0.9122,,455.7765,456.2109,right,0.4183,,30,0,76,456.2109,457.2108,,,,,,1_AB,L1_T1P_T2P,1,1,1,7,8,6,3,11,pliers,Did you see the pliers,0.12,0,resources/,pics/mummy.jpg,pics/binder03b.jpg,pics/bowtie.jpg,pics/toiletpaper01a.jpg,pics/football.jpg,pics/blender.jpg,pics/needlenosepliers01.jpg,pics/stapler13.jpg,pics/zebra.jpg,pics/hammerheadshark.jpg,pics/sealion.jpg,blankImage,blankImage,blankImage,blankImage,blankImage,blankImage,needlenosepliers01,6,,,,,,,,,,,,,,,,,,,,,,,,,,,,,,,,,,,,,,,,,0,37,37,5,1,,,,,,,,,,,,,,,,,,,,,,,,,,,,,,,,,,,,,,,,,,,,,,,,,,,,,,,
,,,,,59d00e3d46447f00011f0228,6682b41eeb79ab8215dff63d,6682b8cc8a1a2ffae6a7b7f7,53,f,English,2024-07-01_15h10.54.999,ABmemTask3,2023.2.3,MacIntel,59.88023952,,,,,,,,,,,,,,,,,,,,,,,,,,,,,,,457.2208,458.2107,458.2108,7,458.71,459.6444,0.0011,459.7608,0.117,0.1168,0.1165,0.1167,0.1165,0.1169,0.1155,0.1176,,,,459.7608,460.8942,right,1.1122,,460.8942,461.4109,left,0.5001,,30,0,78,461.411,462.4107,,,,,,1_AB,L1_T1P_T2P,1,1,1,5,6,4,3,9,cabbage,Did you see the cabbage,0.12,0,resources/,pics/match.jpg,pics/icecube01.jpg,pics/noparkingsign.jpg,pics/christmaslights.jpg,pics/cabbage.jpg,pics/stapler03a.jpg,pics/carrot01.jpg,pics/dustpan.jpg,pics/cannon.jpg,blankImage,blankImage,blankImage,blankImage,blankImage,blankImage,blankImage,blankImage,cabbage,14,,,,,,,,,,,,,,,,,,,,,,,,,,,,,,,,,,,,,,,,,0,38,38,13,1,,,,,,,,,,,,,,,,,,,,,,,,,,,,,,,,,,,,,,,,,,,,,,,,,,,,,,,
,,,,,59d00e3d46447f00011f0228,6682b41eeb79ab8215dff63d,6682b8cc8a1a2ffae6a7b7f7,53,f,English,2024-07-01_15h10.54.999,ABmemTask3,2023.2.3,MacIntel,59.88023952,,,,,,,,,,,,,,,,,,,,,,,,,,,,,,,462.4114,463.4107,463.4108,7,463.9108,465.0778,0.0012,465.1941,0.116,0.1168,0.1166,0.1167,0.1167,0.1155,0.1178,0.1168,0.1166,0.1167,,465.1942,466.2609,right,1.0451,,466.2611,466.6608,right,0.3832,,32,0,80,466.6608,467.6608,,,,,,1_AB,L1_T1P_T2P,1,1,1,7,8,6,3,11,toothpick,Did you see the toothpick,0.12,0,resources/,pics/candleholder01.jpg,pics/blender.jpg,pics/siamesecat.jpg,pics/peanut01.jpg,pics/spiderweb.jpg,pics/football.jpg,pics/toothpick02.jpg,pics/stapler04b.jpg,pics/seagull.jpg,pics/pictureframe04.jpg,pics/shipinabottle.jpg,blankImage,blankImage,blankImage,blankImage,blankImage,blankImage,toothpick02,17,,,,,,,,,,,,,,,,,,,,,,,,,,,,,,,,,,,,,,,,,0,39,39,16,1,,,,,,,,,,,,,,,,,,,,,,,,,,,,,,,,,,,,,,,,,,,,,,,,,,,,,,,
,,,,,59d00e3d46447f00011f0228,6682b41eeb79ab8215dff63d,6682b8cc8a1a2ffae6a7b7f7,53,f,English,2024-07-01_15h10.54.999,ABmemTask3,2023.2.3,MacIntel,59.88023952,,,,,,,,,,,,,,,,,,,,,,,,,,,,,,,467.6615,468.6607,468.6608,7,469.1599,470.2113,0.0009,470.3275,0.1172,0.1158,0.1177,0.1166,0.1166,0.1167,0.1167,0.1169,0.1166,,,470.3275,471.0943,right,0.7458,,471.0944,471.4774,right,0.3785,,34,0,82,471.4774,472.4774,,,,,,1_AB,L1_T1P_T2P,1,1,1,4,5,3,5,10,chair,Did you see the chair,0.12,0,resources/,pics/zebra.jpg,pics/floortile02.jpg,pics/cork02.jpg,pics/chair.jpg,pics/stapler07.jpg,pics/sealion.jpg,pics/shovel01.jpg,pics/piggybank.jpg,pics/candleholder01.jpg,pics/laptop01a.jpg,blankImage,blankImage,blankImage,blankImage,blankImage,blankImage,blankImage,chair,3,,,,,,,,,,,,,,,,,,,,,,,,,,,,,,,,,,,,,,,,,0,40,40,2,1,,,,,,,,,,,,,,,,,,,,,,,,,,,,,,,,,,,,,,,,,,,,,,,,,,,,,,,
,,,,,59d00e3d46447f00011f0228,6682b41eeb79ab8215dff63d,6682b8cc8a1a2ffae6a7b7f7,53,f,English,2024-07-01_15h10.54.999,ABmemTask3,2023.2.3,MacIntel,59.88023952,,,,,,,,,,,,,,,,,,,,,,,,,,,,,,,472.4781,473.4774,473.4775,7,473.9767,474.9112,0.0014,475.0274,0.1168,0.1166,0.1166,0.1156,0.1179,0.1165,0.1168,0.1166,,,,475.0275,475.9775,right,0.9301,,475.9775,476.3443,right,0.3509,,32,0,84,476.3444,477.3441,,,,,,1_AB,L1_T1P_T2A,1,1,0,4,5,3,4,9,blueberry,Did you see the blueberry,0.12,0,resources/,pics/sealion.jpg,pics/piggybank.jpg,pics/sink.jpg,pics/blueberry01.jpg,pics/onion.jpg,pics/sailboat.jpg,pics/seaturtle.jpg,pics/hen.jpg,pics/fanblades.jpg,blankImage,blankImage,blankImage,blankImage,blankImage,blankImage,blankImage,blankImage,blueberry01,35,,,,,,,,,,,,,,,,,,,,,,,,,,,,,,,,,,,,,,,,,0,41,41,34,1,,,,,,,,,,,,,,,,,,,,,,,,,,,,,,,,,,,,,,,,,,,,,,,,,,,,,,,
,,,,,59d00e3d46447f00011f0228,6682b41eeb79ab8215dff63d,6682b8cc8a1a2ffae6a7b7f7,53,f,English,2024-07-01_15h10.54.999,ABmemTask3,2023.2.3,MacIntel,59.88023952,,,,,,,,,,,,,,,,,,,,,,,,,,,,,,,477.3539,478.3442,478.3444,7,478.844,479.7777,0.0013,479.8943,0.1154,0.1167,0.117,0.1172,0.1154,0.1177,0.1167,0.1165,,,,479.8943,481.0267,left,1.1211,,481.0267,481.5107,right,0.467,,30,0,86,481.5108,482.5108,,,,,,1_AB,L1_T1A_T2A,1,0,0,4,5,3,4,9,License Plate,Did you see the License Plate,0.12,0,resources/,pics/snowshoe.jpg,pics/kangaroo.jpg,pics/noparkingsign.jpg,pics/match.jpg,pics/hose.jpg,pics/blender.jpg,pics/ashtray01.jpg,pics/ball02.jpg,pics/sink.jpg,blankImage,blankImage,blankImage,blankImage,blankImage,blankImage,blankImage,blankImage,licenseplate,40,,,,,,,,,,,,,,,,,,,,,,,,,,,,,,,,,,,,,,,,,0,42,42,39,1,,,,,,,,,,,,,,,,,,,,,,,,,,,,,,,,,,,,,,,,,,,,,,,,,,,,,,,
,,,,,59d00e3d46447f00011f0228,6682b41eeb79ab8215dff63d,6682b8cc8a1a2ffae6a7b7f7,53,f,English,2024-07-01_15h10.54.999,ABmemTask3,2023.2.3,MacIntel,59.88023952,,,,,,,,,,,,,,,,,,,,,,,,,,,,,,,482.5115,483.5108,483.5109,7,484.0108,485.0602,0.001,485.1774,0.1155,0.1176,0.1166,0.1167,0.1166,0.1168,0.1166,0.1167,0.1155,,,485.1775,485.8109,right,0.611,,485.811,486.3445,left,0.5291,,30,0,88,486.3446,487.3441,,,,,,1_AB,L1_T1P_T2P,1,1,1,4,5,3,5,10,flute,Did you see the flute,0.12,0,resources/,pics/peach01.jpg,pics/seaturtle.jpg,pics/dromedary.jpg,pics/recorder01.jpg,pics/stapler08.jpg,pics/giraffe.jpg,pics/blender.jpg,pics/necklace.jpg,pics/sink.jpg,pics/dustpan.jpg,blankImage,blankImage,blankImage,blankImage,blankImage,blankImage,blankImage,recorder01,7,,,,,,,,,,,,,,,,,,,,,,,,,,,,,,,,,,,,,,,,,0,43,43,6,1,,,,,,,,,,,,,,,,,,,,,,,,,,,,,,,,,,,,,,,,,,,,,,,,,,,,,,,
,,,,,59d00e3d46447f00011f0228,6682b41eeb79ab8215dff63d,6682b8cc8a1a2ffae6a7b7f7,53,f,English,2024-07-01_15h10.54.999,ABmemTask3,2023.2.3,MacIntel,59.88023952,,,,,,,,,,,,,,,,,,,,,,,,,,,,,,,487.3448,488.3441,488.3442,7,488.8441,490.3608,0.0014,490.4775,0.1161,0.1166,0.1156,0.1168,0.1177,0.1165,0.1166,0.1167,0.1156,0.1177,0.1156,490.4775,490.9944,right,0.4975,,490.9944,491.311,right,0.2996,,32,0,90,491.311,492.3108,,,,,,1_AB,L5_T1P_T2P,5,1,1,6,11,5,3,14,mail box,Did you see the mail box,0.12,0,resources/,pics/pictureframe04.jpg,pics/seaturtle.jpg,pics/blender.jpg,pics/carrot01.jpg,pics/nutcracker01.jpg,pics/mailbox02.jpg,pics/seagull.jpg,pics/sink.jpg,pics/siamesecat.jpg,pics/spiderweb.jpg,pics/stapler08.jpg,pics/safetypin.jpg,pics/candle01.jpg,pics/mummy.jpg,blankImage,blankImage,blankImage,mailbox02,43,0.1177,0.1163,,,,,,,,,,,,,,,,,,,,,,,,,,,,,,,,,,,,,,,0,44,44,42,1,,,,,,,,,,,,,,,,,,,,,,,,,,,,,,,,,,,,,,,,,,,,,,,,,,,,,,,
,,,,,59d00e3d46447f00011f0228,6682b41eeb79ab8215dff63d,6682b8cc8a1a2ffae6a7b7f7,53,f,English,2024-07-01_15h10.54.999,ABmemTask3,2023.2.3,MacIntel,59.88023952,,,,,,,,,,,,,,,,,,,,,,,,,,,,,,,492.3116,493.3108,493.3109,7,493.8108,494.8612,0.0013,494.9775,0.1162,0.1166,0.1167,0.1167,0.1164,0.1168,0.1168,0.1166,0.1168,,,494.9776,495.8776,left,0.8814,,495.8776,496.3609,right,0.4703,,34,0,92,496.361,497.3608,,,,,,1_AB,L1_T1A_T2P,1,0,1,5,6,4,4,10,Rabbit,Did you see the Rabbit,0.12,0,resources/,pics/cannon.jpg,pics/proboscismonkey.jpg,pics/salmon.jpg,pics/nutcracker01.jpg,pics/seagull.jpg,pics/stapler02.jpg,pics/table01.jpg,pics/laptop01a.jpg,pics/necklace.jpg,pics/pencilsharpener02a.jpg,blankImage,blankImage,blankImage,blankImage,blankImage,blankImage,blankImage,jackrabbit,31,,,,,,,,,,,,,,,,,,,,,,,,,,,,,,,,,,,,,,,,,0,45,45,30,1,,,,,,,,,,,,,,,,,,,,,,,,,,,,,,,,,,,,,,,,,,,,,,,,,,,,,,,
,,,,,59d00e3d46447f00011f0228,6682b41eeb79ab8215dff63d,6682b8cc8a1a2ffae6a7b7f7,53,f,English,2024-07-01_15h10.54.999,ABmemTask3,2023.2.3,MacIntel,59.88023952,,,,,,,,,,,,,,,,,,,,,,,,,,,,,,,497.3706,498.3608,498.3609,7,498.8607,500.4946,0.0012,500.6109,0.1152,0.117,0.1175,0.1168,0.1166,0.1167,0.1166,0.1163,0.1169,0.1167,0.1167,500.6109,501.0946,right,0.4732,,501.0946,501.4942,right,0.3945,,36,0,94,501.4942,502.4942,,,,,,1_AB,L5_T1P_T2P,5,1,1,6,11,5,4,15,toast,Did you see the toast,0.12,0,resources/,pics/piggybank.jpg,pics/leaf02a.jpg,pics/carrot01.jpg,pics/birdhouse.jpg,pics/bowlingpin.jpg,pics/toast.jpg,pics/spiderweb.jpg,pics/cork02.jpg,pics/sink.jpg,pics/nutcracker01.jpg,pics/stapler02.jpg,pics/ashtray01.jpg,pics/fanblades.jpg,pics/pencil01.jpg,pics/lightswitch01.jpg,blankImage,blankImage,toast,46,0.1166,0.1165,0.1169,,,,,,,,,,,,,,,,,,,,,,,,,,,,,,,,,,,,,,0,46,46,45,1,,,,,,,,,,,,,,,,,,,,,,,,,,,,,,,,,,,,,,,,,,,,,,,,,,,,,,,
,,,,,59d00e3d46447f00011f0228,6682b41eeb79ab8215dff63d,6682b8cc8a1a2ffae6a7b7f7,53,f,English,2024-07-01_15h10.54.999,ABmemTask3,2023.2.3,MacIntel,59.88023952,,,,,,,,,,,,,,,,,,,,,,,,,,,,,,,502.4948,503.4942,503.4942,7,503.9942,505.5107,0.0014,505.6275,0.116,0.1167,0.1166,0.1167,0.1167,0.1167,0.1166,0.1167,0.1167,0.1167,0.1168,505.6277,506.0613,right,0.4243,,506.0613,506.4443,right,0.3786,,38,0,96,506.4444,507.4443,,,,,,1_AB,L5_T1P_T2P,5,1,1,6,11,5,3,14,truck,Did you see the truck,0.12,0,resources/,pics/calendar.jpg,pics/mummy.jpg,pics/ashtray01.jpg,pics/pencilsharpener02a.jpg,pics/dustpan.jpg,pics/boxtruck.jpg,pics/lightswitch01.jpg,pics/pictureframe04.jpg,pics/starfish01.jpg,pics/zebra.jpg,pics/stapler12.jpg,pics/bowtie.jpg,pics/candleholder01.jpg,pics/candle01.jpg,blankImage,blankImage,blankImage,boxtruck,50,0.1165,0.1159,,,,,,,,,,,,,,,,,,,,,,,,,,,,,,,,,,,,,,,0,47,47,49,1,,,,,,,,,,,,,,,,,,,,,,,,,,,,,,,,,,,,,,,,,,,,,,,,,,,,,,,
,,,,,59d00e3d46447f00011f0228,6682b41eeb79ab8215dff63d,6682b8cc8a1a2ffae6a7b7f7,53,f,English,2024-07-01_15h10.54.999,ABmemTask3,2023.2.3,MacIntel,59.88023952,,,,,,,,,,,,,,,,,,,,,,,,,,,,,,,507.445,508.4442,508.4443,7,508.9442,510.1114,0.0013,510.2276,0.1161,0.1168,0.1167,0.1165,0.1167,0.1157,0.1176,0.1157,0.1175,0.1168,,510.2276,512.3769,left,2.1276,,512.377,512.7112,right,0.3301,,40,0,98,512.7112,513.7109,,,,,,1_AB,L1_T1A_T2P,1,0,1,7,8,6,3,11,turkey,Did you see the turkey,0.12,0,resources/,pics/proboscismonkey.jpg,pics/blender.jpg,pics/sealion.jpg,pics/snowshoe.jpg,pics/carrot01.jpg,pics/microscope.jpg,pics/piggybank.jpg,pics/stapler12.jpg,pics/peanut01.jpg,pics/dustpan.jpg,pics/footballhelmet.jpg,blankImage,blankImage,blankImage,blankImage,blankImage,blankImage,turkey,26,,,,,,,,,,,,,,,,,,,,,,,,,,,,,,,,,,,,,,,,,0,48,48,25,1,,,,,,,,,,,,,,,,,,,,,,,,,,,,,,,,,,,,,,,,,,,,,,,,,,,,,,,
,,,,,59d00e3d46447f00011f0228,6682b41eeb79ab8215dff63d,6682b8cc8a1a2ffae6a7b7f7,53,f,English,2024-07-01_15h10.54.999,ABmemTask3,2023.2.3,MacIntel,59.88023952,,,,,,,,,,,,,,,,,,,,,,,,,,,,,,,513.7225,514.7109,514.7109,7,515.2108,516.1446,0.0014,516.2601,0.116,0.116,0.1175,0.1167,0.1165,0.1167,0.1166,0.1167,,,,516.2601,517.1776,right,0.8949,,517.1777,519.3443,left,2.1508,,40,0,100,519.3445,520.3443,,,,,,1_AB,L1_T1P_T2P,1,1,1,5,6,4,3,9,paint brush,Did you see the paint brush,0.12,0,resources/,pics/nutcracker01.jpg,pics/piggybank.jpg,pics/spiderweb.jpg,pics/table01.jpg,pics/paintbrush01.jpg,pics/stapler09.jpg,pics/hose.jpg,pics/cannon.jpg,pics/mummy.jpg,blankImage,blankImage,blankImage,blankImage,blankImage,blankImage,blankImage,blankImage,paintbrush01,20,,,,,,,,,,,,,,,,,,,,,,,,,,,,,,,,,,,,,,,,,0,49,49,19,1,,,,,,,,,,,,,,,,,,,,,,,,,,,,,,,,,,,,,,,,,,,,,,,,,,,,,,,
,,,,,59d00e3d46447f00011f0228,6682b41eeb79ab8215dff63d,6682b8cc8a1a2ffae6a7b7f7,53,f,English,2024-07-01_15h10.54.999,ABmemTask3,2023.2.3,MacIntel,59.88023952,,,,,,,,,,,,,,,,,,,,,,,,,,,,,,,520.3539,521.3443,521.3443,7,521.8442,523.2446,0.0015,523.3609,0.1158,0.1167,0.1167,0.1156,0.1178,0.1167,0.1166,0.1166,0.1168,0.1165,0.1168,523.361,524.5276,right,1.1445,,524.5278,524.8943,right,0.3539,,38,0,102,524.8944,525.8942,,,,,,1_AB,L1_T1A_T2P,1,0,1,7,8,6,5,13,Basketball,Did you see the Basketball,0.12,0,resources/,pics/cork02.jpg,pics/table01.jpg,pics/christmaslights.jpg,pics/nutcracker01.jpg,pics/golfball.jpg,pics/hammerheadshark.jpg,pics/seaturtle.jpg,pics/stapler04b.jpg,pics/lock03a.jpg,pics/snowshoe.jpg,pics/sewingmachine01a.jpg,pics/peach01.jpg,pics/hose.jpg,blankImage,blankImage,blankImage,blankImage,basketball01,24,0.1166,,,,,,,,,,,,,,,,,,,,,,,,,,,,,,,,,,,,,,,,0,50,50,23,1,,,,,,,,,,,,,,,,,,,,,,,,,,,,,,,,,,,,,,,,,,,,,,,,,,,,,,,
,,,,,59d00e3d46447f00011f0228,6682b41eeb79ab8215dff63d,6682b8cc8a1a2ffae6a7b7f7,53,f,English,2024-07-01_15h10.54.999,ABmemTask3,2023.2.3,MacIntel,59.88023952,,,,,,,,,,,,,,,,,,,,,,,,,,,,,,,525.8949,526.8942,526.8943,7,527.3938,529.2613,0.0014,529.3777,0.1163,0.1168,0.1166,0.1165,0.1157,0.1174,0.1171,0.1165,0.1168,0.1166,0.1167,529.3778,531.0277,left,1.6281,,531.0278,531.3444,right,0.2994,,36,0,104,531.3444,532.3443,,,,,,1_AB,L5_T1A_T2A,5,0,0,7,12,6,5,17,Bib,Did you see the Bib,0.12,0,resources/,pics/hammerheadshark.jpg,pics/wheel01.jpg,pics/binder03b.jpg,pics/hairdryer02a.jpg,pics/christmaslights.jpg,pics/sandbarshark.jpg,pics/binoculars01b.jpg,pics/piggybank.jpg,pics/aquarium.jpg,pics/candleholder01.jpg,pics/sink.jpg,pics/calendar.jpg,pics/birdhouse.jpg,pics/bowtie.jpg,pics/onion.jpg,pics/golfball.jpg,pics/sailboat.jpg,bib,62,0.1165,0.1168,0.1168,,,,,,,,,,,,,,,,,,,,,,,,,,,,,,,,,,,,,,0,51,51,61,1,0.1166,0.1166,,,,,,,,,,,,,,,,,,,,,,,,,,,,,,,,,,,,,,,,,,,,,,,,,,,,,
,,,,,59d00e3d46447f00011f0228,6682b41eeb79ab8215dff63d,6682b8cc8a1a2ffae6a7b7f7,53,f,English,2024-07-01_15h10.54.999,ABmemTask3,2023.2.3,MacIntel,59.88023952,,,,,,,,,,,,,,,,,,,,,,,,,,,,,,,532.345,533.3442,533.3443,7,533.8444,535.128,0.0012,535.2442,0.1161,0.1167,0.1167,0.1166,0.1166,0.1166,0.1166,0.1159,0.1177,0.1166,0.1166,535.2443,536.0943,right,0.828,,536.0944,536.4439,right,0.333,,38,0,106,536.4439,537.4444,,,,,,1_AB,L1_T1P_T2P,1,1,1,6,7,5,5,12,rope,Did you see the rope,0.12,0,resources/,pics/toiletpaper01a.jpg,pics/sewingmachine01a.jpg,pics/birdhouse.jpg,pics/sealion.jpg,pics/safetypin.jpg,pics/rope03.jpg,pics/stapler04.jpg,pics/binder03b.jpg,pics/ashtray01.jpg,pics/sandbarshark.jpg,pics/chainsaw.jpg,pics/nutcracker01.jpg,blankImage,blankImage,blankImage,blankImage,blankImage,rope03,4,,,,,,,,,,,,,,,,,,,,,,,,,,,,,,,,,,,,,,,,,0,52,52,3,1,,,,,,,,,,,,,,,,,,,,,,,,,,,,,,,,,,,,,,,,,,,,,,,,,,,,,,,
,,,,,59d00e3d46447f00011f0228,6682b41eeb79ab8215dff63d,6682b8cc8a1a2ffae6a7b7f7,53,f,English,2024-07-01_15h10.54.999,ABmemTask3,2023.2.3,MacIntel,59.88023952,,,,,,,,,,,,,,,,,,,,,,,,,,,,,,,537.4451,538.4444,538.4444,7,538.9444,540.4614,0.0012,540.5777,0.1161,0.1169,0.1165,0.1166,0.1166,0.1166,0.1166,0.1168,0.1166,0.1166,0.1168,540.5777,541.4279,right,0.8275,,541.428,541.8444,left,0.4114,,40,0,108,541.8444,542.8444,,,,,,1_AB,L5_T1P_T2A,5,1,0,4,9,3,5,14,Frisbee,Did you see the Frisbee,0.12,0,resources/,pics/giraffe.jpg,pics/christmaslights.jpg,pics/bowtie.jpg,pics/frisbee.jpg,pics/banjo.jpg,pics/calendar.jpg,pics/butterfly.jpg,pics/onion.jpg,pics/starfish01.jpg,pics/footballhelmet.jpg,pics/blender.jpg,pics/candleholder01.jpg,pics/hairdryer02a.jpg,pics/dromedary.jpg,blankImage,blankImage,blankImage,frisbee,58,0.1167,0.1167,,,,,,,,,,,,,,,,,,,,,,,,,,,,,,,,,,,,,,,0,53,53,57,1,,,,,,,,,,,,,,,,,,,,,,,,,,,,,,,,,,,,,,,,,,,,,,,,,,,,,,,
,,,,,59d00e3d46447f00011f0228,6682b41eeb79ab8215dff63d,6682b8cc8a1a2ffae6a7b7f7,53,f,English,2024-07-01_15h10.54.999,ABmemTask3,2023.2.3,MacIntel,59.88023952,,,,,,,,,,,,,,,,,,,,,,,,,,,,,,,542.845,543.8443,543.8443,7,544.3444,545.5114,0.0012,545.6277,0.1151,0.1176,0.1169,0.1165,0.1166,0.1167,0.1168,0.1166,0.1166,0.1167,,545.6278,546.5778,right,0.9278,,546.5779,547.6777,right,1.0828,,38,0,110,547.6778,548.6776,,,,,,1_AB,L1_T1P_T2A,1,1,0,7,8,6,3,11,eggplant,Did you see the eggplant,0.12,0,resources/,pics/salmon.jpg,pics/fanblades.jpg,pics/hammerheadshark.jpg,pics/wheel01.jpg,pics/snowshoe.jpg,pics/birdhouse.jpg,pics/eggplant.jpg,pics/spiderweb.jpg,pics/zebra.jpg,pics/pencilsharpener02a.jpg,pics/backpack01a.jpg,blankImage,blankImage,blankImage,blankImage,blankImage,blankImage,eggplant,32,,,,,,,,,,,,,,,,,,,,,,,,,,,,,,,,,,,,,,,,,0,54,54,31,1,,,,,,,,,,,,,,,,,,,,,,,,,,,,,,,,,,,,,,,,,,,,,,,,,,,,,,,
,,,,,59d00e3d46447f00011f0228,6682b41eeb79ab8215dff63d,6682b8cc8a1a2ffae6a7b7f7,53,f,English,2024-07-01_15h10.54.999,ABmemTask3,2023.2.3,MacIntel,59.88023952,,,,,,,,,,,,,,,,,,,,,,,,,,,,,,,548.6784,549.6776,549.6776,7,550.1776,551.2282,0.0015,551.3443,0.1159,0.1167,0.1167,0.1167,0.1166,0.1166,0.1167,0.1163,0.1171,,,551.3444,552.4277,right,1.0614,,552.4278,552.7612,left,0.3178,,40,0,112,552.7612,553.7611,,,,,,1_AB,L1_T1P_T2A,1,1,0,6,7,5,3,10,Duct tape,Did you see the Duct tape,0.12,0,resources/,pics/butterfly.jpg,pics/noparkingsign.jpg,pics/pictureframe04.jpg,pics/cork02.jpg,pics/fanblades.jpg,pics/ducttape.jpg,pics/icecube01.jpg,pics/siamesecat.jpg,pics/sink.jpg,pics/sandbarshark.jpg,blankImage,blankImage,blankImage,blankImage,blankImage,blankImage,blankImage,ducttape,36,,,,,,,,,,,,,,,,,,,,,,,,,,,,,,,,,,,,,,,,,0,55,55,35,1,,,,,,,,,,,,,,,,,,,,,,,,,,,,,,,,,,,,,,,,,,,,,,,,,,,,,,,
,,,,,59d00e3d46447f00011f0228,6682b41eeb79ab8215dff63d,6682b8cc8a1a2ffae6a7b7f7,53,f,English,2024-07-01_15h10.54.999,ABmemTask3,2023.2.3,MacIntel,59.88023952,,,,,,,,,,,,,,,,,,,,,,,,,,,,,,,553.7618,554.761,554.7611,7,555.261,556.4281,0.0015,556.5443,0.116,0.1167,0.1167,0.1166,0.1164,0.1169,0.1166,0.1167,0.1167,0.1165,,556.5444,557.5778,right,1.0141,,557.5778,557.878,right,0.2957,,38,0,114,557.8781,558.8776,,,,,,1_AB,L1_T1P_T2A,1,1,0,7,8,6,3,11,Spear,Did you see the Spear,0.12,0,resources/,pics/butterfly.jpg,pics/banjo.jpg,pics/chainsaw.jpg,pics/christmaslights.jpg,pics/dustpan.jpg,pics/shovel01.jpg,pics/spear02.jpg,pics/table01.jpg,pics/starfish01.jpg,pics/bowlingpin.jpg,pics/carrot01.jpg,blankImage,blankImage,blankImage,blankImage,blankImage,blankImage,spear02,39,,,,,,,,,,,,,,,,,,,,,,,,,,,,,,,,,,,,,,,,,0,56,56,38,1,,,,,,,,,,,,,,,,,,,,,,,,,,,,,,,,,,,,,,,,,,,,,,,,,,,,,,,
,,,,,59d00e3d46447f00011f0228,6682b41eeb79ab8215dff63d,6682b8cc8a1a2ffae6a7b7f7,53,f,English,2024-07-01_15h10.54.999,ABmemTask3,2023.2.3,MacIntel,59.88023952,,,,,,,,,,,,,,,,,,,,,,,,,,,,,,,558.8784,559.8768,559.8768,7,560.3767,561.5447,0.0012,561.6611,0.1173,0.1167,0.1166,0.1168,0.1164,0.1166,0.1167,0.1166,0.1167,0.1167,,561.6612,562.611,right,0.9268,,562.6111,562.9444,left,0.3169,,38,0,116,562.9445,563.9444,,,,,,1_AB,L1_T1P_T2P,1,1,1,7,8,6,3,11,Eiffel tower,Did you see the Eiffel tower,0.12,0,resources/,pics/seagull.jpg,pics/cymbal.jpg,pics/match.jpg,pics/binoculars01b.jpg,pics/ball02.jpg,pics/onion.jpg,pics/eiffeltower.jpg,pics/stapler11.jpg,pics/peach01.jpg,pics/sandbarshark.jpg,pics/boot02b.jpg,blankImage,blankImage,blankImage,blankImage,blankImage,blankImage,eiffeltower,1,,,,,,,,,,,,,,,,,,,,,,,,,,,,,,,,,,,,,,,,,0,57,57,0,1,,,,,,,,,,,,,,,,,,,,,,,,,,,,,,,,,,,,,,,,,,,,,,,,,,,,,,,
,,,,,59d00e3d46447f00011f0228,6682b41eeb79ab8215dff63d,6682b8cc8a1a2ffae6a7b7f7,53,f,English,2024-07-01_15h10.54.999,ABmemTask3,2023.2.3,MacIntel,59.88023952,,,,,,,,,,,,,,,,,,,,,,,,,,,,,,,563.945,564.9444,564.9445,7,565.4444,566.4948,0.0013,566.6111,0.1159,0.1167,0.1168,0.1166,0.1156,0.1179,0.1166,0.1167,0.1165,,,566.6112,567.6102,right,0.9776,,567.6103,568.0948,left,0.4804,,38,0,118,568.0948,569.0944,,,,,,1_AB,L1_T1P_T2P,1,1,1,5,6,4,4,10,thermometer,Did you see the thermometer,0.12,0,resources/,pics/triangle.jpg,pics/shovel01.jpg,pics/mummy.jpg,pics/noparkingsign.jpg,pics/thermometer02b.jpg,pics/stapler04.jpg,pics/piggybank.jpg,pics/golfball.jpg,pics/laptop01a.jpg,pics/aquarium.jpg,blankImage,blankImage,blankImage,blankImage,blankImage,blankImage,blankImage,thermometer02b,8,,,,,,,,,,,,,,,,,,,,,,,,,,,,,,,,,,,,,,,,,0,58,58,7,1,,,,,,,,,,,,,,,,,,,,,,,,,,,,,,,,,,,,,,,,,,,,,,,,,,,,,,,
,,,,,59d00e3d46447f00011f0228,6682b41eeb79ab8215dff63d,6682b8cc8a1a2ffae6a7b7f7,53,f,English,2024-07-01_15h10.54.999,ABmemTask3,2023.2.3,MacIntel,59.88023952,,,,,,,,,,,,,,,,,,,,,,,,,,,,,,,569.1068,570.111,570.1111,7,570.611,572.3615,0.0014,572.4777,0.116,0.1166,0.1158,0.1177,0.1156,0.1177,0.1166,0.1167,0.1167,0.1166,0.1165,572.4778,572.8606,right,0.3641,,572.8607,573.2945,right,0.4173,,40,0,120,573.2945,574.2943,,,,,,1_AB,L5_T1P_T2P,5,1,1,6,11,5,5,16,cruise ship,Did you see the cruise ship,0.12,0,resources/,pics/seaturtle.jpg,pics/ashtray01.jpg,pics/pencil01.jpg,pics/fanblades.jpg,pics/triangle.jpg,pics/cruiseship.jpg,pics/wheel01.jpg,pics/dustpan.jpg,pics/starfish01.jpg,pics/banjo.jpg,pics/stapler12.jpg,pics/match.jpg,pics/cannon.jpg,pics/sandbarshark.jpg,pics/sink.jpg,pics/zebra.jpg,blankImage,cruiseship,51,0.1168,0.1167,0.1159,,,,,,,,,,,,,,,,,,,,,,,,,,,,,,,,,,,,,,0,59,59,50,1,0.1175,,,,,,,,,,,,,,,,,,,,,,,,,,,,,,,,,,,,,,,,,,,,,,,,,,,,,,
,,,,,59d00e3d46447f00011f0228,6682b41eeb79ab8215dff63d,6682b8cc8a1a2ffae6a7b7f7,53,f,English,2024-07-01_15h10.54.999,ABmemTask3,2023.2.3,MacIntel,59.88023952,,,,,,,,,,,,,,,,,,,,,,,,,,,,,,,574.295,575.2941,575.2942,7,575.7944,576.9605,0.0012,577.0777,0.1158,0.1172,0.1153,0.1177,0.1168,0.1167,0.1167,0.1167,0.1168,0.1154,,577.0778,577.911,right,0.8218,,577.9111,578.2605,right,0.333,,42,0,122,578.2606,579.2611,,,,,,1_AB,L1_T1P_T2P,1,1,1,7,8,6,3,11,medal,Did you see the medal,0.12,0,resources/,pics/hen.jpg,pics/starfish01.jpg,pics/nutcracker01.jpg,pics/ball02.jpg,pics/fanblades.jpg,pics/christmaslights.jpg,pics/medal02b.jpg,pics/stapler09.jpg,pics/carrot01.jpg,pics/hammerheadshark.jpg,pics/sailboat.jpg,blankImage,blankImage,blankImage,blankImage,blankImage,blankImage,medal02b,19,,,,,,,,,,,,,,,,,,,,,,,,,,,,,,,,,,,,,,,,,0,60,60,18,1,,,,,,,,,,,,,,,,,,,,,,,,,,,,,,,,,,,,,,,,,,,,,,,,,,,,,,,
,,,,,59d00e3d46447f00011f0228,6682b41eeb79ab8215dff63d,6682b8cc8a1a2ffae6a7b7f7,53,f,English,2024-07-01_15h10.54.999,ABmemTask3,2023.2.3,MacIntel,59.88023952,,,,,,,,,,,,,,,,,,,,,,,,,,,,,,,579.2734,580.261,580.2611,7,580.761,582.5115,0.0013,582.6278,0.1161,0.1168,0.1166,0.1166,0.1167,0.1167,0.1166,0.1168,0.1165,0.1167,0.1167,582.6278,583.4612,right,0.8117,,583.4612,583.8612,left,0.3866,,44,0,124,583.8613,584.8611,,,,,,1_AB,L5_T1P_T2A,5,1,0,6,11,5,5,16,belt,Did you see the belt,0.12,0,resources/,pics/banjo.jpg,pics/birdhouse.jpg,pics/spoon01.jpg,pics/table01.jpg,pics/candle01.jpg,pics/belt02a.jpg,pics/peach01.jpg,pics/chainsaw.jpg,pics/toiletpaper01a.jpg,pics/proboscismonkey.jpg,pics/cymbal.jpg,pics/binoculars01b.jpg,pics/cannon.jpg,pics/noparkingsign.jpg,pics/sailboat.jpg,pics/carrot01.jpg,blankImage,belt02a,61,0.1166,0.1168,0.1166,,,,,,,,,,,,,,,,,,,,,,,,,,,,,,,,,,,,,,0,61,61,60,1,0.1166,,,,,,,,,,,,,,,,,,,,,,,,,,,,,,,,,,,,,,,,,,,,,,,,,,,,,,
,,,,,59d00e3d46447f00011f0228,6682b41eeb79ab8215dff63d,6682b8cc8a1a2ffae6a7b7f7,53,f,English,2024-07-01_15h10.54.999,ABmemTask3,2023.2.3,MacIntel,59.88023952,,,,,,,,,,,,,,,,,,,,,,,,,,,,,,,,,,,,,,,,,,,,,,,,,,,,,,,,,,,,,,,,,,,,,,,,,,,,,,,,,,,,,,,,,,,,,,,,,,,,,,,,,,,584.8624,588.7453,space,3.8591,,,,,,,,,,,,,,,,,,,,,,,,,,,,,,,,,,,,,,,,,,,,,,,,,,,,,,,,,,,,,,,,,,,,,,,,,,,,,,,,,,,,,,,,,,,,,
,,,,,59d00e3d46447f00011f0228,6682b41eeb79ab8215dff63d,6682b8cc8a1a2ffae6a7b7f7,53,f,English,2024-07-01_15h10.54.999,ABmemTask3,2023.2.3,MacIntel,59.88023952,,,space,10.8105,,,,,,,,,,,,,,,,,,,,,,,,,,,,,,,,,,,,,,,,,,,,,,,,,,,,,,,,,,,,,,,,,,,,,,,,,,,,,,,,,,,,,,,,,,,,,,,,,,,,,,,,,,,,,,,,,,,,,,,,,,,,,,,,,,,,,,,,,,,,,,,,,,,588.7454,599.5787,,,,,,,,,,,,,,,,,,,,,,,,,,,,,,,,,,,,,,,,,,,,,,,,,,,
,,,,,59d00e3d46447f00011f0228,6682b41eeb79ab8215dff63d,6682b8cc8a1a2ffae6a7b7f7,53,f,English,2024-07-01_15h10.54.999,ABmemTask3,2023.2.3,MacIntel,59.88023952,,,,,,,,,,,,,,,,,,,,,,,,,,,,,,,,,,,,,,,,,,,,,,,,,,,,,,,,,,,,,,,,,,,,,,,,,,,,,,,,,,,,,,,,,,,,,,,,,,,,,,,,,,,,,,,,,,,,,,,,,,,,,,,,,,,,,,,,,,,,,,,,,,,,,,,,,599.5788,610.1287,space,10.5259,,,,,,,,,,,,,,,,,,,,,,,,,,,,,,,,,,,,,,,,,,,,,,,
,,,,,59d00e3d46447f00011f0228,6682b41eeb79ab8215dff63d,6682b8cc8a1a2ffae6a7b7f7,53,f,English,2024-07-01_15h10.54.999,ABmemTask3,2023.2.3,MacIntel,59.88023952,,,,,,,,,,,,,,,,,,,,,,,,,,,,,,,610.1403,611.1444,611.1445,7,611.6434,613.2782,0.0014,613.3944,0.116,0.1169,0.1173,0.1158,0.1176,0.1156,0.1165,0.1176,0.1165,0.1168,0.1155,613.3945,614.328,left,0.9242,,,,,,,1,44,2,614.328,615.3278,,,,,,2_AB,L5_T1A_T2P,5,0,1,7,12,6,3,15,radish,Did you see the radish,0.12,0,resources/,pics/necklace.jpg,pics/peach01.jpg,pics/chainsaw.jpg,pics/giraffe.jpg,pics/blender.jpg,pics/nutcracker01.jpg,pics/seagull.jpg,pics/hairdryer02a.jpg,pics/cannon.jpg,pics/binder03b.jpg,pics/christmaslights.jpg,pics/stapler06.jpg,pics/proboscismonkey.jpg,pics/ball02.jpg,pics/wheel01.jpg,blankImage,blankImage,radish01,55,0.1179,0.1167,0.1167,,,,,,,,,,,,,,,,,,,,,,,,,,,,,,,,,,,,,,,,,,,,,,,,,,,,0,0,0,54,1,,,,,,,,,,,,,,,,,,,,,,,,,,,,,,,,,,,,,,,,,
,,,,,59d00e3d46447f00011f0228,6682b41eeb79ab8215dff63d,6682b8cc8a1a2ffae6a7b7f7,53,f,English,2024-07-01_15h10.54.999,ABmemTask3,2023.2.3,MacIntel,59.88023952,,,,,,,,,,,,,,,,,,,,,,,,,,,,,,,615.3287,616.3268,616.3268,7,616.8277,618.2282,0.001,618.3445,0.1163,0.1169,0.1166,0.1155,0.1178,0.1165,0.1159,0.1177,0.1166,0.1169,0.1162,618.3446,618.9279,right,0.5726,,,,,,,2,44,4,618.9279,619.9268,,,,,,2_AB,L1_T1P_T2A,1,1,0,7,8,6,5,13,rice,Did you see the rice,0.12,0,resources/,pics/necklace.jpg,pics/floortile02.jpg,pics/cork02.jpg,pics/seagull.jpg,pics/hen.jpg,pics/snowshoe.jpg,pics/rice.jpg,pics/ball02.jpg,pics/peanut01.jpg,pics/boot02b.jpg,pics/spiderweb.jpg,pics/nutcracker01.jpg,pics/bowlingpin.jpg,blankImage,blankImage,blankImage,blankImage,rice,39,0.117,,,,,,,,,,,,,,,,,,,,,,,,,,,,,,,,,,,,,,,,,,,,,,,,,,,,,,0,1,1,38,1,,,,,,,,,,,,,,,,,,,,,,,,,,,,,,,,,,,,,,,,,
,,,,,59d00e3d46447f00011f0228,6682b41eeb79ab8215dff63d,6682b8cc8a1a2ffae6a7b7f7,53,f,English,2024-07-01_15h10.54.999,ABmemTask3,2023.2.3,MacIntel,59.88023952,,,,,,,,,,,,,,,,,,,,,,,,,,,,,,,619.9273,620.9279,620.9279,7,621.4279,622.5951,0.0011,622.7112,0.1162,0.1165,0.1167,0.1168,0.117,0.1163,0.1164,0.116,0.1166,0.1178,,622.7113,623.6281,left,0.8941,,,,,,,3,44,6,623.6281,624.6278,,,,,,2_AB,L1_T1A_T2P,1,0,1,6,7,5,4,11,Eye,Did you see the Eye,0.12,0,resources/,pics/spoon01.jpg,pics/ball02.jpg,pics/sandbarshark.jpg,pics/pencil01.jpg,pics/icecube01.jpg,pics/floortile02.jpg,pics/stapler03.jpg,pics/binder03b.jpg,pics/hairdryer02a.jpg,pics/laptop01a.jpg,pics/sewingmachine01a.jpg,blankImage,blankImage,blankImage,blankImage,blankImage,blankImage,eye,24,,,,,,,,,,,,,,,,,,,,,,,,,,,,,,,,,,,,,,,,,,,,,,,,,,,,,,,0,2,2,23,1,,,,,,,,,,,,,,,,,,,,,,,,,,,,,,,,,,,,,,,,,
,,,,,59d00e3d46447f00011f0228,6682b41eeb79ab8215dff63d,6682b8cc8a1a2ffae6a7b7f7,53,f,English,2024-07-01_15h10.54.999,ABmemTask3,2023.2.3,MacIntel,59.88023952,,,,,,,,,,,,,,,,,,,,,,,,,,,,,,,624.6283,625.6278,625.6279,7,626.128,627.1783,0.001,627.2947,0.1151,0.1177,0.1167,0.1167,0.1167,0.1167,0.1166,0.1157,0.1176,,,627.2948,627.9272,right,0.6132,,,,,,,4,44,8,627.9273,628.9279,,,,,,2_AB,L1_T1P_T2P,1,1,1,4,5,3,5,10,buffalo,Did you see the buffalo,0.12,0,resources/,pics/pictureframe04.jpg,pics/lock03a.jpg,pics/birdhouse.jpg,pics/bison.jpg,pics/stapler11.jpg,pics/kangaroo.jpg,pics/mummy.jpg,pics/zebra.jpg,pics/binoculars01b.jpg,pics/microscope.jpg,blankImage,blankImage,blankImage,blankImage,blankImage,blankImage,blankImage,bison,12,,,,,,,,,,,,,,,,,,,,,,,,,,,,,,,,,,,,,,,,,,,,,,,,,,,,,,,0,3,3,11,1,,,,,,,,,,,,,,,,,,,,,,,,,,,,,,,,,,,,,,,,,
,,,,,59d00e3d46447f00011f0228,6682b41eeb79ab8215dff63d,6682b8cc8a1a2ffae6a7b7f7,53,f,English,2024-07-01_15h10.54.999,ABmemTask3,2023.2.3,MacIntel,59.88023952,,,,,,,,,,,,,,,,,,,,,,,,,,,,,,,628.9285,629.9279,629.928,7,630.4269,632.0616,0.0012,632.1779,0.1175,0.1162,0.1157,0.1178,0.1167,0.1156,0.1169,0.1174,0.1157,0.1177,0.1156,632.178,633.0113,left,0.8228,,,,,,,5,44,10,633.0114,634.0113,,,,,,2_AB,L5_T1A_T2P,5,0,1,5,10,4,5,15,wedding cake,Did you see the wedding cake,0.12,0,resources/,pics/microscope.jpg,pics/golfball.jpg,pics/kangaroo.jpg,pics/backpack01a.jpg,pics/sewingmachine01a.jpg,pics/christmaslights.jpg,pics/lightswitch01.jpg,pics/carrot01.jpg,pics/dromedary.jpg,pics/stapler09.jpg,pics/candle01.jpg,pics/hammerheadshark.jpg,pics/footballhelmet.jpg,pics/banjo.jpg,pics/binoculars01b.jpg,blankImage,blankImage,weddingcake,57,0.1177,0.1166,0.1167,,,,,,,,,,,,,,,,,,,,,,,,,,,,,,,,,,,,,,,,,,,,,,,,,,,,0,4,4,56,1,,,,,,,,,,,,,,,,,,,,,,,,,,,,,,,,,,,,,,,,,
,,,,,59d00e3d46447f00011f0228,6682b41eeb79ab8215dff63d,6682b8cc8a1a2ffae6a7b7f7,53,f,English,2024-07-01_15h10.54.999,ABmemTask3,2023.2.3,MacIntel,59.88023952,,,,,,,,,,,,,,,,,,,,,,,,,,,,,,,634.0118,635.0112,635.0113,7,635.5112,636.3273,0.0011,636.4435,0.1161,0.1165,0.1168,0.1169,0.1166,0.1166,0.1159,,,,,636.4436,637.0114,right,0.558,,,,,,,6,44,12,637.0115,638.0102,,,,,,2_AB,L1_T1P_T2A,1,1,0,4,5,3,3,8,almonds,Did you see the almonds,0.12,0,resources/,pics/shovel01.jpg,pics/icecube01.jpg,pics/candleholder01.jpg,pics/almond.jpg,pics/onion.jpg,pics/lightswitch01.jpg,pics/lock03a.jpg,pics/pencilsharpener02a.jpg,blankImage,blankImage,blankImage,blankImage,blankImage,blankImage,blankImage,blankImage,blankImage,almond,38,,,,,,,,,,,,,,,,,,,,,,,,,,,,,,,,,,,,,,,,,,,,,,,,,,,,,,,0,5,5,37,1,,,,,,,,,,,,,,,,,,,,,,,,,,,,,,,,,,,,,,,,,
,,,,,59d00e3d46447f00011f0228,6682b41eeb79ab8215dff63d,6682b8cc8a1a2ffae6a7b7f7,53,f,English,2024-07-01_15h10.54.999,ABmemTask3,2023.2.3,MacIntel,59.88023952,,,,,,,,,,,,,,,,,,,,,,,,,,,,,,,638.0108,639.0113,639.0113,7,639.5113,640.9114,0.0011,641.028,0.1151,0.1166,0.1178,0.1155,0.1168,0.1176,0.117,0.1163,0.1158,0.1174,0.1158,641.028,641.578,right,0.5277,,,,,,,7,44,14,641.5782,642.5779,,,,,,2_AB,L1_T1P_T2P,1,1,1,7,8,6,5,13,Sausage,Did you see the Sausage,0.12,0,resources/,pics/safetypin.jpg,pics/mummy.jpg,pics/ashtray01.jpg,pics/toiletpaper01a.jpg,pics/piggybank.jpg,pics/dustpan.jpg,pics/sausage.jpg,pics/stapler01.jpg,pics/onion.jpg,pics/binder03b.jpg,pics/kangaroo.jpg,pics/football.jpg,pics/candle01.jpg,blankImage,blankImage,blankImage,blankImage,sausage,2,0.1175,,,,,,,,,,,,,,,,,,,,,,,,,,,,,,,,,,,,,,,,,,,,,,,,,,,,,,0,6,6,1,1,,,,,,,,,,,,,,,,,,,,,,,,,,,,,,,,,,,,,,,,,
,,,,,59d00e3d46447f00011f0228,6682b41eeb79ab8215dff63d,6682b8cc8a1a2ffae6a7b7f7,53,f,English,2024-07-01_15h10.54.999,ABmemTask3,2023.2.3,MacIntel,59.88023952,,,,,,,,,,,,,,,,,,,,,,,,,,,,,,,642.5784,643.5769,643.577,7,644.078,645.0116,0.0008,645.128,0.1164,0.1157,0.1177,0.1167,0.1165,0.1166,0.1157,0.1178,,,,645.128,645.6281,right,0.4895,,,,,,,8,44,16,645.6282,646.628,,,,,,2_AB,L1_T1P_T2P,1,1,1,5,6,4,3,9,toaster,Did you see the toaster,0.12,0,resources/,pics/cannon.jpg,pics/candle01.jpg,pics/pencil01.jpg,pics/hose.jpg,pics/toaster01.jpg,pics/stapler08.jpg,pics/christmaslights.jpg,pics/sailboat.jpg,pics/lock03a.jpg,blankImage,blankImage,blankImage,blankImage,blankImage,blankImage,blankImage,blankImage,toaster01,6,,,,,,,,,,,,,,,,,,,,,,,,,,,,,,,,,,,,,,,,,,,,,,,,,,,,,,,0,7,7,5,1,,,,,,,,,,,,,,,,,,,,,,,,,,,,,,,,,,,,,,,,,
,,,,,59d00e3d46447f00011f0228,6682b41eeb79ab8215dff63d,6682b8cc8a1a2ffae6a7b7f7,53,f,English,2024-07-01_15h10.54.999,ABmemTask3,2023.2.3,MacIntel,59.88023952,,,,,,,,,,,,,,,,,,,,,,,,,,,,,,,646.6285,647.627,647.627,7,648.1269,649.2951,0.001,649.4113,0.1174,0.116,0.1163,0.1174,0.1167,0.1168,0.1156,0.1175,0.1167,0.1168,,649.4114,650.4448,left,1.0098,,,,,,,9,44,18,650.4449,651.4447,,,,,,2_AB,L1_T1A_T2P,1,0,1,6,7,5,4,11,bench,Did you see the bench,0.12,0,resources/,pics/butterfly.jpg,pics/peach01.jpg,pics/blender.jpg,pics/binoculars01b.jpg,pics/starfish01.jpg,pics/ball02.jpg,pics/stapler06.jpg,pics/cork02.jpg,pics/mummy.jpg,pics/calendar.jpg,pics/necklace.jpg,blankImage,blankImage,blankImage,blankImage,blankImage,blankImage,bench01,28,,,,,,,,,,,,,,,,,,,,,,,,,,,,,,,,,,,,,,,,,,,,,,,,,,,,,,,0,8,8,27,1,,,,,,,,,,,,,,,,,,,,,,,,,,,,,,,,,,,,,,,,,
,,,,,59d00e3d46447f00011f0228,6682b41eeb79ab8215dff63d,6682b8cc8a1a2ffae6a7b7f7,53,f,English,2024-07-01_15h10.54.999,ABmemTask3,2023.2.3,MacIntel,59.88023952,,,,,,,,,,,,,,,,,,,,,,,,,,,,,,,651.4453,652.4446,652.4447,7,652.9437,654.2274,0.0011,654.3436,0.1161,0.1177,0.1166,0.1156,0.1176,0.1168,0.1166,0.1171,0.1162,0.1168,0.1156,654.3438,655.0114,right,0.6453,,,,,,,10,44,20,655.0116,656.0105,,,,,,2_AB,L5_T1P_T2P,5,1,1,4,9,3,3,12,tent,Did you see the tent,0.12,0,resources/,pics/spiderweb.jpg,pics/hairdryer02a.jpg,pics/noparkingsign.jpg,pics/tent.jpg,pics/nutcracker01.jpg,pics/boot02b.jpg,pics/golfball.jpg,pics/candle01.jpg,pics/stapler08.jpg,pics/fanblades.jpg,pics/cannon.jpg,pics/lightswitch01.jpg,blankImage,blankImage,blankImage,blankImage,blankImage,tent,51,,,,,,,,,,,,,,,,,,,,,,,,,,,,,,,,,,,,,,,,,,,,,,,,,,,,,,,0,9,9,50,1,,,,,,,,,,,,,,,,,,,,,,,,,,,,,,,,,,,,,,,,,
