consent1.started,consent1.stopped,key_resp_8.keys,key_resp_8.rt,key_resp_8.duration,PROLIFIC_PID,STUDY_ID,SESSION_ID,age,sex,native language,date,expName,psychopyVersion,OS,frameRate,consent2.started,consent2.stopped,key_resp_9.keys,key_resp_9.rt,key_resp_9.duration,consent3.started,consent3.stopped,key_resp_10.keys,key_resp_10.rt,key_resp_10.duration,consent4.started,consent4.stopped,key_resp_11.keys,key_resp_11.rt,key_resp_11.duration,consent5.started,consent5.stopped,key_resp_12.keys,key_resp_12.rt,key_resp_12.duration,bonusInstruct.started,bonusInstruct.stopped,key_resp_14.keys,key_resp_14.rt,key_resp_14.duration,practiceInstruct.started,practiceInstruct.stopped,key_resp.keys,key_resp.rt,key_resp.duration,cueWord_2.started,cueWord_2.stopped,fix.started,frameTarget,fix.stopped,trial.started,img1Add,trial.stopped,img2Add,img3Add,img4Add,img5Add,img6Add,img7Add,img8Add,img9Add,img10Add,img11Add,img12Add,prompt1.started,prompt1.stopped,key_resp_2.keys,key_resp_2.rt,key_resp_2.duration,prompt2.started,prompt2.stopped,key_resp_3.keys,key_resp_3.rt,key_resp_3.duration,runningAcc_AB,runningTotal,runningCount_AB,feedback.started,feedback.stopped,trials.thisRepN,trials.thisTrialN,trials.thisN,trials.thisIndex,trials.ran,TrialType,CondType,Lag,T1_PA,T2_PA,T1Loc,T2Loc,PreDistractor,PostDistractor,TotalImg,cueWord,T1cue,StimLength,isi,PicFolder,Img1,Img2,Img3,Img4,Img5,Img6,Img7,Img8,Img9,Img10,Img11,Img12,Img13,Img14,Img15,Img16,Img17,T1_Identity,trialID,img13Add,img14Add,img15Add,ABfeedback.started,ABfeedback.stopped,key_resp_13.keys,key_resp_13.rt,key_resp_13.duration,MemPracticeInstruction.started,MemPracticeInstruction.stopped,key_resp_5.keys,key_resp_5.rt,key_resp_5.duration,memTrial.started,memTrial.stopped,Mem_runningPoints,key_resp_4.keys,key_resp_4.rt,key_resp_4.duration,memTrialFeedback.started,memTrialFeedback.stopped,trials_2.thisRepN,trials_2.thisTrialN,trials_2.thisN,trials_2.thisIndex,trials_2.ran,ABtrialID,priorLag,image,memFeedback.started,memFeedback.frame,memFeedback.ended,memFeedback.stopped,bonus.started,bonus.stopped,memoryBlockABInstruct.started,memoryBlockABInstruct.stopped,key_resp_6.keys,key_resp_6.rt,key_resp_6.duration,AB_block_1.thisRepN,AB_block_1.thisTrialN,AB_block_1.thisN,AB_block_1.thisIndex,AB_block_1.ran,img16Add,img17Add,AB_break1.started,AB_break1.stopped,PerceiveBlockABInstruct.started,PerceiveBlockABInstruct.stopped,key_resp_7.keys,key_resp_7.rt,key_resp_7.duration,AB_block_2.thisRepN,AB_block_2.thisTrialN,AB_block_2.thisN,AB_block_2.thisIndex,AB_block_2.ran,AB_break2.started,AB_break2.stopped,AB_block_3.thisRepN,AB_block_3.thisTrialN,AB_block_3.thisN,AB_block_3.thisIndex,AB_block_3.ran,AB_break3.started,AB_break3.stopped,AB_block_4.thisRepN,AB_block_4.thisTrialN,AB_block_4.thisN,AB_block_4.thisIndex,AB_block_4.ran,AB_break4.started,AB_break4.stopped,AB_block_5.thisRepN,AB_block_5.thisTrialN,AB_block_5.thisN,AB_block_5.thisIndex,AB_block_5.ran,AB_break5.started,AB_break5.stopped,AB_block_6.thisRepN,AB_block_6.thisTrialN,AB_block_6.thisN,AB_block_6.thisIndex,AB_block_6.ran,AB_break6.started,AB_break6.stopped,MemInstructionSURPRISE.started,MemInstructionSURPRISE.stopped,MemInstruction.started,MemInstruction.stopped,memBreak.started,memBreak.stopped,Mem_block_1.thisRepN,Mem_block_1.thisTrialN,Mem_block_1.thisN,Mem_block_1.thisIndex,Mem_block_1.ran
0.0012,15.4339,space,15.385,,659597ab573ada5debc6a899,6682b41eeb79ab8215dff63d,6682ba08572353c5e4e4ec9b,34,Female ,English ,2024-07-01_07h19.47.851,ABmemTask3,2023.2.3,Win32,29.85074627,,,,,,,,,,,,,,,,,,,,,,,,,,,,,,,,,,,,,,,,,,,,,,,,,,,,,,,,,,,,,,,,,,,,,,,,,,,,,,,,,,,,,,,,,,,,,,,,,,,,,,,,,,,,,,,,,,,,,,,,,,,,,,,,,,,,,,,,,,,,,,,,,,,,,,,,,,,,,,,,,,,,,,,,,,,,,,,,,,,,,,,,,,,,,,,,,,,,,,,,,,,
,,,,,659597ab573ada5debc6a899,6682b41eeb79ab8215dff63d,6682ba08572353c5e4e4ec9b,34,Female ,English ,2024-07-01_07h19.47.851,ABmemTask3,2023.2.3,Win32,29.85074627,15.4353,22.3585,space,6.8478,,,,,,,,,,,,,,,,,,,,,,,,,,,,,,,,,,,,,,,,,,,,,,,,,,,,,,,,,,,,,,,,,,,,,,,,,,,,,,,,,,,,,,,,,,,,,,,,,,,,,,,,,,,,,,,,,,,,,,,,,,,,,,,,,,,,,,,,,,,,,,,,,,,,,,,,,,,,,,,,,,,,,,,,,,,,,,,,,,,,,,,,,,,,,,,,,,,,,,,
,,,,,659597ab573ada5debc6a899,6682b41eeb79ab8215dff63d,6682ba08572353c5e4e4ec9b,34,Female ,English ,2024-07-01_07h19.47.851,ABmemTask3,2023.2.3,Win32,29.85074627,,,,,,22.36,33.5211,space,11.081,,,,,,,,,,,,,,,,,,,,,,,,,,,,,,,,,,,,,,,,,,,,,,,,,,,,,,,,,,,,,,,,,,,,,,,,,,,,,,,,,,,,,,,,,,,,,,,,,,,,,,,,,,,,,,,,,,,,,,,,,,,,,,,,,,,,,,,,,,,,,,,,,,,,,,,,,,,,,,,,,,,,,,,,,,,,,,,,,,,,,,,,,,,,,,,,,,
,,,,,659597ab573ada5debc6a899,6682b41eeb79ab8215dff63d,6682ba08572353c5e4e4ec9b,34,Female ,English ,2024-07-01_07h19.47.851,ABmemTask3,2023.2.3,Win32,29.85074627,,,,,,,,,,,33.5217,37.0988,space,3.5142,,,,,,,,,,,,,,,,,,,,,,,,,,,,,,,,,,,,,,,,,,,,,,,,,,,,,,,,,,,,,,,,,,,,,,,,,,,,,,,,,,,,,,,,,,,,,,,,,,,,,,,,,,,,,,,,,,,,,,,,,,,,,,,,,,,,,,,,,,,,,,,,,,,,,,,,,,,,,,,,,,,,,,,,,,,,,,,,,,,,,,,,,,,,,
,,,,,659597ab573ada5debc6a899,6682b41eeb79ab8215dff63d,6682ba08572353c5e4e4ec9b,34,Female ,English ,2024-07-01_07h19.47.851,ABmemTask3,2023.2.3,Win32,29.85074627,,,,,,,,,,,,,,,,37.0997,38.0731,space,0.91,,,,,,,,,,,,,,,,,,,,,,,,,,,,,,,,,,,,,,,,,,,,,,,,,,,,,,,,,,,,,,,,,,,,,,,,,,,,,,,,,,,,,,,,,,,,,,,,,,,,,,,,,,,,,,,,,,,,,,,,,,,,,,,,,,,,,,,,,,,,,,,,,,,,,,,,,,,,,,,,,,,,,,,,,,,,,,,,,,,,,,,,
,,,,,659597ab573ada5debc6a899,6682b41eeb79ab8215dff63d,6682ba08572353c5e4e4ec9b,34,Female ,English ,2024-07-01_07h19.47.851,ABmemTask3,2023.2.3,Win32,29.85074627,,,,,,,,,,,,,,,,,,,,,38.0751,76.7609,space,38.6267,,,,,,,,,,,,,,,,,,,,,,,,,,,,,,,,,,,,,,,,,,,,,,,,,,,,,,,,,,,,,,,,,,,,,,,,,,,,,,,,,,,,,,,,,,,,,,,,,,,,,,,,,,,,,,,,,,,,,,,,,,,,,,,,,,,,,,,,,,,,,,,,,,,,,,,,,,,,,,,,,,,,,,,,,,,,,,,,,,,
,,,,,659597ab573ada5debc6a899,6682b41eeb79ab8215dff63d,6682ba08572353c5e4e4ec9b,34,Female ,English ,2024-07-01_07h19.47.851,ABmemTask3,2023.2.3,Win32,29.85074627,,,,,,,,,,,,,,,,,,,,,,,,,,76.7615,104.1181,space,27.3009,,,,,,,,,,,,,,,,,,,,,,,,,,,,,,,,,,,,,,,,,,,,,,,,,,,,,,,,,,,,,,,,,,,,,,,,,,,,,,,,,,,,,,,,,,,,,,,,,,,,,,,,,,,,,,,,,,,,,,,,,,,,,,,,,,,,,,,,,,,,,,,,,,,,,,,,,,,,,,,,,,,,,,,,,,,,,,
,,,,,659597ab573ada5debc6a899,6682b41eeb79ab8215dff63d,6682ba08572353c5e4e4ec9b,34,Female ,English ,2024-07-01_07h19.47.851,ABmemTask3,2023.2.3,Win32,29.85074627,,,,,,,,,,,,,,,,,,,,,,,,,,,,,,,104.155,105.1324,105.1338,7,105.6367,108.2779,0.0114,108.5282,0.2179,0.232,0.2341,0.2398,0.2401,0.2374,0.2179,0.2542,0.2595,0.2626,0.2354,108.5294,112.2508,left,3.6825,,112.2518,113.8852,right,1.5906,,-4,0,2,113.8866,114.8714,0,0,0,0,1,prac_AB,L1_T1P_T2A,1,1,0,6,7,5,5,12,cat,Did you see the cat,0.25,0,resources/,pics/shipinabottle.jpg,pics/table01.jpg,pics/dustpan.jpg,pics/golfball.jpg,pics/giraffe.jpg,pics/cat.jpg,pics/peanut01.jpg,pics/pictureframe04.jpg,pics/fanblades.jpg,pics/laptop01a.jpg,pics/ball02.jpg,pics/blender.jpg,blankImage,blankImage,blankImage,blankImage,blankImage,cat,8,,,,,,,,,,,,,,,,,,,,,,,,,,,,,,,,,,,,,,,,,,,,,,,,,,,,,,,,,,,,,,,,,,,,,,,,,,,,,,,,,,,,,,,,,,,,,,,,,,,,
,,,,,659597ab573ada5debc6a899,6682b41eeb79ab8215dff63d,6682ba08572353c5e4e4ec9b,34,Female ,English ,2024-07-01_07h19.47.851,ABmemTask3,2023.2.3,Win32,29.85074627,,,,,,,,,,,,,,,,,,,,,,,,,,,,,,,114.8946,115.9176,115.9176,7,116.4015,118.5534,0.0068,118.8096,0.2462,0.2182,0.2394,0.2332,0.2558,0.2323,0.229,0.2316,0.2606,,,118.8097,120.9256,right,2.0687,,120.9263,123.406,right,2.4393,,-2,0,4,123.4061,124.3991,0,1,1,1,1,prac_AB,L1_T1P_T2P,1,1,1,5,6,4,4,10,tree,Did you see the tree,0.24,0,resources/,pics/carrot01.jpg,pics/hammerheadshark.jpg,pics/kangaroo.jpg,pics/proboscismonkey.jpg,pics/tree.jpg,pics/stapler07.jpg,pics/siamesecat.jpg,pics/ball02.jpg,pics/pictureframe04.jpg,pics/mummy.jpg,blankImage,blankImage,blankImage,blankImage,blankImage,blankImage,blankImage,tree,1,,,,,,,,,,,,,,,,,,,,,,,,,,,,,,,,,,,,,,,,,,,,,,,,,,,,,,,,,,,,,,,,,,,,,,,,,,,,,,,,,,,,,,,,,,,,,,,,,,,,
,,,,,659597ab573ada5debc6a899,6682b41eeb79ab8215dff63d,6682ba08572353c5e4e4ec9b,34,Female ,English ,2024-07-01_07h19.47.851,ABmemTask3,2023.2.3,Win32,29.85074627,,,,,,,,,,,,,,,,,,,,,,,,,,,,,,,124.4232,125.411,125.4113,7,125.8754,128.8546,0.0081,129.0882,0.2504,0.2948,0.2729,0.2883,0.2658,0.2802,0.2937,0.3026,0.2604,0.2315,0.2307,129.0884,132.449,left,3.3257,,132.4491,133.5091,right,1.0206,,0,0,6,133.5097,134.502,0,2,2,2,1,prac_AB,L1_T1A_T2P,1,0,1,7,8,6,4,12,grapes,Did you see the grapes,0.23,0,resources/,pics/sailboat.jpg,pics/butterfly.jpg,pics/giraffe.jpg,pics/spoon01.jpg,pics/hose.jpg,pics/nutcracker01.jpg,pics/table01.jpg,pics/stapler13.jpg,pics/pencil01.jpg,pics/football.jpg,pics/triangle.jpg,pics/hairdryer02a.jpg,blankImage,blankImage,blankImage,blankImage,blankImage,grape01,6,,,,,,,,,,,,,,,,,,,,,,,,,,,,,,,,,,,,,,,,,,,,,,,,,,,,,,,,,,,,,,,,,,,,,,,,,,,,,,,,,,,,,,,,,,,,,,,,,,,,
,,,,,659597ab573ada5debc6a899,6682b41eeb79ab8215dff63d,6682ba08572353c5e4e4ec9b,34,Female ,English ,2024-07-01_07h19.47.851,ABmemTask3,2023.2.3,Win32,29.85074627,,,,,,,,,,,,,,,,,,,,,,,,,,,,,,,134.5207,135.5413,135.5414,7,136.0295,139.2844,0.0053,139.5136,0.2183,0.2265,0.2391,0.241,0.2269,0.2373,0.2253,0.232,0.2445,0.224,0.2349,139.5139,140.3133,right,0.7421,,140.3138,140.9442,right,0.588,,2,0,8,140.9444,141.9311,0,3,3,3,1,prac_AB,L5_T1P_T2P,5,1,1,7,12,6,3,15,Human skull,Did you see the Human skull,0.22,0,resources/,pics/peach01.jpg,pics/proboscismonkey.jpg,pics/hose.jpg,pics/laptop01a.jpg,pics/hammerheadshark.jpg,pics/nutcracker01.jpg,pics/humanskull.jpg,pics/table01.jpg,pics/icecube01.jpg,pics/boot02b.jpg,pics/calendar.jpg,pics/stapler03a.jpg,pics/ashtray01.jpg,pics/giraffe.jpg,pics/dromedary.jpg,blankImage,blankImage,humanskull,12,0.2323,0.2439,0.2246,,,,,,,,,,,,,,,,,,,,,,,,,,,,,,,,,,,,,,,,,,,,,,,,,,,,,,,,,,,,,,,,,,,,,,,,,,,,,,,,,,,,,,,,,,,,,,,,,
,,,,,659597ab573ada5debc6a899,6682b41eeb79ab8215dff63d,6682ba08572353c5e4e4ec9b,34,Female ,English ,2024-07-01_07h19.47.851,ABmemTask3,2023.2.3,Win32,29.85074627,,,,,,,,,,,,,,,,,,,,,,,,,,,,,,,141.9335,142.9325,142.9325,6,143.4339,145.4146,0.0045,145.6484,0.1857,0.194,0.2021,0.195,0.2026,0.214,0.1887,0.2105,0.192,0.1944,,145.6491,148.2663,right,2.5613,,148.267,149.1431,left,0.8333,,-2,0,10,149.1437,150.1423,0,4,4,4,1,prac_AB,L1_T1A_T2P,1,0,1,7,8,6,3,11,dog,Did you see the dog,0.21,0,resources/,pics/ball02.jpg,pics/binder03b.jpg,pics/dromedary.jpg,pics/shipinabottle.jpg,pics/proboscismonkey.jpg,pics/laptop01a.jpg,pics/chainsaw.jpg,pics/stapler13.jpg,pics/nutcracker01.jpg,pics/carrot01.jpg,pics/calendar.jpg,blankImage,blankImage,blankImage,blankImage,blankImage,blankImage,saintbernard,7,,,,,,,,,,,,,,,,,,,,,,,,,,,,,,,,,,,,,,,,,,,,,,,,,,,,,,,,,,,,,,,,,,,,,,,,,,,,,,,,,,,,,,,,,,,,,,,,,,,,
,,,,,659597ab573ada5debc6a899,6682b41eeb79ab8215dff63d,6682ba08572353c5e4e4ec9b,34,Female ,English ,2024-07-01_07h19.47.851,ABmemTask3,2023.2.3,Win32,29.85074627,,,,,,,,,,,,,,,,,,,,,,,,,,,,,,,150.1597,151.1423,151.1426,6,151.6425,154.5162,0.0064,154.7104,0.2358,0.2295,0.1898,0.2008,0.199,0.2026,0.1995,0.2093,0.195,0.1957,0.2057,154.7108,155.4769,right,0.7187,,155.4772,155.9974,right,0.4705,,0,0,12,155.9978,157.0003,0,5,5,5,1,prac_AB,L5_T1P_T2P,5,1,1,5,10,4,5,15,grater,Did you see the grater,0.2,0,resources/,pics/pencil01.jpg,pics/laptop01a.jpg,pics/hammerheadshark.jpg,pics/cork02.jpg,pics/grater01a.jpg,pics/shipinabottle.jpg,pics/binder03b.jpg,pics/dromedary.jpg,pics/pictureframe04.jpg,pics/stapler04b.jpg,pics/fanblades.jpg,pics/aquarium.jpg,pics/hairdryer02a.jpg,pics/lightswitch01.jpg,pics/piggybank.jpg,blankImage,blankImage,grater01a,11,0.2002,0.1964,0.2093,,,,,,,,,,,,,,,,,,,,,,,,,,,,,,,,,,,,,,,,,,,,,,,,,,,,,,,,,,,,,,,,,,,,,,,,,,,,,,,,,,,,,,,,,,,,,,,,,
,,,,,659597ab573ada5debc6a899,6682b41eeb79ab8215dff63d,6682ba08572353c5e4e4ec9b,34,Female ,English ,2024-07-01_07h19.47.851,ABmemTask3,2023.2.3,Win32,29.85074627,,,,,,,,,,,,,,,,,,,,,,,,,,,,,,,157.0216,158.0312,158.0313,6,158.5466,160.1651,0.006,160.3752,0.2006,0.2006,0.2083,0.1937,0.2086,0.1915,0.2171,0.1939,,,,160.3756,161.6321,right,1.2079,,161.6329,162.2871,left,0.611,,2,0,14,162.2876,163.2881,0,6,6,6,1,prac_AB,L1_T1P_T2A,1,1,0,4,5,3,4,9,chalk,Did you see the chalk,0.19,0,resources/,pics/necklace.jpg,pics/starfish01.jpg,pics/safetypin.jpg,pics/chalk.jpg,pics/candleholder01.jpg,pics/bowtie.jpg,pics/match.jpg,pics/candle01.jpg,pics/pencilsharpener02a.jpg,blankImage,blankImage,blankImage,blankImage,blankImage,blankImage,blankImage,blankImage,chalk,9,,,,,,,,,,,,,,,,,,,,,,,,,,,,,,,,,,,,,,,,,,,,,,,,,,,,,,,,,,,,,,,,,,,,,,,,,,,,,,,,,,,,,,,,,,,,,,,,,,,,
,,,,,659597ab573ada5debc6a899,6682b41eeb79ab8215dff63d,6682ba08572353c5e4e4ec9b,34,Female ,English ,2024-07-01_07h19.47.851,ABmemTask3,2023.2.3,Win32,29.85074627,,,,,,,,,,,,,,,,,,,,,,,,,,,,,,,163.3097,164.295,164.2955,5,164.78,166.2934,0.0069,166.4549,0.1672,0.1712,0.1628,0.1758,0.1704,0.1575,0.1645,0.1795,0.1591,,,166.4562,170.8475,right,4.3403,,170.848,171.3838,right,0.4827,,4,0,16,171.3839,172.4125,0,7,7,7,1,prac_AB,L1_T1P_T2P,1,1,1,5,6,4,4,10,pants,Did you see the pants,0.18,0,resources/,pics/kangaroo.jpg,pics/safetypin.jpg,pics/salmon.jpg,pics/sandbarshark.jpg,pics/pants.jpg,pics/stapler03a.jpg,pics/sink.jpg,pics/calendar.jpg,pics/butterfly.jpg,pics/fanblades.jpg,blankImage,blankImage,blankImage,blankImage,blankImage,blankImage,blankImage,pants,2,,,,,,,,,,,,,,,,,,,,,,,,,,,,,,,,,,,,,,,,,,,,,,,,,,,,,,,,,,,,,,,,,,,,,,,,,,,,,,,,,,,,,,,,,,,,,,,,,,,,
,,,,,659597ab573ada5debc6a899,6682b41eeb79ab8215dff63d,6682ba08572353c5e4e4ec9b,34,Female ,English ,2024-07-01_07h19.47.851,ABmemTask3,2023.2.3,Win32,29.85074627,,,,,,,,,,,,,,,,,,,,,,,,,,,,,,,172.4339,173.4113,173.4116,5,173.9011,176.2801,0.006,176.4507,0.1819,0.1619,0.1721,0.1684,0.1685,0.1735,0.168,0.1651,0.1685,0.1638,0.1762,176.4511,178.0349,left,1.5391,,178.0349,179.2493,right,1.1798,,6,0,18,179.2499,180.2234,0,8,8,8,1,prac_AB,L5_T1A_T2P,5,0,1,7,12,6,3,15,shirt,Did you see the shirt,0.17,0,resources/,pics/banjo.jpg,pics/chainsaw.jpg,pics/sailboat.jpg,pics/shipinabottle.jpg,pics/lightswitch01.jpg,pics/starfish01.jpg,pics/hen.jpg,pics/ball02.jpg,pics/bowlingpin.jpg,pics/hammerheadshark.jpg,pics/footballhelmet.jpg,pics/stapler10.jpg,pics/laptop01a.jpg,pics/cannon.jpg,pics/golfball.jpg,blankImage,blankImage,shirt02,13,0.1809,0.1559,0.1696,,,,,,,,,,,,,,,,,,,,,,,,,,,,,,,,,,,,,,,,,,,,,,,,,,,,,,,,,,,,,,,,,,,,,,,,,,,,,,,,,,,,,,,,,,,,,,,,,
,,,,,659597ab573ada5debc6a899,6682b41eeb79ab8215dff63d,6682ba08572353c5e4e4ec9b,34,Female ,English ,2024-07-01_07h19.47.851,ABmemTask3,2023.2.3,Win32,29.85074627,,,,,,,,,,,,,,,,,,,,,,,,,,,,,,,180.2448,181.25,181.2502,5,181.766,183.4585,0.003,183.6223,0.1522,0.1607,0.179,0.1652,0.1839,0.1599,0.1685,0.1757,0.1774,0.1684,,183.6229,184.7653,right,1.0946,,184.7661,185.3032,right,0.4858,,8,0,20,185.3034,186.2802,0,9,9,9,1,prac_AB,L1_T1P_T2P,1,1,1,7,8,6,3,11,tongs,Did you see the tongs,0.16,0,resources/,pics/sewingmachine01a.jpg,pics/shovel01.jpg,pics/football.jpg,pics/hen.jpg,pics/banjo.jpg,pics/zebra.jpg,pics/tongs01b.jpg,pics/stapler11.jpg,pics/shipinabottle.jpg,pics/match.jpg,pics/candle01.jpg,blankImage,blankImage,blankImage,blankImage,blankImage,blankImage,tongs01b,5,,,,,,,,,,,,,,,,,,,,,,,,,,,,,,,,,,,,,,,,,,,,,,,,,,,,,,,,,,,,,,,,,,,,,,,,,,,,,,,,,,,,,,,,,,,,,,,,,,,,
,,,,,659597ab573ada5debc6a899,6682b41eeb79ab8215dff63d,6682ba08572353c5e4e4ec9b,34,Female ,English ,2024-07-01_07h19.47.851,ABmemTask3,2023.2.3,Win32,29.85074627,,,,,,,,,,,,,,,,,,,,,,,,,,,,,,,186.2827,187.2828,187.2831,4,187.798,189.299,0.0066,189.4475,0.1309,0.1372,0.1222,0.1429,0.1328,0.1325,0.1341,0.1321,0.1493,0.1259,0.1568,189.4479,191.168,left,1.6657,,191.1684,191.8396,right,0.6197,,6,0,22,191.8399,192.8159,0,10,10,10,1,prac_AB,L1_T1A_T2A,1,0,0,7,8,6,4,12,camera,Did you see the camera,0.15,0,resources/,pics/lightswitch01.jpg,pics/table01.jpg,pics/aquarium.jpg,pics/boot02b.jpg,pics/butterfly.jpg,pics/chainsaw.jpg,pics/binoculars01b.jpg,pics/giraffe.jpg,pics/triangle.jpg,pics/microscope.jpg,pics/mummy.jpg,pics/icecube01.jpg,blankImage,blankImage,blankImage,blankImage,blankImage,camera01a,10,,,,,,,,,,,,,,,,,,,,,,,,,,,,,,,,,,,,,,,,,,,,,,,,,,,,,,,,,,,,,,,,,,,,,,,,,,,,,,,,,,,,,,,,,,,,,,,,,,,,
,,,,,659597ab573ada5debc6a899,6682b41eeb79ab8215dff63d,6682ba08572353c5e4e4ec9b,34,Female ,English ,2024-07-01_07h19.47.851,ABmemTask3,2023.2.3,Win32,29.85074627,,,,,,,,,,,,,,,,,,,,,,,,,,,,,,,192.8379,193.8463,193.8466,4,194.3204,195.6282,0.0029,195.7851,0.1322,0.136,0.1543,0.1578,0.1491,0.139,0.1246,0.1581,0.1567,,,195.7855,196.8543,right,1.0232,,196.8547,197.3203,right,0.4191,,8,0,24,197.3207,198.304,0,11,11,11,1,prac_AB,L1_T1P_T2P,1,1,1,6,7,5,3,10,shorts,Did you see the shorts,0.14,0,resources/,pics/snowshoe.jpg,pics/chainsaw.jpg,pics/sailboat.jpg,pics/ball02.jpg,pics/candleholder01.jpg,pics/shorts01.jpg,pics/stapler07.jpg,pics/peach01.jpg,pics/proboscismonkey.jpg,pics/hen.jpg,blankImage,blankImage,blankImage,blankImage,blankImage,blankImage,blankImage,shorts01,4,,,,,,,,,,,,,,,,,,,,,,,,,,,,,,,,,,,,,,,,,,,,,,,,,,,,,,,,,,,,,,,,,,,,,,,,,,,,,,,,,,,,,,,,,,,,,,,,,,,,
,,,,,659597ab573ada5debc6a899,6682b41eeb79ab8215dff63d,6682ba08572353c5e4e4ec9b,34,Female ,English ,2024-07-01_07h19.47.851,ABmemTask3,2023.2.3,Win32,29.85074627,,,,,,,,,,,,,,,,,,,,,,,,,,,,,,,198.3072,199.3019,199.3019,4,199.7945,201.5219,0.0058,201.6604,0.1352,0.1405,0.1548,0.1534,0.1399,0.1438,0.1586,0.1569,0.1366,0.1353,0.1336,201.6606,202.6949,right,0.9846,,202.6949,203.2049,left,0.4749,,10,0,26,203.2051,204.2226,0,12,12,12,1,prac_AB,L5_T1P_T2A,5,1,0,5,10,4,3,13,fish,Did you see the fish,0.13,0,resources/,pics/football.jpg,pics/safetypin.jpg,pics/shovel01.jpg,pics/sink.jpg,pics/holdfast.jpg,pics/nutcracker01.jpg,pics/starfish01.jpg,pics/onion.jpg,pics/footballhelmet.jpg,pics/boot02b.jpg,pics/sewingmachine01a.jpg,pics/kangaroo.jpg,pics/banjo.jpg,blankImage,blankImage,blankImage,blankImage,holdfast,14,0.1341,,,,,,,,,,,,,,,,,,,,,,,,,,,,,,,,,,,,,,,,,,,,,,,,,,,,,,,,,,,,,,,,,,,,,,,,,,,,,,,,,,,,,,,,,,,,,,,,,,,
,,,,,659597ab573ada5debc6a899,6682b41eeb79ab8215dff63d,6682ba08572353c5e4e4ec9b,34,Female ,English ,2024-07-01_07h19.47.851,ABmemTask3,2023.2.3,Win32,29.85074627,,,,,,,,,,,,,,,,,,,,,,,,,,,,,,,204.2412,205.2174,205.2175,4,205.7369,207.0084,0.0044,207.132,0.1336,0.1512,0.1246,0.15,0.1465,0.1539,0.1344,0.132,0.1409,,,207.1323,209.4781,right,2.301,,209.4786,211.0576,left,1.5269,,10,0,28,211.0577,212.0234,0,13,13,13,1,prac_AB,L1_T1P_T2P,1,1,1,5,6,4,4,10,fish,Did you see the fish,0.12,0,resources/,pics/butterfly.jpg,pics/banjo.jpg,pics/leaf02a.jpg,pics/dustpan.jpg,pics/sturgeon.jpg,pics/stapler02.jpg,pics/necklace.jpg,pics/shovel01.jpg,pics/starfish01.jpg,pics/chainsaw.jpg,blankImage,blankImage,blankImage,blankImage,blankImage,blankImage,blankImage,sturgeon,3,,,,,,,,,,,,,,,,,,,,,,,,,,,,,,,,,,,,,,,,,,,,,,,,,,,,,,,,,,,,,,,,,,,,,,,,,,,,,,,,,,,,,,,,,,,,,,,,,,,,
,,,,,659597ab573ada5debc6a899,6682b41eeb79ab8215dff63d,6682ba08572353c5e4e4ec9b,34,Female ,English ,2024-07-01_07h19.47.851,ABmemTask3,2023.2.3,Win32,29.85074627,,,,,,,,,,,,,,,,,,,,,,,,,,,,,,,,,,,,,,,,,,,,,,,,,,,,,,,,,,,,,,,,,,,,,,,,,,,,,,,,,,,,,,,,,,,,,,,,,,,,,,,,,,,212.0272,226.6981,space,14.6232,,,,,,,,,,,,,,,,,,,,,,,,,,,,,,,,,,,,,,,,,,,,,,,,,,,,,,,,,,,,,,,,,,,,,,,,,,,,,,,,,,,,,,,,,,,,,
,,,,,659597ab573ada5debc6a899,6682b41eeb79ab8215dff63d,6682ba08572353c5e4e4ec9b,34,Female ,English ,2024-07-01_07h19.47.851,ABmemTask3,2023.2.3,Win32,29.85074627,,,,,,,,,,,,,,,,,,,,,,,,,,,,,,,226.7244,227.7131,227.7135,7,228.1971,230.8115,0.0067,231.0583,0.2593,0.2547,0.2238,0.2277,0.2322,0.2358,0.24,0.2323,0.2367,0.234,0.232,231.0584,231.7892,right,0.6967,,231.7892,232.3609,left,0.5389,,2,0,2,232.3614,233.3341,0,0,0,0,1,prac_AB,L1_T1P_T2A,1,1,0,6,7,5,5,12,cat,Did you see the cat,0.25,0,resources/,pics/shipinabottle.jpg,pics/table01.jpg,pics/dustpan.jpg,pics/golfball.jpg,pics/giraffe.jpg,pics/cat.jpg,pics/peanut01.jpg,pics/pictureframe04.jpg,pics/fanblades.jpg,pics/laptop01a.jpg,pics/ball02.jpg,pics/blender.jpg,blankImage,blankImage,blankImage,blankImage,blankImage,cat,8,,,,,,,,,,,,,,,,,,,,,,,,,,,,,,,,,,,,,,,,,,,,,,,,,,,,,,,,,,,,,,,,,,,,,,,,,,,,,,,,,,,,,,,,,,,,,,,,,,,,
,,,,,659597ab573ada5debc6a899,6682b41eeb79ab8215dff63d,6682ba08572353c5e4e4ec9b,34,Female ,English ,2024-07-01_07h19.47.851,ABmemTask3,2023.2.3,Win32,29.85074627,,,,,,,,,,,,,,,,,,,,,,,,,,,,,,,233.3369,234.3223,234.3226,7,234.8126,236.9023,0.0048,237.1342,0.2288,0.2217,0.2402,0.2284,0.2347,0.2375,0.2273,0.2375,0.2309,,,237.1345,237.7159,right,0.5262,,237.7164,238.1731,right,0.4133,,4,0,4,238.1734,239.192,0,1,1,1,1,prac_AB,L1_T1P_T2P,1,1,1,5,6,4,4,10,tree,Did you see the tree,0.24,0,resources/,pics/carrot01.jpg,pics/hammerheadshark.jpg,pics/kangaroo.jpg,pics/proboscismonkey.jpg,pics/tree.jpg,pics/stapler07.jpg,pics/siamesecat.jpg,pics/ball02.jpg,pics/pictureframe04.jpg,pics/mummy.jpg,blankImage,blankImage,blankImage,blankImage,blankImage,blankImage,blankImage,tree,1,,,,,,,,,,,,,,,,,,,,,,,,,,,,,,,,,,,,,,,,,,,,,,,,,,,,,,,,,,,,,,,,,,,,,,,,,,,,,,,,,,,,,,,,,,,,,,,,,,,,
,,,,,659597ab573ada5debc6a899,6682b41eeb79ab8215dff63d,6682ba08572353c5e4e4ec9b,34,Female ,English ,2024-07-01_07h19.47.851,ABmemTask3,2023.2.3,Win32,29.85074627,,,,,,,,,,,,,,,,,,,,,,,,,,,,,,,239.1928,240.1757,240.1759,7,240.6619,243.2436,0.0059,243.4869,0.2398,0.2286,0.2315,0.2333,0.2319,0.2442,0.2264,0.2339,0.2324,0.2382,0.2372,243.487,244.8225,left,1.292,,244.823,245.9519,right,1.0731,,6,0,6,245.9524,246.9611,0,2,2,2,1,prac_AB,L1_T1A_T2P,1,0,1,7,8,6,4,12,grapes,Did you see the grapes,0.23,0,resources/,pics/sailboat.jpg,pics/butterfly.jpg,pics/giraffe.jpg,pics/spoon01.jpg,pics/hose.jpg,pics/nutcracker01.jpg,pics/table01.jpg,pics/stapler13.jpg,pics/pencil01.jpg,pics/football.jpg,pics/triangle.jpg,pics/hairdryer02a.jpg,blankImage,blankImage,blankImage,blankImage,blankImage,grape01,6,,,,,,,,,,,,,,,,,,,,,,,,,,,,,,,,,,,,,,,,,,,,,,,,,,,,,,,,,,,,,,,,,,,,,,,,,,,,,,,,,,,,,,,,,,,,,,,,,,,,
,,,,,659597ab573ada5debc6a899,6682b41eeb79ab8215dff63d,6682ba08572353c5e4e4ec9b,34,Female ,English ,2024-07-01_07h19.47.851,ABmemTask3,2023.2.3,Win32,29.85074627,,,,,,,,,,,,,,,,,,,,,,,,,,,,,,,246.9645,247.9428,247.943,7,248.4493,251.8247,0.0075,252.0809,0.2303,0.2464,0.2215,0.2338,0.2522,0.2709,0.2681,0.2557,0.2261,0.232,0.2321,252.0813,252.68,right,0.5491,,252.6804,253.1459,right,0.4197,,8,0,8,253.146,254.1461,0,3,3,3,1,prac_AB,L5_T1P_T2P,5,1,1,7,12,6,3,15,Human skull,Did you see the Human skull,0.22,0,resources/,pics/peach01.jpg,pics/proboscismonkey.jpg,pics/hose.jpg,pics/laptop01a.jpg,pics/hammerheadshark.jpg,pics/nutcracker01.jpg,pics/humanskull.jpg,pics/table01.jpg,pics/icecube01.jpg,pics/boot02b.jpg,pics/calendar.jpg,pics/stapler03a.jpg,pics/ashtray01.jpg,pics/giraffe.jpg,pics/dromedary.jpg,blankImage,blankImage,humanskull,12,0.2373,0.2283,0.2353,,,,,,,,,,,,,,,,,,,,,,,,,,,,,,,,,,,,,,,,,,,,,,,,,,,,,,,,,,,,,,,,,,,,,,,,,,,,,,,,,,,,,,,,,,,,,,,,,
,,,,,659597ab573ada5debc6a899,6682b41eeb79ab8215dff63d,6682ba08572353c5e4e4ec9b,34,Female ,English ,2024-07-01_07h19.47.851,ABmemTask3,2023.2.3,Win32,29.85074627,,,,,,,,,,,,,,,,,,,,,,,,,,,,,,,254.1488,255.1124,255.1128,6,255.6007,257.762,0.008,257.9509,0.2474,0.2293,0.1969,0.2138,0.2013,0.2071,0.2355,0.1976,0.203,0.2214,,257.9513,258.7889,left,0.789,,258.7894,259.3029,right,0.469,,10,0,10,259.3033,260.2955,0,4,4,4,1,prac_AB,L1_T1A_T2P,1,0,1,7,8,6,3,11,dog,Did you see the dog,0.21,0,resources/,pics/ball02.jpg,pics/binder03b.jpg,pics/dromedary.jpg,pics/shipinabottle.jpg,pics/proboscismonkey.jpg,pics/laptop01a.jpg,pics/chainsaw.jpg,pics/stapler13.jpg,pics/nutcracker01.jpg,pics/carrot01.jpg,pics/calendar.jpg,blankImage,blankImage,blankImage,blankImage,blankImage,blankImage,saintbernard,7,,,,,,,,,,,,,,,,,,,,,,,,,,,,,,,,,,,,,,,,,,,,,,,,,,,,,,,,,,,,,,,,,,,,,,,,,,,,,,,,,,,,,,,,,,,,,,,,,,,,
,,,,,659597ab573ada5debc6a899,6682b41eeb79ab8215dff63d,6682ba08572353c5e4e4ec9b,34,Female ,English ,2024-07-01_07h19.47.851,ABmemTask3,2023.2.3,Win32,29.85074627,,,,,,,,,,,,,,,,,,,,,,,,,,,,,,,260.2985,261.2788,261.2789,6,261.7625,265.0458,0.0072,265.2435,0.2309,0.2335,0.2475,0.2422,0.2559,0.241,0.2201,0.236,0.2702,0.2226,0.2164,265.2443,265.9413,right,0.641,,265.9417,266.4455,right,0.4616,,12,0,12,266.4456,267.4309,0,5,5,5,1,prac_AB,L5_T1P_T2P,5,1,1,5,10,4,5,15,grater,Did you see the grater,0.2,0,resources/,pics/pencil01.jpg,pics/laptop01a.jpg,pics/hammerheadshark.jpg,pics/cork02.jpg,pics/grater01a.jpg,pics/shipinabottle.jpg,pics/binder03b.jpg,pics/dromedary.jpg,pics/pictureframe04.jpg,pics/stapler04b.jpg,pics/fanblades.jpg,pics/aquarium.jpg,pics/hairdryer02a.jpg,pics/lightswitch01.jpg,pics/piggybank.jpg,blankImage,blankImage,grater01a,11,0.2171,0.2287,0.2137,,,,,,,,,,,,,,,,,,,,,,,,,,,,,,,,,,,,,,,,,,,,,,,,,,,,,,,,,,,,,,,,,,,,,,,,,,,,,,,,,,,,,,,,,,,,,,,,,
,,,,,659597ab573ada5debc6a899,6682b41eeb79ab8215dff63d,6682ba08572353c5e4e4ec9b,34,Female ,English ,2024-07-01_07h19.47.851,ABmemTask3,2023.2.3,Win32,29.85074627,,,,,,,,,,,,,,,,,,,,,,,,,,,,,,,267.4506,268.4432,268.4433,6,268.9318,270.602,0.003,270.8005,0.2163,0.2006,0.1957,0.2163,0.2097,0.2041,0.2242,0.2017,,,,270.8009,271.8143,right,0.9652,,271.8149,272.3003,left,0.4322,,14,0,14,272.3004,273.3003,0,6,6,6,1,prac_AB,L1_T1P_T2A,1,1,0,4,5,3,4,9,chalk,Did you see the chalk,0.19,0,resources/,pics/necklace.jpg,pics/starfish01.jpg,pics/safetypin.jpg,pics/chalk.jpg,pics/candleholder01.jpg,pics/bowtie.jpg,pics/match.jpg,pics/candle01.jpg,pics/pencilsharpener02a.jpg,blankImage,blankImage,blankImage,blankImage,blankImage,blankImage,blankImage,blankImage,chalk,9,,,,,,,,,,,,,,,,,,,,,,,,,,,,,,,,,,,,,,,,,,,,,,,,,,,,,,,,,,,,,,,,,,,,,,,,,,,,,,,,,,,,,,,,,,,,,,,,,,,,
,,,,,659597ab573ada5debc6a899,6682b41eeb79ab8215dff63d,6682ba08572353c5e4e4ec9b,34,Female ,English ,2024-07-01_07h19.47.851,ABmemTask3,2023.2.3,Win32,29.85074627,,,,,,,,,,,,,,,,,,,,,,,,,,,,,,,273.3009,274.2826,274.283,5,274.7701,276.3303,0.0041,276.4967,0.1813,0.1687,0.1717,0.1789,0.1737,0.1669,0.1701,0.1825,0.1642,,,276.4971,277.0584,right,0.5146,,277.0585,277.4801,right,0.3849,,16,0,16,277.4806,278.4618,0,7,7,7,1,prac_AB,L1_T1P_T2P,1,1,1,5,6,4,4,10,pants,Did you see the pants,0.18,0,resources/,pics/kangaroo.jpg,pics/safetypin.jpg,pics/salmon.jpg,pics/sandbarshark.jpg,pics/pants.jpg,pics/stapler03a.jpg,pics/sink.jpg,pics/calendar.jpg,pics/butterfly.jpg,pics/fanblades.jpg,blankImage,blankImage,blankImage,blankImage,blankImage,blankImage,blankImage,pants,2,,,,,,,,,,,,,,,,,,,,,,,,,,,,,,,,,,,,,,,,,,,,,,,,,,,,,,,,,,,,,,,,,,,,,,,,,,,,,,,,,,,,,,,,,,,,,,,,,,,,
,,,,,659597ab573ada5debc6a899,6682b41eeb79ab8215dff63d,6682ba08572353c5e4e4ec9b,34,Female ,English ,2024-07-01_07h19.47.851,ABmemTask3,2023.2.3,Win32,29.85074627,,,,,,,,,,,,,,,,,,,,,,,,,,,,,,,278.4652,279.4573,279.4575,5,279.9424,282.296,0.0052,282.4613,0.1762,0.1693,0.1683,0.1647,0.1608,0.1752,0.1662,0.1618,0.1712,0.1677,0.1636,282.4617,283.7064,left,1.1967,,283.7068,284.1433,right,0.3791,,18,0,18,284.1434,285.1255,0,8,8,8,1,prac_AB,L5_T1A_T2P,5,0,1,7,12,6,3,15,shirt,Did you see the shirt,0.17,0,resources/,pics/banjo.jpg,pics/chainsaw.jpg,pics/sailboat.jpg,pics/shipinabottle.jpg,pics/lightswitch01.jpg,pics/starfish01.jpg,pics/hen.jpg,pics/ball02.jpg,pics/bowlingpin.jpg,pics/hammerheadshark.jpg,pics/footballhelmet.jpg,pics/stapler10.jpg,pics/laptop01a.jpg,pics/cannon.jpg,pics/golfball.jpg,blankImage,blankImage,shirt02,13,0.1656,0.1707,0.1682,,,,,,,,,,,,,,,,,,,,,,,,,,,,,,,,,,,,,,,,,,,,,,,,,,,,,,,,,,,,,,,,,,,,,,,,,,,,,,,,,,,,,,,,,,,,,,,,,
,,,,,659597ab573ada5debc6a899,6682b41eeb79ab8215dff63d,6682ba08572353c5e4e4ec9b,34,Female ,English ,2024-07-01_07h19.47.851,ABmemTask3,2023.2.3,Win32,29.85074627,,,,,,,,,,,,,,,,,,,,,,,,,,,,,,,285.1286,286.1116,286.1118,5,286.5892,288.259,0.0062,288.4313,0.1596,0.1761,0.158,0.1719,0.166,0.1639,0.1669,0.1679,0.1696,0.165,,288.4317,289.3318,right,0.8486,,289.3323,289.8227,left,0.4426,,18,0,20,289.8231,290.8026,0,9,9,9,1,prac_AB,L1_T1P_T2P,1,1,1,7,8,6,3,11,tongs,Did you see the tongs,0.16,0,resources/,pics/sewingmachine01a.jpg,pics/shovel01.jpg,pics/football.jpg,pics/hen.jpg,pics/banjo.jpg,pics/zebra.jpg,pics/tongs01b.jpg,pics/stapler11.jpg,pics/shipinabottle.jpg,pics/match.jpg,pics/candle01.jpg,blankImage,blankImage,blankImage,blankImage,blankImage,blankImage,tongs01b,5,,,,,,,,,,,,,,,,,,,,,,,,,,,,,,,,,,,,,,,,,,,,,,,,,,,,,,,,,,,,,,,,,,,,,,,,,,,,,,,,,,,,,,,,,,,,,,,,,,,,
,,,,,659597ab573ada5debc6a899,6682b41eeb79ab8215dff63d,6682ba08572353c5e4e4ec9b,34,Female ,English ,2024-07-01_07h19.47.851,ABmemTask3,2023.2.3,Win32,29.85074627,,,,,,,,,,,,,,,,,,,,,,,,,,,,,,,290.805,291.7975,291.7979,4,292.2943,293.7783,0.0072,293.9236,0.1404,0.1291,0.1355,0.1316,0.1421,0.1309,0.1341,0.1328,0.1358,0.1329,0.1334,293.9237,294.9071,left,0.9425,,294.9074,295.3793,right,0.4212,,16,0,22,295.3801,296.3891,0,10,10,10,1,prac_AB,L1_T1A_T2A,1,0,0,7,8,6,4,12,camera,Did you see the camera,0.15,0,resources/,pics/lightswitch01.jpg,pics/table01.jpg,pics/aquarium.jpg,pics/boot02b.jpg,pics/butterfly.jpg,pics/chainsaw.jpg,pics/binoculars01b.jpg,pics/giraffe.jpg,pics/triangle.jpg,pics/microscope.jpg,pics/mummy.jpg,pics/icecube01.jpg,blankImage,blankImage,blankImage,blankImage,blankImage,camera01a,10,,,,,,,,,,,,,,,,,,,,,,,,,,,,,,,,,,,,,,,,,,,,,,,,,,,,,,,,,,,,,,,,,,,,,,,,,,,,,,,,,,,,,,,,,,,,,,,,,,,,
,,,,,659597ab573ada5debc6a899,6682b41eeb79ab8215dff63d,6682ba08572353c5e4e4ec9b,34,Female ,English ,2024-07-01_07h19.47.851,ABmemTask3,2023.2.3,Win32,29.85074627,,,,,,,,,,,,,,,,,,,,,,,,,,,,,,,296.3917,297.3863,297.3866,4,297.8929,299.1021,0.0057,299.2341,0.1481,0.127,0.1325,0.1331,0.13,0.1435,0.1275,0.1342,0.13,,,299.2346,301.7918,right,2.5068,,301.7921,303.1578,left,1.3161,,16,0,24,303.1584,304.1429,0,11,11,11,1,prac_AB,L1_T1P_T2P,1,1,1,6,7,5,3,10,shorts,Did you see the shorts,0.14,0,resources/,pics/snowshoe.jpg,pics/chainsaw.jpg,pics/sailboat.jpg,pics/ball02.jpg,pics/candleholder01.jpg,pics/shorts01.jpg,pics/stapler07.jpg,pics/peach01.jpg,pics/proboscismonkey.jpg,pics/hen.jpg,blankImage,blankImage,blankImage,blankImage,blankImage,blankImage,blankImage,shorts01,4,,,,,,,,,,,,,,,,,,,,,,,,,,,,,,,,,,,,,,,,,,,,,,,,,,,,,,,,,,,,,,,,,,,,,,,,,,,,,,,,,,,,,,,,,,,,,,,,,,,,
,,,,,659597ab573ada5debc6a899,6682b41eeb79ab8215dff63d,6682ba08572353c5e4e4ec9b,34,Female ,English ,2024-07-01_07h19.47.851,ABmemTask3,2023.2.3,Win32,29.85074627,,,,,,,,,,,,,,,,,,,,,,,,,,,,,,,304.1619,305.1852,305.1852,4,305.6674,307.5437,0.0062,307.7087,0.1626,0.1529,0.1448,0.1565,0.1554,0.1718,0.1534,0.1547,0.1673,0.1364,0.1462,307.709,308.4942,right,0.7336,,308.4945,309.0272,right,0.4879,,14,0,26,309.0274,310.0271,0,12,12,12,1,prac_AB,L5_T1P_T2A,5,1,0,5,10,4,3,13,fish,Did you see the fish,0.13,0,resources/,pics/football.jpg,pics/safetypin.jpg,pics/shovel01.jpg,pics/sink.jpg,pics/holdfast.jpg,pics/nutcracker01.jpg,pics/starfish01.jpg,pics/onion.jpg,pics/footballhelmet.jpg,pics/boot02b.jpg,pics/sewingmachine01a.jpg,pics/kangaroo.jpg,pics/banjo.jpg,blankImage,blankImage,blankImage,blankImage,holdfast,14,0.1695,,,,,,,,,,,,,,,,,,,,,,,,,,,,,,,,,,,,,,,,,,,,,,,,,,,,,,,,,,,,,,,,,,,,,,,,,,,,,,,,,,,,,,,,,,,,,,,,,,,
,,,,,659597ab573ada5debc6a899,6682b41eeb79ab8215dff63d,6682ba08572353c5e4e4ec9b,34,Female ,English ,2024-07-01_07h19.47.851,ABmemTask3,2023.2.3,Win32,29.85074627,,,,,,,,,,,,,,,,,,,,,,,,,,,,,,,310.0435,311.0481,311.0481,4,311.5446,312.7773,0.0056,312.9111,0.1411,0.1316,0.1423,0.1504,0.1275,0.1314,0.1376,0.1331,0.1336,,,312.9114,314.3212,right,1.3656,,314.3216,315.8353,left,1.4635,,14,0,28,315.8356,316.8393,0,13,13,13,1,prac_AB,L1_T1P_T2P,1,1,1,5,6,4,4,10,fish,Did you see the fish,0.12,0,resources/,pics/butterfly.jpg,pics/banjo.jpg,pics/leaf02a.jpg,pics/dustpan.jpg,pics/sturgeon.jpg,pics/stapler02.jpg,pics/necklace.jpg,pics/shovel01.jpg,pics/starfish01.jpg,pics/chainsaw.jpg,blankImage,blankImage,blankImage,blankImage,blankImage,blankImage,blankImage,sturgeon,3,,,,,,,,,,,,,,,,,,,,,,,,,,,,,,,,,,,,,,,,,,,,,,,,,,,,,,,,,,,,,,,,,,,,,,,,,,,,,,,,,,,,,,,,,,,,,,,,,,,,
,,,,,659597ab573ada5debc6a899,6682b41eeb79ab8215dff63d,6682ba08572353c5e4e4ec9b,34,Female ,English ,2024-07-01_07h19.47.851,ABmemTask3,2023.2.3,Win32,29.85074627,,,,,,,,,,,,,,,,,,,,,,,,,,,,,,,,,,,,,,,,,,,,,,,,,,,,,,,,,,,,,,,,,,,,,,,,,,,,,,,,,,,,,,,,,,,,,,,,,,,,,,,,,,,316.84,325.3459,space,8.4512,,,,,,,,,,,,,,,,,,,,,,,,,,,,,,,,,,,,,,,,,,,,,,,,,,,,,,,,,,,,,,,,,,,,,,,,,,,,,,,,,,,,,,,,,,,,,
,,,,,659597ab573ada5debc6a899,6682b41eeb79ab8215dff63d,6682ba08572353c5e4e4ec9b,34,Female ,English ,2024-07-01_07h19.47.851,ABmemTask3,2023.2.3,Win32,29.85074627,,,,,,,,,,,,,,,,,,,,,,,,,,,,,,,325.3776,326.382,326.3821,7,326.8556,329.5132,0.0071,329.7649,0.2585,0.2568,0.2658,0.2384,0.2304,0.2331,0.2392,0.238,0.2386,0.2261,0.2266,329.765,330.2723,right,0.4687,,330.2726,330.822,left,0.5063,,2,0,2,330.8226,331.8083,0,0,0,0,1,prac_AB,L1_T1P_T2A,1,1,0,6,7,5,5,12,cat,Did you see the cat,0.25,0,resources/,pics/shipinabottle.jpg,pics/table01.jpg,pics/dustpan.jpg,pics/golfball.jpg,pics/giraffe.jpg,pics/cat.jpg,pics/peanut01.jpg,pics/pictureframe04.jpg,pics/fanblades.jpg,pics/laptop01a.jpg,pics/ball02.jpg,pics/blender.jpg,blankImage,blankImage,blankImage,blankImage,blankImage,cat,8,,,,,,,,,,,,,,,,,,,,,,,,,,,,,,,,,,,,,,,,,,,,,,,,,,,,,,,,,,,,,,,,,,,,,,,,,,,,,,,,,,,,,,,,,,,,,,,,,,,,
,,,,,659597ab573ada5debc6a899,6682b41eeb79ab8215dff63d,6682ba08572353c5e4e4ec9b,34,Female ,English ,2024-07-01_07h19.47.851,ABmemTask3,2023.2.3,Win32,29.85074627,,,,,,,,,,,,,,,,,,,,,,,,,,,,,,,331.8107,332.7889,332.789,7,333.2944,335.3922,0.0051,335.6263,0.2261,0.233,0.235,0.2334,0.2399,0.228,0.2323,0.2364,0.2311,,,335.6269,336.0825,right,0.4025,,336.0829,336.4276,right,0.2964,,4,0,4,336.4283,337.4215,0,1,1,1,1,prac_AB,L1_T1P_T2P,1,1,1,5,6,4,4,10,tree,Did you see the tree,0.24,0,resources/,pics/carrot01.jpg,pics/hammerheadshark.jpg,pics/kangaroo.jpg,pics/proboscismonkey.jpg,pics/tree.jpg,pics/stapler07.jpg,pics/siamesecat.jpg,pics/ball02.jpg,pics/pictureframe04.jpg,pics/mummy.jpg,blankImage,blankImage,blankImage,blankImage,blankImage,blankImage,blankImage,tree,1,,,,,,,,,,,,,,,,,,,,,,,,,,,,,,,,,,,,,,,,,,,,,,,,,,,,,,,,,,,,,,,,,,,,,,,,,,,,,,,,,,,,,,,,,,,,,,,,,,,,
,,,,,659597ab573ada5debc6a899,6682b41eeb79ab8215dff63d,6682ba08572353c5e4e4ec9b,34,Female ,English ,2024-07-01_07h19.47.851,ABmemTask3,2023.2.3,Win32,29.85074627,,,,,,,,,,,,,,,,,,,,,,,,,,,,,,,337.424,338.404,338.4042,7,338.8878,341.4814,0.0077,341.7,0.2297,0.2326,0.2325,0.237,0.2591,0.221,0.2352,0.2339,0.2442,0.2196,0.2413,341.7003,342.2723,left,0.5263,,342.2726,342.6617,right,0.3493,,6,0,6,342.6617,343.6669,0,2,2,2,1,prac_AB,L1_T1A_T2P,1,0,1,7,8,6,4,12,grapes,Did you see the grapes,0.23,0,resources/,pics/sailboat.jpg,pics/butterfly.jpg,pics/giraffe.jpg,pics/spoon01.jpg,pics/hose.jpg,pics/nutcracker01.jpg,pics/table01.jpg,pics/stapler13.jpg,pics/pencil01.jpg,pics/football.jpg,pics/triangle.jpg,pics/hairdryer02a.jpg,blankImage,blankImage,blankImage,blankImage,blankImage,grape01,6,,,,,,,,,,,,,,,,,,,,,,,,,,,,,,,,,,,,,,,,,,,,,,,,,,,,,,,,,,,,,,,,,,,,,,,,,,,,,,,,,,,,,,,,,,,,,,,,,,,,
,,,,,659597ab573ada5debc6a899,6682b41eeb79ab8215dff63d,6682ba08572353c5e4e4ec9b,34,Female ,English ,2024-07-01_07h19.47.851,ABmemTask3,2023.2.3,Win32,29.85074627,,,,,,,,,,,,,,,,,,,,,,,,,,,,,,,343.6676,344.6544,344.6547,7,345.1501,348.4431,0.0071,348.6844,0.2324,0.2333,0.233,0.2569,0.2301,0.239,0.2248,0.248,0.219,0.2464,0.24,348.6848,349.1943,right,0.4627,,349.1946,349.5311,right,0.2766,,8,0,8,349.5315,350.5143,0,3,3,3,1,prac_AB,L5_T1P_T2P,5,1,1,7,12,6,3,15,Human skull,Did you see the Human skull,0.22,0,resources/,pics/peach01.jpg,pics/proboscismonkey.jpg,pics/hose.jpg,pics/laptop01a.jpg,pics/hammerheadshark.jpg,pics/nutcracker01.jpg,pics/humanskull.jpg,pics/table01.jpg,pics/icecube01.jpg,pics/boot02b.jpg,pics/calendar.jpg,pics/stapler03a.jpg,pics/ashtray01.jpg,pics/giraffe.jpg,pics/dromedary.jpg,blankImage,blankImage,humanskull,12,0.2267,0.2263,0.232,,,,,,,,,,,,,,,,,,,,,,,,,,,,,,,,,,,,,,,,,,,,,,,,,,,,,,,,,,,,,,,,,,,,,,,,,,,,,,,,,,,,,,,,,,,,,,,,,
,,,,,659597ab573ada5debc6a899,6682b41eeb79ab8215dff63d,6682ba08572353c5e4e4ec9b,34,Female ,English ,2024-07-01_07h19.47.851,ABmemTask3,2023.2.3,Win32,29.85074627,,,,,,,,,,,,,,,,,,,,,,,,,,,,,,,350.5172,351.5117,351.5119,6,352.0359,354.0404,0.0039,354.2331,0.197,0.1929,0.1948,0.2021,0.21,0.1882,0.2101,0.199,0.1953,0.2111,,354.2335,355.1076,left,0.8262,,355.1077,358.1139,left,2.9714,,8,0,10,358.1143,359.1036,0,4,4,4,1,prac_AB,L1_T1A_T2P,1,0,1,7,8,6,3,11,dog,Did you see the dog,0.21,0,resources/,pics/ball02.jpg,pics/binder03b.jpg,pics/dromedary.jpg,pics/shipinabottle.jpg,pics/proboscismonkey.jpg,pics/laptop01a.jpg,pics/chainsaw.jpg,pics/stapler13.jpg,pics/nutcracker01.jpg,pics/carrot01.jpg,pics/calendar.jpg,blankImage,blankImage,blankImage,blankImage,blankImage,blankImage,saintbernard,7,,,,,,,,,,,,,,,,,,,,,,,,,,,,,,,,,,,,,,,,,,,,,,,,,,,,,,,,,,,,,,,,,,,,,,,,,,,,,,,,,,,,,,,,,,,,,,,,,,,,
,,,,,659597ab573ada5debc6a899,6682b41eeb79ab8215dff63d,6682ba08572353c5e4e4ec9b,34,Female ,English ,2024-07-01_07h19.47.851,ABmemTask3,2023.2.3,Win32,29.85074627,,,,,,,,,,,,,,,,,,,,,,,,,,,,,,,359.1244,360.1327,360.133,6,360.6196,363.4281,0.0052,363.6234,0.1964,0.2071,0.1954,0.1993,0.209,0.192,0.2039,0.1854,0.2117,0.1987,0.1951,363.6237,364.216,right,0.5498,,364.216,364.5674,right,0.3205,,10,0,12,364.5674,365.5572,0,5,5,5,1,prac_AB,L5_T1P_T2P,5,1,1,5,10,4,5,15,grater,Did you see the grater,0.2,0,resources/,pics/pencil01.jpg,pics/laptop01a.jpg,pics/hammerheadshark.jpg,pics/cork02.jpg,pics/grater01a.jpg,pics/shipinabottle.jpg,pics/binder03b.jpg,pics/dromedary.jpg,pics/pictureframe04.jpg,pics/stapler04b.jpg,pics/fanblades.jpg,pics/aquarium.jpg,pics/hairdryer02a.jpg,pics/lightswitch01.jpg,pics/piggybank.jpg,blankImage,blankImage,grater01a,11,0.2123,0.1902,0.2081,,,,,,,,,,,,,,,,,,,,,,,,,,,,,,,,,,,,,,,,,,,,,,,,,,,,,,,,,,,,,,,,,,,,,,,,,,,,,,,,,,,,,,,,,,,,,,,,,
,,,,,659597ab573ada5debc6a899,6682b41eeb79ab8215dff63d,6682ba08572353c5e4e4ec9b,34,Female ,English ,2024-07-01_07h19.47.851,ABmemTask3,2023.2.3,Win32,29.85074627,,,,,,,,,,,,,,,,,,,,,,,,,,,,,,,365.5598,366.5655,366.5658,6,367.0548,368.6499,0.0038,368.8488,0.1865,0.2035,0.2007,0.1971,0.2149,0.1986,0.1987,0.1927,,,,368.8491,369.6323,right,0.7313,,369.6327,370.104,left,0.4197,,12,0,14,370.1043,371.0914,0,6,6,6,1,prac_AB,L1_T1P_T2A,1,1,0,4,5,3,4,9,chalk,Did you see the chalk,0.19,0,resources/,pics/necklace.jpg,pics/starfish01.jpg,pics/safetypin.jpg,pics/chalk.jpg,pics/candleholder01.jpg,pics/bowtie.jpg,pics/match.jpg,pics/candle01.jpg,pics/pencilsharpener02a.jpg,blankImage,blankImage,blankImage,blankImage,blankImage,blankImage,blankImage,blankImage,chalk,9,,,,,,,,,,,,,,,,,,,,,,,,,,,,,,,,,,,,,,,,,,,,,,,,,,,,,,,,,,,,,,,,,,,,,,,,,,,,,,,,,,,,,,,,,,,,,,,,,,,,
,,,,,659597ab573ada5debc6a899,6682b41eeb79ab8215dff63d,6682ba08572353c5e4e4ec9b,34,Female ,English ,2024-07-01_07h19.47.851,ABmemTask3,2023.2.3,Win32,29.85074627,,,,,,,,,,,,,,,,,,,,,,,,,,,,,,,371.092,372.0702,372.0702,5,372.5557,374.1065,0.0066,374.2689,0.179,0.1813,0.1768,0.1654,0.1707,0.1676,0.1608,0.1755,0.1685,,,374.2693,374.9455,right,0.6318,,374.9458,375.3322,right,0.337,,14,0,16,375.3323,376.3187,0,7,7,7,1,prac_AB,L1_T1P_T2P,1,1,1,5,6,4,4,10,pants,Did you see the pants,0.18,0,resources/,pics/kangaroo.jpg,pics/safetypin.jpg,pics/salmon.jpg,pics/sandbarshark.jpg,pics/pants.jpg,pics/stapler03a.jpg,pics/sink.jpg,pics/calendar.jpg,pics/butterfly.jpg,pics/fanblades.jpg,blankImage,blankImage,blankImage,blankImage,blankImage,blankImage,blankImage,pants,2,,,,,,,,,,,,,,,,,,,,,,,,,,,,,,,,,,,,,,,,,,,,,,,,,,,,,,,,,,,,,,,,,,,,,,,,,,,,,,,,,,,,,,,,,,,,,,,,,,,,
,,,,,659597ab573ada5debc6a899,6682b41eeb79ab8215dff63d,6682ba08572353c5e4e4ec9b,34,Female ,English ,2024-07-01_07h19.47.851,ABmemTask3,2023.2.3,Win32,29.85074627,,,,,,,,,,,,,,,,,,,,,,,,,,,,,,,376.3213,377.3013,377.3014,5,377.7709,380.1298,0.0076,380.2936,0.1637,0.1716,0.1669,0.1734,0.1708,0.1728,0.1635,0.1711,0.1636,0.1734,0.1655,380.2942,381.4195,left,1.0727,,381.4198,381.801,right,0.3335,,16,0,18,381.8014,382.7994,0,8,8,8,1,prac_AB,L5_T1A_T2P,5,0,1,7,12,6,3,15,shirt,Did you see the shirt,0.17,0,resources/,pics/banjo.jpg,pics/chainsaw.jpg,pics/sailboat.jpg,pics/shipinabottle.jpg,pics/lightswitch01.jpg,pics/starfish01.jpg,pics/hen.jpg,pics/ball02.jpg,pics/bowlingpin.jpg,pics/hammerheadshark.jpg,pics/footballhelmet.jpg,pics/stapler10.jpg,pics/laptop01a.jpg,pics/cannon.jpg,pics/golfball.jpg,blankImage,blankImage,shirt02,13,0.1659,0.17,0.1607,,,,,,,,,,,,,,,,,,,,,,,,,,,,,,,,,,,,,,,,,,,,,,,,,,,,,,,,,,,,,,,,,,,,,,,,,,,,,,,,,,,,,,,,,,,,,,,,,
,,,,,659597ab573ada5debc6a899,6682b41eeb79ab8215dff63d,6682ba08572353c5e4e4ec9b,34,Female ,English ,2024-07-01_07h19.47.851,ABmemTask3,2023.2.3,Win32,29.85074627,,,,,,,,,,,,,,,,,,,,,,,,,,,,,,,382.8169,383.795,383.7953,5,384.2784,385.9491,0.005,386.1137,0.164,0.1609,0.1672,0.1713,0.1731,0.1554,0.1743,0.1696,0.1648,0.1668,,386.114,386.882,right,0.721,,386.8824,387.4014,left,0.4717,,16,0,20,387.4018,388.3881,0,9,9,9,1,prac_AB,L1_T1P_T2P,1,1,1,7,8,6,3,11,tongs,Did you see the tongs,0.16,0,resources/,pics/sewingmachine01a.jpg,pics/shovel01.jpg,pics/football.jpg,pics/hen.jpg,pics/banjo.jpg,pics/zebra.jpg,pics/tongs01b.jpg,pics/stapler11.jpg,pics/shipinabottle.jpg,pics/match.jpg,pics/candle01.jpg,blankImage,blankImage,blankImage,blankImage,blankImage,blankImage,tongs01b,5,,,,,,,,,,,,,,,,,,,,,,,,,,,,,,,,,,,,,,,,,,,,,,,,,,,,,,,,,,,,,,,,,,,,,,,,,,,,,,,,,,,,,,,,,,,,,,,,,,,,
,,,,,659597ab573ada5debc6a899,6682b41eeb79ab8215dff63d,6682ba08572353c5e4e4ec9b,34,Female ,English ,2024-07-01_07h19.47.851,ABmemTask3,2023.2.3,Win32,29.85074627,,,,,,,,,,,,,,,,,,,,,,,,,,,,,,,388.3907,389.3923,389.3926,4,389.87,391.342,0.0063,391.4796,0.1422,0.1323,0.1217,0.1424,0.1324,0.133,0.133,0.135,0.133,0.1322,0.1301,391.48,392.5063,left,0.9769,,392.5066,394.7616,left,2.1993,,18,0,22,394.762,395.7861,0,10,10,10,1,prac_AB,L1_T1A_T2A,1,0,0,7,8,6,4,12,camera,Did you see the camera,0.15,0,resources/,pics/lightswitch01.jpg,pics/table01.jpg,pics/aquarium.jpg,pics/boot02b.jpg,pics/butterfly.jpg,pics/chainsaw.jpg,pics/binoculars01b.jpg,pics/giraffe.jpg,pics/triangle.jpg,pics/microscope.jpg,pics/mummy.jpg,pics/icecube01.jpg,blankImage,blankImage,blankImage,blankImage,blankImage,camera01a,10,,,,,,,,,,,,,,,,,,,,,,,,,,,,,,,,,,,,,,,,,,,,,,,,,,,,,,,,,,,,,,,,,,,,,,,,,,,,,,,,,,,,,,,,,,,,,,,,,,,,
,,,,,659597ab573ada5debc6a899,6682b41eeb79ab8215dff63d,6682ba08572353c5e4e4ec9b,34,Female ,English ,2024-07-01_07h19.47.851,ABmemTask3,2023.2.3,Win32,29.85074627,,,,,,,,,,,,,,,,,,,,,,,,,,,,,,,395.8087,396.7787,396.7787,4,397.2779,398.6766,0.0032,398.8228,0.1375,0.1469,0.1619,0.1822,0.1557,0.1606,0.1449,0.1542,0.153,,,398.8234,399.8486,right,0.9663,,399.8489,401.074,left,1.1785,,18,0,24,401.0741,402.0647,0,11,11,11,1,prac_AB,L1_T1P_T2P,1,1,1,6,7,5,3,10,shorts,Did you see the shorts,0.14,0,resources/,pics/snowshoe.jpg,pics/chainsaw.jpg,pics/sailboat.jpg,pics/ball02.jpg,pics/candleholder01.jpg,pics/shorts01.jpg,pics/stapler07.jpg,pics/peach01.jpg,pics/proboscismonkey.jpg,pics/hen.jpg,blankImage,blankImage,blankImage,blankImage,blankImage,blankImage,blankImage,shorts01,4,,,,,,,,,,,,,,,,,,,,,,,,,,,,,,,,,,,,,,,,,,,,,,,,,,,,,,,,,,,,,,,,,,,,,,,,,,,,,,,,,,,,,,,,,,,,,,,,,,,,
,,,,,659597ab573ada5debc6a899,6682b41eeb79ab8215dff63d,6682ba08572353c5e4e4ec9b,34,Female ,English ,2024-07-01_07h19.47.851,ABmemTask3,2023.2.3,Win32,29.85074627,,,,,,,,,,,,,,,,,,,,,,,,,,,,,,,402.082,403.0669,403.067,4,403.5904,405.2862,0.0037,405.419,0.1339,0.1585,0.1676,0.1388,0.1497,0.1371,0.1387,0.1318,0.1331,0.144,0.1255,405.4192,406.2996,right,0.8347,,406.2997,406.7412,left,0.3976,,20,0,26,406.7412,407.7391,0,12,12,12,1,prac_AB,L5_T1P_T2A,5,1,0,5,10,4,3,13,fish,Did you see the fish,0.13,0,resources/,pics/football.jpg,pics/safetypin.jpg,pics/shovel01.jpg,pics/sink.jpg,pics/holdfast.jpg,pics/nutcracker01.jpg,pics/starfish01.jpg,pics/onion.jpg,pics/footballhelmet.jpg,pics/boot02b.jpg,pics/sewingmachine01a.jpg,pics/kangaroo.jpg,pics/banjo.jpg,blankImage,blankImage,blankImage,blankImage,holdfast,14,0.1346,,,,,,,,,,,,,,,,,,,,,,,,,,,,,,,,,,,,,,,,,,,,,,,,,,,,,,,,,,,,,,,,,,,,,,,,,,,,,,,,,,,,,,,,,,,,,,,,,,,
,,,,,659597ab573ada5debc6a899,6682b41eeb79ab8215dff63d,6682ba08572353c5e4e4ec9b,34,Female ,English ,2024-07-01_07h19.47.851,ABmemTask3,2023.2.3,Win32,29.85074627,,,,,,,,,,,,,,,,,,,,,,,,,,,,,,,407.7416,408.7266,408.7267,4,409.2207,410.4989,0.0074,410.6293,0.1471,0.16,0.1511,0.1444,0.14,0.1388,0.1261,0.1364,0.1295,,,410.6297,411.5869,left,0.9111,,411.5873,413.0164,right,1.3896,,20,0,28,413.0165,414.0143,0,13,13,13,1,prac_AB,L1_T1P_T2P,1,1,1,5,6,4,4,10,fish,Did you see the fish,0.12,0,resources/,pics/butterfly.jpg,pics/banjo.jpg,pics/leaf02a.jpg,pics/dustpan.jpg,pics/sturgeon.jpg,pics/stapler02.jpg,pics/necklace.jpg,pics/shovel01.jpg,pics/starfish01.jpg,pics/chainsaw.jpg,blankImage,blankImage,blankImage,blankImage,blankImage,blankImage,blankImage,sturgeon,3,,,,,,,,,,,,,,,,,,,,,,,,,,,,,,,,,,,,,,,,,,,,,,,,,,,,,,,,,,,,,,,,,,,,,,,,,,,,,,,,,,,,,,,,,,,,,,,,,,,,
,,,,,659597ab573ada5debc6a899,6682b41eeb79ab8215dff63d,6682ba08572353c5e4e4ec9b,34,Female ,English ,2024-07-01_07h19.47.851,ABmemTask3,2023.2.3,Win32,29.85074627,,,,,,,,,,,,,,,,,,,,,,,,,,,,,,,,,,,,,,,,,,,,,,,,,,,,,,,,,,,,,,,,,,,,,,,,,,,,,,,,,,,,,,,,,,,,,,,,,,,,,,,,,,,414.0144,417.8021,space,3.7441,,,,,,,,,,,,,,,,,,,,,,,,,,,,,,,,,,,,,,,,,,,,,,,,,,,,,,,,,,,,,,,,,,,,,,,,,,,,,,,,,,,,,,,,,,,,,
,,,,,659597ab573ada5debc6a899,6682b41eeb79ab8215dff63d,6682ba08572353c5e4e4ec9b,34,Female ,English ,2024-07-01_07h19.47.851,ABmemTask3,2023.2.3,Win32,29.85074627,,,,,,,,,,,,,,,,,,,,,,,,,,,,,,,,,,,,,,,,,,,,,,,,,,,,,,,,,,,,,,,,,,,,,,,,,,,,,,,,,,,,,,,,,,,,,,,,,,,,,,,,,,,417.8329,417.8367,,,,,,,,,,,,,,,,,,,,,,,,,,,,,,,,,,,,,,,,,,,,,,,,,,,,,,,,,,,,,,,,,,,,,,,,,,,,,,,,,,,,,,,,,,,,,,,
,,,,,659597ab573ada5debc6a899,6682b41eeb79ab8215dff63d,6682ba08572353c5e4e4ec9b,34,Female ,English ,2024-07-01_07h19.47.851,ABmemTask3,2023.2.3,Win32,29.85074627,,,,,,,,,,,,,,,,,,,,,,,,,,,,,,,,,,,,,,,,,,,,,,,,,,,,,,,,,,,,,,,,,,,,,,,,,,,,,,,,,,,,,,,,,,,,,,,,,,,,,,,,,,,417.8491,417.8493,,,,,,,,,,,,,,,,,,,,,,,,,,,,,,,,,,,,,,,,,,,,,,,,,,,,,,,,,,,,,,,,,,,,,,,,,,,,,,,,,,,,,,,,,,,,,,,
,,,,,659597ab573ada5debc6a899,6682b41eeb79ab8215dff63d,6682ba08572353c5e4e4ec9b,34,Female ,English ,2024-07-01_07h19.47.851,ABmemTask3,2023.2.3,Win32,29.85074627,,,,,,,,,,,,,,,,,,,,,,,,,,,,,,,,,,,,,,,,,,,,,,,,,,,,,,,,,,,,,,,,,,,,,,,,,,,,,,,,,,,,,,,,,,,,,,,,,,,,,,,,,,,417.8575,417.8577,,,,,,,,,,,,,,,,,,,,,,,,,,,,,,,,,,,,,,,,,,,,,,,,,,,,,,,,,,,,,,,,,,,,,,,,,,,,,,,,,,,,,,,,,,,,,,,
,,,,,659597ab573ada5debc6a899,6682b41eeb79ab8215dff63d,6682ba08572353c5e4e4ec9b,34,Female ,English ,2024-07-01_07h19.47.851,ABmemTask3,2023.2.3,Win32,29.85074627,,,,,,,,,,,,,,,,,,,,,,,,,,,,,,,,,,,,,,,,,,,,,,,,,,,,,,,,,,,,,,,,,,,,,,,,,,,,,,,,,,,,,,,,,,,,,,,,,,,,,,,,,,,417.8659,417.8661,,,,,,,,,,,,,,,,,,,,,,,,,,,,,,,,,,,,,,,,,,,,,,,,,,,,,,,,,,,,,,,,,,,,,,,,,,,,,,,,,,,,,,,,,,,,,,,
,,,,,659597ab573ada5debc6a899,6682b41eeb79ab8215dff63d,6682ba08572353c5e4e4ec9b,34,Female ,English ,2024-07-01_07h19.47.851,ABmemTask3,2023.2.3,Win32,29.85074627,,,,,,,,,,,,,,,,,,,,,,,,,,,,,,,,,,,,,,,,,,,,,,,,,,,,,,,,,,,,,,,,,,,,,,,,,,,,,,,,,,,,,,,,,,,,,,,,,,,,,,,,,,,417.8768,417.8771,,,,,,,,,,,,,,,,,,,,,,,,,,,,,,,,,,,,,,,,,,,,,,,,,,,,,,,,,,,,,,,,,,,,,,,,,,,,,,,,,,,,,,,,,,,,,,,
,,,,,659597ab573ada5debc6a899,6682b41eeb79ab8215dff63d,6682ba08572353c5e4e4ec9b,34,Female ,English ,2024-07-01_07h19.47.851,ABmemTask3,2023.2.3,Win32,29.85074627,,,,,,,,,,,,,,,,,,,,,,,,,,,,,,,,,,,,,,,,,,,,,,,,,,,,,,,,,,,,,,,,,,,,,,,,,,,,,,,,,,,,,,,,,,,,,,,,,,,,,,,,,,,417.8849,417.8851,,,,,,,,,,,,,,,,,,,,,,,,,,,,,,,,,,,,,,,,,,,,,,,,,,,,,,,,,,,,,,,,,,,,,,,,,,,,,,,,,,,,,,,,,,,,,,,
,,,,,659597ab573ada5debc6a899,6682b41eeb79ab8215dff63d,6682ba08572353c5e4e4ec9b,34,Female ,English ,2024-07-01_07h19.47.851,ABmemTask3,2023.2.3,Win32,29.85074627,,,,,,,,,,,,,,,,,,,,,,,,,,,,,,,,,,,,,,,,,,,,,,,,,,,,,,,,,,,,,,,,,,,,,,,,,,,,,,,,,,,,,,,,,,,,,,,,,,,,,,,,,,,417.8933,417.8935,,,,,,,,,,,,,,,,,,,,,,,,,,,,,,,,,,,,,,,,,,,,,,,,,,,,,,,,,,,,,,,,,,,,,,,,,,,,,,,,,,,,,,,,,,,,,,,
,,,,,659597ab573ada5debc6a899,6682b41eeb79ab8215dff63d,6682ba08572353c5e4e4ec9b,34,Female ,English ,2024-07-01_07h19.47.851,ABmemTask3,2023.2.3,Win32,29.85074627,,,,,,,,,,,,,,,,,,,,,,,,,,,,,,,,,,,,,,,,,,,,,,,,,,,,,,,,,,,,,,,,,,,,,,,,,,,,,,,,,,,,,,,,,,,,,,,,,,,,,,,,,,,417.904,417.9042,,,,,,,,,,,,,,,,,,,,,,,,,,,,,,,,,,,,,,,,,,,,,,,,,,,,,,,,,,,,,,,,,,,,,,,,,,,,,,,,,,,,,,,,,,,,,,,
,,,,,659597ab573ada5debc6a899,6682b41eeb79ab8215dff63d,6682ba08572353c5e4e4ec9b,34,Female ,English ,2024-07-01_07h19.47.851,ABmemTask3,2023.2.3,Win32,29.85074627,,,,,,,,,,,,,,,,,,,,,,,,,,,,,,,,,,,,,,,,,,,,,,,,,,,,,,,,,,,,,,,,,,,,,,,,,,,,,,,,,,,,,,,,,,,,,,,,,,,,,,,,,,,417.913,417.9133,,,,,,,,,,,,,,,,,,,,,,,,,,,,,,,,,,,,,,,,,,,,,,,,,,,,,,,,,,,,,,,,,,,,,,,,,,,,,,,,,,,,,,,,,,,,,,,
,,,,,659597ab573ada5debc6a899,6682b41eeb79ab8215dff63d,6682ba08572353c5e4e4ec9b,34,Female ,English ,2024-07-01_07h19.47.851,ABmemTask3,2023.2.3,Win32,29.85074627,,,,,,,,,,,,,,,,,,,,,,,,,,,,,,,,,,,,,,,,,,,,,,,,,,,,,,,,,,,,,,,,,,,,,,,,,,,,,,,,,,,,,,,,,,,,,,,,,,,,,,,,,,,417.9214,417.9217,,,,,,,,,,,,,,,,,,,,,,,,,,,,,,,,,,,,,,,,,,,,,,,,,,,,,,,,,,,,,,,,,,,,,,,,,,,,,,,,,,,,,,,,,,,,,,,
,,,,,659597ab573ada5debc6a899,6682b41eeb79ab8215dff63d,6682ba08572353c5e4e4ec9b,34,Female ,English ,2024-07-01_07h19.47.851,ABmemTask3,2023.2.3,Win32,29.85074627,,,,,,,,,,,,,,,,,,,,,,,,,,,,,,,,,,,,,,,,,,,,,,,,,,,,,,,,,,,,,,,,,,,,,,,,,,,,,,,,,,,,,,,,,,,,,,,,,,,,,,,,,,,417.9312,417.9314,,,,,,,,,,,,,,,,,,,,,,,,,,,,,,,,,,,,,,,,,,,,,,,,,,,,,,,,,,,,,,,,,,,,,,,,,,,,,,,,,,,,,,,,,,,,,,,
,,,,,659597ab573ada5debc6a899,6682b41eeb79ab8215dff63d,6682ba08572353c5e4e4ec9b,34,Female ,English ,2024-07-01_07h19.47.851,ABmemTask3,2023.2.3,Win32,29.85074627,,,,,,,,,,,,,,,,,,,,,,,,,,,,,,,,,,,,,,,,,,,,,,,,,,,,,,,,,,,,,,,,,,,,,,,,,,,,,,,,,,,,,,,,,,,,,,,,,,,,,,,,,,,417.948,417.9483,,,,,,,,,,,,,,,,,,,,,,,,,,,,,,,,,,,,,,,,,,,,,,,,,,,,,,,,,,,,,,,,,,,,,,,,,,,,,,,,,,,,,,,,,,,,,,,
,,,,,659597ab573ada5debc6a899,6682b41eeb79ab8215dff63d,6682ba08572353c5e4e4ec9b,34,Female ,English ,2024-07-01_07h19.47.851,ABmemTask3,2023.2.3,Win32,29.85074627,,,,,,,,,,,,,,,,,,,,,,,,,,,,,,,,,,,,,,,,,,,,,,,,,,,,,,,,,,,,,,,,,,,,,,,,,,,,,,,,,,,,,,,,,,,,,,,,,,,,,,,,,,,417.9561,417.9563,,,,,,,,,,,,,,,,,,,,,,,,,,,,,,,,,,,,,,,,,,,,,,,,,,,,,,,,,,,,,,,,,,,,,,,,,,,,,,,,,,,,,,,,,,,,,,,
,,,,,659597ab573ada5debc6a899,6682b41eeb79ab8215dff63d,6682ba08572353c5e4e4ec9b,34,Female ,English ,2024-07-01_07h19.47.851,ABmemTask3,2023.2.3,Win32,29.85074627,,,,,,,,,,,,,,,,,,,,,,,,,,,,,,,,,,,,,,,,,,,,,,,,,,,,,,,,,,,,,,,,,,,,,,,,,,,,,,,,,,,,,,,,,,,,,,,,,,,,,,,,,,,417.9602,417.9603,,,,,,,,,,,,,,,,,,,,,,,,,,,,,,,,,,,,,,,,,,,,,,,,,,,,,,,,,,,,,,,,,,,,,,,,,,,,,,,,,,,,,,,,,,,,,,,
,,,,,659597ab573ada5debc6a899,6682b41eeb79ab8215dff63d,6682ba08572353c5e4e4ec9b,34,Female ,English ,2024-07-01_07h19.47.851,ABmemTask3,2023.2.3,Win32,29.85074627,,,,,,,,,,,,,,,,,,,,,,,,,,,,,,,,,,,,,,,,,,,,,,,,,,,,,,,,,,,,,,,,,,,,,,,,,,,,,,,,,,,,,,,,,,,,,,,,,,,,,,,,,,,417.9649,417.9651,,,,,,,,,,,,,,,,,,,,,,,,,,,,,,,,,,,,,,,,,,,,,,,,,,,,,,,,,,,,,,,,,,,,,,,,,,,,,,,,,,,,,,,,,,,,,,,
,,,,,659597ab573ada5debc6a899,6682b41eeb79ab8215dff63d,6682ba08572353c5e4e4ec9b,34,Female ,English ,2024-07-01_07h19.47.851,ABmemTask3,2023.2.3,Win32,29.85074627,,,,,,,,,,,,,,,,,,,,,,,,,,,,,,,,,,,,,,,,,,,,,,,,,,,,,,,,,,,,,,,,,,,,,,,,,,,,,,,,,,,,,,,,,,,,,,,,,,,,,,,,,,,417.9683,417.9684,,,,,,,,,,,,,,,,,,,,,,,,,,,,,,,,,,,,,,,,,,,,,,,,,,,,,,,,,,,,,,,,,,,,,,,,,,,,,,,,,,,,,,,,,,,,,,,
,,,,,659597ab573ada5debc6a899,6682b41eeb79ab8215dff63d,6682ba08572353c5e4e4ec9b,34,Female ,English ,2024-07-01_07h19.47.851,ABmemTask3,2023.2.3,Win32,29.85074627,,,,,,,,,,,,,,,,,,,,,,,,,,,,,,,,,,,,,,,,,,,,,,,,,,,,,,,,,,,,,,,,,,,,,,,,,,,,,,,,,,,,,,,,,,,,,,,,,,,,,,,,,,,417.9719,417.9719,,,,,,,,,,,,,,,,,,,,,,,,,,,,,,,,,,,,,,,,,,,,,,,,,,,,,,,,,,,,,,,,,,,,,,,,,,,,,,,,,,,,,,,,,,,,,,,
,,,,,659597ab573ada5debc6a899,6682b41eeb79ab8215dff63d,6682ba08572353c5e4e4ec9b,34,Female ,English ,2024-07-01_07h19.47.851,ABmemTask3,2023.2.3,Win32,29.85074627,,,,,,,,,,,,,,,,,,,,,,,,,,,,,,,,,,,,,,,,,,,,,,,,,,,,,,,,,,,,,,,,,,,,,,,,,,,,,,,,,,,,,,,,,,,,,,,,,,,,,,,,,,,417.976,417.9761,,,,,,,,,,,,,,,,,,,,,,,,,,,,,,,,,,,,,,,,,,,,,,,,,,,,,,,,,,,,,,,,,,,,,,,,,,,,,,,,,,,,,,,,,,,,,,,
,,,,,659597ab573ada5debc6a899,6682b41eeb79ab8215dff63d,6682ba08572353c5e4e4ec9b,34,Female ,English ,2024-07-01_07h19.47.851,ABmemTask3,2023.2.3,Win32,29.85074627,,,,,,,,,,,,,,,,,,,,,,,,,,,,,,,,,,,,,,,,,,,,,,,,,,,,,,,,,,,,,,,,,,,,,,,,,,,,,,,,,,,,,,,,,,,,,,,,,,,,,,,,,,,417.9794,417.9795,,,,,,,,,,,,,,,,,,,,,,,,,,,,,,,,,,,,,,,,,,,,,,,,,,,,,,,,,,,,,,,,,,,,,,,,,,,,,,,,,,,,,,,,,,,,,,,
,,,,,659597ab573ada5debc6a899,6682b41eeb79ab8215dff63d,6682ba08572353c5e4e4ec9b,34,Female ,English ,2024-07-01_07h19.47.851,ABmemTask3,2023.2.3,Win32,29.85074627,,,,,,,,,,,,,,,,,,,,,,,,,,,,,,,,,,,,,,,,,,,,,,,,,,,,,,,,,,,,,,,,,,,,,,,,,,,,,,,,,,,,,,,,,,,,,,,,,,,,,,,,,,,,,,,,417.9805,444.1714,space,26.1388,,,,,,,,,,,,,,,,,,,,,,,,,,,,,,,,,,,,,,,,,,,,,,,,,,,,,,,,,,,,,,,,,,,,,,,,,,,,,,,,,,,,,,,,
,,,,,659597ab573ada5debc6a899,6682b41eeb79ab8215dff63d,6682ba08572353c5e4e4ec9b,34,Female ,English ,2024-07-01_07h19.47.851,ABmemTask3,2023.2.3,Win32,29.85074627,,,,,,,,,,,,,,,,,,,,,,,,,,,,,,,,,444.1946,299,444.6874,,,,,,,,,,,,,,,,,,,,,,,,,,0,,,,,,,,,prac_MEM,old,,,,,,,,,,,10,,,,,,,,,,,,,,,,,,,,,,,,,,,,,,,,,,,444.6885,454.1094,-3,1,9.3661,,454.1127,455.0758,0,0,0,1,1,2,1,pics/pants.jpg,,,,,,,,,,,,,,,,,,,,,,,,,,,,,,,,,,,,,,,,,,,,,,,,,,,,,,,,,,,,,,,,,,,,,,,
,,,,,659597ab573ada5debc6a899,6682b41eeb79ab8215dff63d,6682ba08572353c5e4e4ec9b,34,Female ,English ,2024-07-01_07h19.47.851,ABmemTask3,2023.2.3,Win32,29.85074627,,,,,,,,,,,,,,,,,,,,,,,,,,,,,,,,,455.0949,299,455.5881,,,,,,,,,,,,,,,,,,,,,,,,,,0,,,,,,,,,prac_MEM,new,,,,,,,,,,,10,,,,,,,,,,,,,,,,,,,,,,,,,,,,,,,,,,,455.5884,459.1808,0,1,3.5391,,459.1842,460.1988,0,1,1,7,1,999,999,pics/cherry01.jpg,,,,,,,,,,,,,,,,,,,,,,,,,,,,,,,,,,,,,,,,,,,,,,,,,,,,,,,,,,,,,,,,,,,,,,,
,,,,,659597ab573ada5debc6a899,6682b41eeb79ab8215dff63d,6682ba08572353c5e4e4ec9b,34,Female ,English ,2024-07-01_07h19.47.851,ABmemTask3,2023.2.3,Win32,29.85074627,,,,,,,,,,,,,,,,,,,,,,,,,,,,,,,,,460.2159,299,460.708,,,,,,,,,,,,,,,,,,,,,,,,,,0,,,,,,,,,prac_MEM,old,,,,,,,,,,,10,,,,,,,,,,,,,,,,,,,,,,,,,,,,,,,,,,,460.7083,462.9426,3,6,2.1849,,462.9457,463.923,0,2,2,3,1,4,1,pics/shorts01.jpg,,,,,,,,,,,,,,,,,,,,,,,,,,,,,,,,,,,,,,,,,,,,,,,,,,,,,,,,,,,,,,,,,,,,,,,
,,,,,659597ab573ada5debc6a899,6682b41eeb79ab8215dff63d,6682ba08572353c5e4e4ec9b,34,Female ,English ,2024-07-01_07h19.47.851,ABmemTask3,2023.2.3,Win32,29.85074627,,,,,,,,,,,,,,,,,,,,,,,,,,,,,,,,,463.9253,299,464.4074,,,,,,,,,,,,,,,,,,,,,,,,,,0,,,,,,,,,prac_MEM,old,,,,,,,,,,,10,,,,,,,,,,,,,,,,,,,,,,,,,,,,,,,,,,,464.4076,466.1522,6,6,1.6911,,466.1529,467.1693,0,3,3,0,1,1,1,pics/tree.jpg,,,,,,,,,,,,,,,,,,,,,,,,,,,,,,,,,,,,,,,,,,,,,,,,,,,,,,,,,,,,,,,,,,,,,,,
,,,,,659597ab573ada5debc6a899,6682b41eeb79ab8215dff63d,6682ba08572353c5e4e4ec9b,34,Female ,English ,2024-07-01_07h19.47.851,ABmemTask3,2023.2.3,Win32,29.85074627,,,,,,,,,,,,,,,,,,,,,,,,,,,,,,,,,467.1867,299,467.6816,,,,,,,,,,,,,,,,,,,,,,,,,,0,,,,,,,,,prac_MEM,old,,,,,,,,,,,10,,,,,,,,,,,,,,,,,,,,,,,,,,,,,,,,,,,467.6818,471.0017,9,6,3.2752,,471.0042,471.9999,0,4,4,2,1,3,1,pics/sturgeon.jpg,,,,,,,,,,,,,,,,,,,,,,,,,,,,,,,,,,,,,,,,,,,,,,,,,,,,,,,,,,,,,,,,,,,,,,,
,,,,,659597ab573ada5debc6a899,6682b41eeb79ab8215dff63d,6682ba08572353c5e4e4ec9b,34,Female ,English ,2024-07-01_07h19.47.851,ABmemTask3,2023.2.3,Win32,29.85074627,,,,,,,,,,,,,,,,,,,,,,,,,,,,,,,,,472.0168,299,472.5108,,,,,,,,,,,,,,,,,,,,,,,,,,0,,,,,,,,,prac_MEM,new,,,,,,,,,,,10,,,,,,,,,,,,,,,,,,,,,,,,,,,,,,,,,,,472.511,473.6972,0,6,1.1395,,473.6981,474.6999,0,5,5,9,1,999,999,pics/moth.jpg,,,,,,,,,,,,,,,,,,,,,,,,,,,,,,,,,,,,,,,,,,,,,,,,,,,,,,,,,,,,,,,,,,,,,,,
,,,,,659597ab573ada5debc6a899,6682b41eeb79ab8215dff63d,6682ba08572353c5e4e4ec9b,34,Female ,English ,2024-07-01_07h19.47.851,ABmemTask3,2023.2.3,Win32,29.85074627,,,,,,,,,,,,,,,,,,,,,,,,,,,,,,,,,474.7232,299,475.2042,,,,,,,,,,,,,,,,,,,,,,,,,,0,,,,,,,,,prac_MEM,new,,,,,,,,,,,10,,,,,,,,,,,,,,,,,,,,,,,,,,,,,,,,,,,475.2045,476.7735,-9,6,1.5077,,476.7756,477.7726,0,6,6,8,1,999,999,pics/thread02.jpg,,,,,,,,,,,,,,,,,,,,,,,,,,,,,,,,,,,,,,,,,,,,,,,,,,,,,,,,,,,,,,,,,,,,,,,
,,,,,659597ab573ada5debc6a899,6682b41eeb79ab8215dff63d,6682ba08572353c5e4e4ec9b,34,Female ,English ,2024-07-01_07h19.47.851,ABmemTask3,2023.2.3,Win32,29.85074627,,,,,,,,,,,,,,,,,,,,,,,,,,,,,,,,,477.773,299,478.281,,,,,,,,,,,,,,,,,,,,,,,,,,0,,,,,,,,,prac_MEM,old,,,,,,,,,,,10,,,,,,,,,,,,,,,,,,,,,,,,,,,,,,,,,,,478.2812,479.2418,-6,6,0.9037,,479.2437,480.2256,0,7,7,6,1,12,5,pics/humanskull.jpg,,,,,,,,,,,,,,,,,,,,,,,,,,,,,,,,,,,,,,,,,,,,,,,,,,,,,,,,,,,,,,,,,,,,,,,
,,,,,659597ab573ada5debc6a899,6682b41eeb79ab8215dff63d,6682ba08572353c5e4e4ec9b,34,Female ,English ,2024-07-01_07h19.47.851,ABmemTask3,2023.2.3,Win32,29.85074627,,,,,,,,,,,,,,,,,,,,,,,,,,,,,,,,,480.2262,299,480.7124,,,,,,,,,,,,,,,,,,,,,,,,,,0,,,,,,,,,prac_MEM,new,,,,,,,,,,,10,,,,,,,,,,,,,,,,,,,,,,,,,,,,,,,,,,,480.7126,481.8975,-3,1,1.133,,481.8988,482.8908,0,8,8,10,1,999,999,pics/tomato01.jpg,,,,,,,,,,,,,,,,,,,,,,,,,,,,,,,,,,,,,,,,,,,,,,,,,,,,,,,,,,,,,,,,,,,,,,,
,,,,,659597ab573ada5debc6a899,6682b41eeb79ab8215dff63d,6682ba08572353c5e4e4ec9b,34,Female ,English ,2024-07-01_07h19.47.851,ABmemTask3,2023.2.3,Win32,29.85074627,,,,,,,,,,,,,,,,,,,,,,,,,,,,,,,,,482.8929,299,483.4119,,,,,,,,,,,,,,,,,,,,,,,,,,0,,,,,,,,,prac_MEM,old,,,,,,,,,,,10,,,,,,,,,,,,,,,,,,,,,,,,,,,,,,,,,,,483.4122,484.3129,0,6,0.8457,,484.3145,485.2737,0,9,9,5,1,11,5,pics/grater01a.jpg,,,,,,,,,,,,,,,,,,,,,,,,,,,,,,,,,,,,,,,,,,,,,,,,,,,,,,,,,,,,,,,,,,,,,,,
,,,,,659597ab573ada5debc6a899,6682b41eeb79ab8215dff63d,6682ba08572353c5e4e4ec9b,34,Female ,English ,2024-07-01_07h19.47.851,ABmemTask3,2023.2.3,Win32,29.85074627,,,,,,,,,,,,,,,,,,,,,,,,,,,,,,,,,485.2743,299,485.7521,,,,,,,,,,,,,,,,,,,,,,,,,,0,,,,,,,,,prac_MEM,old,,,,,,,,,,,10,,,,,,,,,,,,,,,,,,,,,,,,,,,,,,,,,,,485.7523,486.7129,3,6,0.8957,,486.7141,487.701,0,10,10,4,1,5,1,pics/tongs01b.jpg,,,,,,,,,,,,,,,,,,,,,,,,,,,,,,,,,,,,,,,,,,,,,,,,,,,,,,,,,,,,,,,,,,,,,,,
,,,,,659597ab573ada5debc6a899,6682b41eeb79ab8215dff63d,6682ba08572353c5e4e4ec9b,34,Female ,English ,2024-07-01_07h19.47.851,ABmemTask3,2023.2.3,Win32,29.85074627,,,,,,,,,,,,,,,,,,,,,,,,,,,,,,,,,,,,,,,,,,,,,,,,,,,,,,,,,,,,,,,,,,,,,,,,,,,,,,,,,,,,,,,,,,,,,,,,,,,,,,,,,,,,,,,,,,,,,,,,,,,,,,,,,,,,,487.7034,490.0712,490.0718,490.0728,,,,,,,,,,,,,,,,,,,,,,,,,,,,,,,,,,,,,,,,,,,,,,,,,,,,,,,,,,,,,,,,,,,
,,,,,659597ab573ada5debc6a899,6682b41eeb79ab8215dff63d,6682ba08572353c5e4e4ec9b,34,Female ,English ,2024-07-01_07h19.47.851,ABmemTask3,2023.2.3,Win32,29.85074627,,,,,,,,,,,,,,,,,,space,47.3379,,,,,,,,,,,,,,,,,,,,,,,,,,,,,,,,,,,,,,,,,,,,,,,,,,,,,,,,,,,,,,,,,,,,,,,,,,,,,,,,,,,,,,,,,,,,,,,,,,,,,,,,,,,,,,,,,,,,,,490.0732,537.487,,,,,,,,,,,,,,,,,,,,,,,,,,,,,,,,,,,,,,,,,,,,,,,,,,,,,,,,,,,,,,,,,
,,,,,659597ab573ada5debc6a899,6682b41eeb79ab8215dff63d,6682ba08572353c5e4e4ec9b,34,Female ,English ,2024-07-01_07h19.47.851,ABmemTask3,2023.2.3,Win32,29.85074627,,,,,,,,,,,,,,,,,,,,,,,,,,,,,,,,,,,,,,,,,,,,,,,,,,,,,,,,,,,,,,,,,,,,,,,,,,,,,,,,,,,,,,,,,,,,,,,,,,,,,,,,,,,,,,,,,,,,,,,,,,,,,,,,,,,,,,,,,,,537.4878,557.1758,space,19.6029,,,,,,,,,,,,,,,,,,,,,,,,,,,,,,,,,,,,,,,,,,,,,,,,,,,,,,,,,,,,,
,,,,,659597ab573ada5debc6a899,6682b41eeb79ab8215dff63d,6682ba08572353c5e4e4ec9b,34,Female ,English ,2024-07-01_07h19.47.851,ABmemTask3,2023.2.3,Win32,29.85074627,,,,,,,,,,,,,,,,,,,,,,,,,,,,,,,557.2072,558.1839,558.1842,4,558.6647,560.1403,0.0067,560.271,0.1314,0.135,0.1317,0.1338,0.1338,0.1327,0.1343,0.1369,0.1323,0.1423,0.1256,560.2723,582.5822,right,22.2657,,582.5827,583.6081,left,0.9842,,0,0,2,583.6082,584.6125,,,,,,1_AB,L1_T1P_T2P,1,1,1,7,8,6,4,12,Turnstile,Did you see the Turnstile,0.12,0,resources/,pics/golfball.jpg,pics/hose.jpg,pics/siamesecat.jpg,pics/binoculars01b.jpg,pics/hen.jpg,pics/candleholder01.jpg,pics/turnstile.jpg,pics/stapler03a.jpg,pics/giraffe.jpg,pics/pictureframe04.jpg,pics/sandbarshark.jpg,pics/spoon01.jpg,blankImage,blankImage,blankImage,blankImage,blankImage,turnstile,13,,,,,,,,,,,,,,,,,,,,,,,,,,,,,,,,,,,,,,,,,0,0,0,12,1,,,,,,,,,,,,,,,,,,,,,,,,,,,,,,,,,,,,,,,,,,,,,,,,,,,,,,,
,,,,,659597ab573ada5debc6a899,6682b41eeb79ab8215dff63d,6682ba08572353c5e4e4ec9b,34,Female ,English ,2024-07-01_07h19.47.851,ABmemTask3,2023.2.3,Win32,29.85074627,,,,,,,,,,,,,,,,,,,,,,,,,,,,,,,584.6387,585.6442,585.6445,4,586.1293,587.2259,0.0063,587.3516,0.1398,0.1318,0.1395,0.1338,0.145,0.1373,0.1292,0.1352,,,,587.352,589.4278,left,2.0276,,589.428,590.9522,right,1.4899,,-2,0,4,590.9522,591.938,,,,,,1_AB,L1_T1A_T2A,1,0,0,4,5,3,4,9,License Plate,Did you see the License Plate,0.12,0,resources/,pics/snowshoe.jpg,pics/kangaroo.jpg,pics/noparkingsign.jpg,pics/match.jpg,pics/hose.jpg,pics/blender.jpg,pics/ashtray01.jpg,pics/ball02.jpg,pics/sink.jpg,blankImage,blankImage,blankImage,blankImage,blankImage,blankImage,blankImage,blankImage,licenseplate,40,,,,,,,,,,,,,,,,,,,,,,,,,,,,,,,,,,,,,,,,,0,1,1,39,1,,,,,,,,,,,,,,,,,,,,,,,,,,,,,,,,,,,,,,,,,,,,,,,,,,,,,,,
,,,,,659597ab573ada5debc6a899,6682b41eeb79ab8215dff63d,6682ba08572353c5e4e4ec9b,34,Female ,English ,2024-07-01_07h19.47.851,ABmemTask3,2023.2.3,Win32,29.85074627,,,,,,,,,,,,,,,,,,,,,,,,,,,,,,,591.9596,592.9392,592.9394,4,593.4188,595.0941,0.0038,595.2294,0.1359,0.135,0.1331,0.1362,0.1331,0.1394,0.129,0.133,0.1319,0.1623,0.1359,595.2295,599.5147,right,4.2473,,599.5151,601.1543,right,1.585,,-4,0,6,601.1553,602.1718,,,,,,1_AB,L1_T1A_T2P,1,0,1,7,8,6,5,13,statue,Did you see the statue,0.12,0,resources/,pics/giraffe.jpg,pics/seaturtle.jpg,pics/peach01.jpg,pics/boot02b.jpg,pics/backpack01a.jpg,pics/sandbarshark.jpg,pics/microscope.jpg,pics/stapler07.jpg,pics/snowshoe.jpg,pics/laptop01a.jpg,pics/necklace.jpg,pics/zebra.jpg,pics/carrot01.jpg,blankImage,blankImage,blankImage,blankImage,statue,27,0.167,,,,,,,,,,,,,,,,,,,,,,,,,,,,,,,,,,,,,,,,0,2,2,26,1,,,,,,,,,,,,,,,,,,,,,,,,,,,,,,,,,,,,,,,,,,,,,,,,,,,,,,,
,,,,,659597ab573ada5debc6a899,6682b41eeb79ab8215dff63d,6682ba08572353c5e4e4ec9b,34,Female ,English ,2024-07-01_07h19.47.851,ABmemTask3,2023.2.3,Win32,29.85074627,,,,,,,,,,,,,,,,,,,,,,,,,,,,,,,602.1886,603.1678,603.168,4,603.674,605.7528,0.0064,605.9243,0.1399,0.1352,0.1316,0.1359,0.1308,0.1353,0.1328,0.1299,0.1339,0.147,0.1278,605.9245,606.7722,right,0.8048,,606.7725,607.3515,left,0.5313,,-2,0,8,607.3518,608.3548,,,,,,1_AB,L5_T1P_T2A,5,1,0,7,12,6,4,16,boat,Did you see the boat,0.12,0,resources/,pics/butterfly.jpg,pics/onion.jpg,pics/hose.jpg,pics/ball02.jpg,pics/ashtray01.jpg,pics/bowtie.jpg,pics/boat.jpg,pics/seaturtle.jpg,pics/blender.jpg,pics/zebra.jpg,pics/pictureframe04.jpg,pics/shovel01.jpg,pics/spoon01.jpg,pics/peanut01.jpg,pics/nutcracker01.jpg,pics/aquarium.jpg,blankImage,boat,60,0.1333,0.1325,0.158,,,,,,,,,,,,,,,,,,,,,,,,,,,,,,,,,,,,,,0,3,3,59,1,0.1686,,,,,,,,,,,,,,,,,,,,,,,,,,,,,,,,,,,,,,,,,,,,,,,,,,,,,,
,,,,,659597ab573ada5debc6a899,6682b41eeb79ab8215dff63d,6682ba08572353c5e4e4ec9b,34,Female ,English ,2024-07-01_07h19.47.851,ABmemTask3,2023.2.3,Win32,29.85074627,,,,,,,,,,,,,,,,,,,,,,,,,,,,,,,608.3555,609.3523,609.3526,4,609.8412,610.9369,0.0059,611.0772,0.1461,0.1389,0.1337,0.1383,0.1405,0.1271,0.1311,0.1353,,,,611.0774,611.8647,right,0.7454,,611.8651,612.9626,left,1.0437,,0,0,10,612.9626,613.9516,,,,,,1_AB,L1_T1P_T2A,1,1,0,4,5,3,4,9,blueberry,Did you see the blueberry,0.12,0,resources/,pics/sealion.jpg,pics/piggybank.jpg,pics/sink.jpg,pics/blueberry01.jpg,pics/onion.jpg,pics/sailboat.jpg,pics/seaturtle.jpg,pics/hen.jpg,pics/fanblades.jpg,blankImage,blankImage,blankImage,blankImage,blankImage,blankImage,blankImage,blankImage,blueberry01,35,,,,,,,,,,,,,,,,,,,,,,,,,,,,,,,,,,,,,,,,,0,4,4,34,1,,,,,,,,,,,,,,,,,,,,,,,,,,,,,,,,,,,,,,,,,,,,,,,,,,,,,,,
,,,,,659597ab573ada5debc6a899,6682b41eeb79ab8215dff63d,6682ba08572353c5e4e4ec9b,34,Female ,English ,2024-07-01_07h19.47.851,ABmemTask3,2023.2.3,Win32,29.85074627,,,,,,,,,,,,,,,,,,,,,,,,,,,,,,,613.9835,614.9855,614.9856,4,615.4823,616.9562,0.0033,617.1123,0.1545,0.1745,0.1577,0.1636,0.163,0.1601,0.1661,0.1615,0.17,,,617.113,617.8325,right,0.6719,,617.8326,618.319,left,0.4314,,2,0,12,618.3191,619.306,,,,,,1_AB,L1_T1P_T2A,1,1,0,6,7,5,3,10,Duct tape,Did you see the Duct tape,0.12,0,resources/,pics/butterfly.jpg,pics/noparkingsign.jpg,pics/pictureframe04.jpg,pics/cork02.jpg,pics/fanblades.jpg,pics/ducttape.jpg,pics/icecube01.jpg,pics/siamesecat.jpg,pics/sink.jpg,pics/sandbarshark.jpg,blankImage,blankImage,blankImage,blankImage,blankImage,blankImage,blankImage,ducttape,36,,,,,,,,,,,,,,,,,,,,,,,,,,,,,,,,,,,,,,,,,0,5,5,35,1,,,,,,,,,,,,,,,,,,,,,,,,,,,,,,,,,,,,,,,,,,,,,,,,,,,,,,,
,,,,,659597ab573ada5debc6a899,6682b41eeb79ab8215dff63d,6682ba08572353c5e4e4ec9b,34,Female ,English ,2024-07-01_07h19.47.851,ABmemTask3,2023.2.3,Win32,29.85074627,,,,,,,,,,,,,,,,,,,,,,,,,,,,,,,619.3092,620.2875,620.2881,4,620.7823,623.0382,0.007,623.1583,0.1541,0.1617,0.1564,0.1574,0.1588,0.1559,0.1643,0.165,0.1337,0.1462,0.1946,623.1588,623.7145,right,0.4998,,623.7147,624.0845,right,0.3364,,4,0,14,624.0845,625.0763,,,,,,1_AB,L5_T1P_T2P,5,1,1,6,11,5,4,15,toast,Did you see the toast,0.12,0,resources/,pics/piggybank.jpg,pics/leaf02a.jpg,pics/carrot01.jpg,pics/birdhouse.jpg,pics/bowlingpin.jpg,pics/toast.jpg,pics/spiderweb.jpg,pics/cork02.jpg,pics/sink.jpg,pics/nutcracker01.jpg,pics/stapler02.jpg,pics/ashtray01.jpg,pics/fanblades.jpg,pics/pencil01.jpg,pics/lightswitch01.jpg,blankImage,blankImage,toast,46,0.1517,0.1848,0.1644,,,,,,,,,,,,,,,,,,,,,,,,,,,,,,,,,,,,,,0,6,6,45,1,,,,,,,,,,,,,,,,,,,,,,,,,,,,,,,,,,,,,,,,,,,,,,,,,,,,,,,
,,,,,659597ab573ada5debc6a899,6682b41eeb79ab8215dff63d,6682ba08572353c5e4e4ec9b,34,Female ,English ,2024-07-01_07h19.47.851,ABmemTask3,2023.2.3,Win32,29.85074627,,,,,,,,,,,,,,,,,,,,,,,,,,,,,,,625.0785,626.0842,626.0843,4,626.5582,628.2189,0.0065,628.3897,0.1348,0.1323,0.1357,0.1341,0.1315,0.1379,0.128,0.1436,0.139,0.136,0.1661,628.3898,629.2851,left,0.857,,629.2854,630.8786,right,1.5456,,6,0,16,630.8793,631.857,,,,,,1_AB,L1_T1A_T2P,1,0,1,7,8,6,5,13,Basketball,Did you see the Basketball,0.12,0,resources/,pics/cork02.jpg,pics/table01.jpg,pics/christmaslights.jpg,pics/nutcracker01.jpg,pics/golfball.jpg,pics/hammerheadshark.jpg,pics/seaturtle.jpg,pics/stapler04b.jpg,pics/lock03a.jpg,pics/snowshoe.jpg,pics/sewingmachine01a.jpg,pics/peach01.jpg,pics/hose.jpg,blankImage,blankImage,blankImage,blankImage,basketball01,24,0.1368,,,,,,,,,,,,,,,,,,,,,,,,,,,,,,,,,,,,,,,,0,7,7,23,1,,,,,,,,,,,,,,,,,,,,,,,,,,,,,,,,,,,,,,,,,,,,,,,,,,,,,,,
,,,,,659597ab573ada5debc6a899,6682b41eeb79ab8215dff63d,6682ba08572353c5e4e4ec9b,34,Female ,English ,2024-07-01_07h19.47.851,ABmemTask3,2023.2.3,Win32,29.85074627,,,,,,,,,,,,,,,,,,,,,,,,,,,,,,,631.8789,632.8839,632.8842,4,633.3823,634.6711,0.0063,634.8336,0.1545,0.1472,0.1435,0.1556,0.1294,0.133,0.1335,0.1411,0.1461,,,634.8343,635.6993,left,0.8021,,635.6997,636.6891,right,0.9422,,8,0,18,636.6896,637.6809,,,,,,1_AB,L1_T1A_T2P,1,0,1,5,6,4,4,10,button,Did you see the button,0.12,0,resources/,pics/pencil01.jpg,pics/necklace.jpg,pics/sink.jpg,pics/noparkingsign.jpg,pics/banjo.jpg,pics/stapler03b.jpg,pics/candle01.jpg,pics/icecube01.jpg,pics/shovel01.jpg,pics/pencilsharpener02a.jpg,blankImage,blankImage,blankImage,blankImage,blankImage,blankImage,blankImage,button01,25,,,,,,,,,,,,,,,,,,,,,,,,,,,,,,,,,,,,,,,,,0,8,8,24,1,,,,,,,,,,,,,,,,,,,,,,,,,,,,,,,,,,,,,,,,,,,,,,,,,,,,,,,
,,,,,659597ab573ada5debc6a899,6682b41eeb79ab8215dff63d,6682ba08572353c5e4e4ec9b,34,Female ,English ,2024-07-01_07h19.47.851,ABmemTask3,2023.2.3,Win32,29.85074627,,,,,,,,,,,,,,,,,,,,,,,,,,,,,,,637.6844,638.6828,638.6832,4,639.1637,640.5979,0.0033,640.7302,0.1384,0.1428,0.1338,0.1437,0.1451,0.1376,0.1567,0.1425,0.1476,0.1438,,640.7306,641.576,right,0.7957,,641.5764,641.9817,left,0.3546,,8,0,20,641.9821,642.9783,,,,,,1_AB,L1_T1P_T2P,1,1,1,7,8,6,3,11,Eiffel tower,Did you see the Eiffel tower,0.12,0,resources/,pics/seagull.jpg,pics/cymbal.jpg,pics/match.jpg,pics/binoculars01b.jpg,pics/ball02.jpg,pics/onion.jpg,pics/eiffeltower.jpg,pics/stapler11.jpg,pics/peach01.jpg,pics/sandbarshark.jpg,pics/boot02b.jpg,blankImage,blankImage,blankImage,blankImage,blankImage,blankImage,eiffeltower,1,,,,,,,,,,,,,,,,,,,,,,,,,,,,,,,,,,,,,,,,,0,9,9,0,1,,,,,,,,,,,,,,,,,,,,,,,,,,,,,,,,,,,,,,,,,,,,,,,,,,,,,,,
,,,,,659597ab573ada5debc6a899,6682b41eeb79ab8215dff63d,6682ba08572353c5e4e4ec9b,34,Female ,English ,2024-07-01_07h19.47.851,ABmemTask3,2023.2.3,Win32,29.85074627,,,,,,,,,,,,,,,,,,,,,,,,,,,,,,,642.9825,643.9844,643.9847,4,644.5027,646.3494,0.0033,646.4784,0.1427,0.152,0.1423,0.1425,0.1281,0.1329,0.1424,0.1516,0.1466,0.145,0.1583,646.4789,647.3212,left,0.7929,,647.3215,648.1498,right,0.7709,,10,0,22,648.1502,649.1445,,,,,,1_AB,L5_T1A_T2P,5,0,1,4,9,3,5,14,lemon,Did you see the lemon,0.12,0,resources/,pics/seaturtle.jpg,pics/lightswitch01.jpg,pics/candle01.jpg,pics/cannon.jpg,pics/seagull.jpg,pics/spoon01.jpg,pics/spiderweb.jpg,pics/sewingmachine01a.jpg,pics/stapler05.jpg,pics/binoculars01b.jpg,pics/zebra.jpg,pics/sealion.jpg,pics/shovel01.jpg,pics/wheel01.jpg,blankImage,blankImage,blankImage,lemon02,56,0.1247,0.136,,,,,,,,,,,,,,,,,,,,,,,,,,,,,,,,,,,,,,,0,10,10,55,1,,,,,,,,,,,,,,,,,,,,,,,,,,,,,,,,,,,,,,,,,,,,,,,,,,,,,,,
,,,,,659597ab573ada5debc6a899,6682b41eeb79ab8215dff63d,6682ba08572353c5e4e4ec9b,34,Female ,English ,2024-07-01_07h19.47.851,ABmemTask3,2023.2.3,Win32,29.85074627,,,,,,,,,,,,,,,,,,,,,,,,,,,,,,,649.1478,650.1652,650.1653,4,650.6444,652.1933,0.0024,652.3258,0.1288,0.1477,0.1479,0.1497,0.1444,0.1332,0.1321,0.1396,0.1374,0.1398,0.1471,652.3262,653.3216,left,0.9513,,653.3216,653.8582,right,0.5027,,10,0,24,653.8585,654.8396,,,,,,1_AB,L1_T1P_T2P,1,1,1,7,8,6,4,12,hammer,Did you see the hammer,0.12,0,resources/,pics/microscope.jpg,pics/blender.jpg,pics/dustpan.jpg,pics/snowshoe.jpg,pics/mummy.jpg,pics/bowtie.jpg,pics/hammer01.jpg,pics/stapler04b.jpg,pics/seaturtle.jpg,pics/candle01.jpg,pics/necklace.jpg,pics/cannon.jpg,blankImage,blankImage,blankImage,blankImage,blankImage,hammer01,21,,,,,,,,,,,,,,,,,,,,,,,,,,,,,,,,,,,,,,,,,0,11,11,20,1,,,,,,,,,,,,,,,,,,,,,,,,,,,,,,,,,,,,,,,,,,,,,,,,,,,,,,,
,,,,,659597ab573ada5debc6a899,6682b41eeb79ab8215dff63d,6682ba08572353c5e4e4ec9b,34,Female ,English ,2024-07-01_07h19.47.851,ABmemTask3,2023.2.3,Win32,29.85074627,,,,,,,,,,,,,,,,,,,,,,,,,,,,,,,654.842,655.8582,655.8586,4,656.3704,657.7608,0.0066,657.8934,0.1398,0.1584,0.1339,0.1552,0.128,0.1293,0.146,0.1352,0.1265,0.1329,,657.8937,659.3098,left,1.3561,,659.3103,661.0938,right,1.7392,,10,0,26,661.0939,662.0867,,,,,,1_AB,L1_T1P_T2P,1,1,1,7,8,6,3,11,medal,Did you see the medal,0.12,0,resources/,pics/hen.jpg,pics/starfish01.jpg,pics/nutcracker01.jpg,pics/ball02.jpg,pics/fanblades.jpg,pics/christmaslights.jpg,pics/medal02b.jpg,pics/stapler09.jpg,pics/carrot01.jpg,pics/hammerheadshark.jpg,pics/sailboat.jpg,blankImage,blankImage,blankImage,blankImage,blankImage,blankImage,medal02b,19,,,,,,,,,,,,,,,,,,,,,,,,,,,,,,,,,,,,,,,,,0,12,12,18,1,,,,,,,,,,,,,,,,,,,,,,,,,,,,,,,,,,,,,,,,,,,,,,,,,,,,,,,
,,,,,659597ab573ada5debc6a899,6682b41eeb79ab8215dff63d,6682ba08572353c5e4e4ec9b,34,Female ,English ,2024-07-01_07h19.47.851,ABmemTask3,2023.2.3,Win32,29.85074627,,,,,,,,,,,,,,,,,,,,,,,,,,,,,,,662.1064,663.1016,663.1022,4,663.5819,664.6561,0.0074,664.8037,0.1391,0.1318,0.1409,0.1262,0.1355,0.1314,0.1338,0.1306,,,,664.8038,665.5763,right,0.7328,,665.5764,665.9929,right,0.3744,,12,0,28,665.9933,666.9645,,,,,,1_AB,L1_T1P_T2P,1,1,1,5,6,4,3,9,Ant,Did you see the Ant,0.12,0,resources/,pics/kangaroo.jpg,pics/giraffe.jpg,pics/footballhelmet.jpg,pics/onion.jpg,pics/ant.jpg,pics/stapler04b.jpg,pics/banjo.jpg,pics/zebra.jpg,pics/dromedary.jpg,blankImage,blankImage,blankImage,blankImage,blankImage,blankImage,blankImage,blankImage,ant,15,,,,,,,,,,,,,,,,,,,,,,,,,,,,,,,,,,,,,,,,,0,13,13,14,1,,,,,,,,,,,,,,,,,,,,,,,,,,,,,,,,,,,,,,,,,,,,,,,,,,,,,,,
,,,,,659597ab573ada5debc6a899,6682b41eeb79ab8215dff63d,6682ba08572353c5e4e4ec9b,34,Female ,English ,2024-07-01_07h19.47.851,ABmemTask3,2023.2.3,Win32,29.85074627,,,,,,,,,,,,,,,,,,,,,,,,,,,,,,,666.9673,667.9606,667.9607,4,668.4369,669.64,0.0058,669.769,0.1294,0.139,0.1242,0.1403,0.1335,0.133,0.1346,0.1311,0.1338,,,669.7695,670.5319,right,0.7169,,670.5319,670.9194,left,0.3534,,12,0,30,670.9197,671.944,,,,,,1_AB,L1_T1P_T2P,1,1,1,4,5,3,5,10,flute,Did you see the flute,0.12,0,resources/,pics/peach01.jpg,pics/seaturtle.jpg,pics/dromedary.jpg,pics/recorder01.jpg,pics/stapler08.jpg,pics/giraffe.jpg,pics/blender.jpg,pics/necklace.jpg,pics/sink.jpg,pics/dustpan.jpg,blankImage,blankImage,blankImage,blankImage,blankImage,blankImage,blankImage,recorder01,7,,,,,,,,,,,,,,,,,,,,,,,,,,,,,,,,,,,,,,,,,0,14,14,6,1,,,,,,,,,,,,,,,,,,,,,,,,,,,,,,,,,,,,,,,,,,,,,,,,,,,,,,,
,,,,,659597ab573ada5debc6a899,6682b41eeb79ab8215dff63d,6682ba08572353c5e4e4ec9b,34,Female ,English ,2024-07-01_07h19.47.851,ABmemTask3,2023.2.3,Win32,29.85074627,,,,,,,,,,,,,,,,,,,,,,,,,,,,,,,671.9447,672.9364,672.9364,4,673.4058,675.297,0.0026,675.4519,0.1334,0.1504,0.1458,0.1334,0.136,0.1512,0.1509,0.1457,0.1434,0.1287,0.1379,675.4521,675.9677,right,0.4756,,675.9679,676.3663,right,0.3663,,14,0,32,676.3664,677.3387,,,,,,1_AB,L5_T1P_T2P,5,1,1,5,10,4,4,14,Fox,Did you see the Fox,0.12,0,resources/,pics/hammerheadshark.jpg,pics/bowlingpin.jpg,pics/pictureframe04.jpg,pics/peanut01.jpg,pics/redfox.jpg,pics/cymbal.jpg,pics/spoon01.jpg,pics/banjo.jpg,pics/butterfly.jpg,pics/stapler11.jpg,pics/football.jpg,pics/safetypin.jpg,pics/triangle.jpg,pics/onion.jpg,blankImage,blankImage,blankImage,redfox,45,0.16,0.1718,,,,,,,,,,,,,,,,,,,,,,,,,,,,,,,,,,,,,,,0,15,15,44,1,,,,,,,,,,,,,,,,,,,,,,,,,,,,,,,,,,,,,,,,,,,,,,,,,,,,,,,
,,,,,659597ab573ada5debc6a899,6682b41eeb79ab8215dff63d,6682ba08572353c5e4e4ec9b,34,Female ,English ,2024-07-01_07h19.47.851,ABmemTask3,2023.2.3,Win32,29.85074627,,,,,,,,,,,,,,,,,,,,,,,,,,,,,,,677.3395,678.3463,678.3467,4,678.8312,680.0743,0.006,680.1984,0.1323,0.1349,0.132,0.1356,0.1319,0.1354,0.1509,0.1333,0.1511,,,680.1989,680.9675,right,0.7228,,680.9678,682.0476,left,1.037,,16,0,34,682.0477,683.0647,,,,,,1_AB,L1_T1P_T2A,1,1,0,6,7,5,3,10,Electric toothbrush,Did you see the Electric toothbrush,0.12,0,resources/,pics/football.jpg,pics/sailboat.jpg,pics/cymbal.jpg,pics/hen.jpg,pics/pencil01.jpg,pics/electrictoothbrush01c.jpg,pics/bowlingpin.jpg,pics/wheel01.jpg,pics/birdhouse.jpg,pics/leaf02a.jpg,blankImage,blankImage,blankImage,blankImage,blankImage,blankImage,blankImage,electrictoothbrush01c,34,,,,,,,,,,,,,,,,,,,,,,,,,,,,,,,,,,,,,,,,,0,16,16,33,1,,,,,,,,,,,,,,,,,,,,,,,,,,,,,,,,,,,,,,,,,,,,,,,,,,,,,,,
,,,,,659597ab573ada5debc6a899,6682b41eeb79ab8215dff63d,6682ba08572353c5e4e4ec9b,34,Female ,English ,2024-07-01_07h19.47.851,ABmemTask3,2023.2.3,Win32,29.85074627,,,,,,,,,,,,,,,,,,,,,,,,,,,,,,,683.0819,684.0931,684.0933,4,684.5955,685.9489,0.0051,686.0903,0.1414,0.1253,0.1412,0.1261,0.1312,0.1444,0.1252,0.1361,0.1321,0.1464,,686.0904,686.9769,left,0.8518,,686.9769,687.7242,right,0.7135,,14,0,36,687.7247,688.7241,,,,,,1_AB,L1_T1A_T2A,1,0,0,7,8,6,3,11,Poker chips,Did you see the Poker chips,0.12,0,resources/,pics/candle01.jpg,pics/proboscismonkey.jpg,pics/fanblades.jpg,pics/dromedary.jpg,pics/aquarium.jpg,pics/salmon.jpg,pics/hose.jpg,pics/kangaroo.jpg,pics/noparkingsign.jpg,pics/carrot01.jpg,pics/leaf02a.jpg,blankImage,blankImage,blankImage,blankImage,blankImage,blankImage,pokerchips,41,,,,,,,,,,,,,,,,,,,,,,,,,,,,,,,,,,,,,,,,,0,17,17,40,1,,,,,,,,,,,,,,,,,,,,,,,,,,,,,,,,,,,,,,,,,,,,,,,,,,,,,,,
,,,,,659597ab573ada5debc6a899,6682b41eeb79ab8215dff63d,6682ba08572353c5e4e4ec9b,34,Female ,English ,2024-07-01_07h19.47.851,ABmemTask3,2023.2.3,Win32,29.85074627,,,,,,,,,,,,,,,,,,,,,,,,,,,,,,,688.7471,689.7259,689.7262,4,690.216,691.97,0.0073,692.0995,0.139,0.133,0.1359,0.1335,0.1359,0.1365,0.1303,0.1331,0.1339,0.1327,0.1339,692.0998,692.6161,right,0.47,,692.6165,693.052,right,0.3943,,16,0,38,693.052,694.0613,,,,,,1_AB,L5_T1P_T2P,5,1,1,4,9,3,5,14,pliers,Did you see the pliers,0.12,0,resources/,pics/calendar.jpg,pics/footballhelmet.jpg,pics/seaturtle.jpg,pics/pliers02b.jpg,pics/wheel01.jpg,pics/cannon.jpg,pics/proboscismonkey.jpg,pics/shovel01.jpg,pics/stapler06.jpg,pics/football.jpg,pics/hose.jpg,pics/dustpan.jpg,pics/spiderweb.jpg,pics/golfball.jpg,blankImage,blankImage,blankImage,pliers02b,48,0.1348,0.1351,,,,,,,,,,,,,,,,,,,,,,,,,,,,,,,,,,,,,,,0,18,18,47,1,,,,,,,,,,,,,,,,,,,,,,,,,,,,,,,,,,,,,,,,,,,,,,,,,,,,,,,
,,,,,659597ab573ada5debc6a899,6682b41eeb79ab8215dff63d,6682ba08572353c5e4e4ec9b,34,Female ,English ,2024-07-01_07h19.47.851,ABmemTask3,2023.2.3,Win32,29.85074627,,,,,,,,,,,,,,,,,,,,,,,,,,,,,,,694.062,695.0634,695.0637,4,695.5487,696.6657,0.006,696.7924,0.1374,0.1336,0.1497,0.1222,0.1463,0.149,0.1235,0.1496,,,,696.7928,697.4738,right,0.6346,,697.4743,698.4513,left,0.9269,,16,0,40,698.4518,699.4531,,,,,,1_AB,L1_T1P_T2P,1,1,1,5,6,4,3,9,paint brush,Did you see the paint brush,0.12,0,resources/,pics/nutcracker01.jpg,pics/piggybank.jpg,pics/spiderweb.jpg,pics/table01.jpg,pics/paintbrush01.jpg,pics/stapler09.jpg,pics/hose.jpg,pics/cannon.jpg,pics/mummy.jpg,blankImage,blankImage,blankImage,blankImage,blankImage,blankImage,blankImage,blankImage,paintbrush01,20,,,,,,,,,,,,,,,,,,,,,,,,,,,,,,,,,,,,,,,,,0,19,19,19,1,,,,,,,,,,,,,,,,,,,,,,,,,,,,,,,,,,,,,,,,,,,,,,,,,,,,,,,
,,,,,659597ab573ada5debc6a899,6682b41eeb79ab8215dff63d,6682ba08572353c5e4e4ec9b,34,Female ,English ,2024-07-01_07h19.47.851,ABmemTask3,2023.2.3,Win32,29.85074627,,,,,,,,,,,,,,,,,,,,,,,,,,,,,,,699.475,700.4965,700.4965,4,700.9789,702.3422,0.0083,702.4749,0.1363,0.1335,0.1431,0.1356,0.1395,0.1331,0.1337,0.14,0.129,0.1326,,702.4751,703.5574,left,1.0342,,703.5575,704.3354,right,0.7462,,18,0,42,704.3355,705.3156,,,,,,1_AB,L1_T1A_T2P,1,0,1,5,6,4,5,11,Recorder,Did you see the Recorder,0.12,0,resources/,pics/bowtie.jpg,pics/nutcracker01.jpg,pics/hairdryer02a.jpg,pics/shovel01.jpg,pics/onion.jpg,pics/stapler13.jpg,pics/safetypin.jpg,pics/spiderweb.jpg,pics/seagull.jpg,pics/dustpan.jpg,pics/icecube01.jpg,blankImage,blankImage,blankImage,blankImage,blankImage,blankImage,recorder04,28,,,,,,,,,,,,,,,,,,,,,,,,,,,,,,,,,,,,,,,,,0,20,20,27,1,,,,,,,,,,,,,,,,,,,,,,,,,,,,,,,,,,,,,,,,,,,,,,,,,,,,,,,
,,,,,659597ab573ada5debc6a899,6682b41eeb79ab8215dff63d,6682ba08572353c5e4e4ec9b,34,Female ,English ,2024-07-01_07h19.47.851,ABmemTask3,2023.2.3,Win32,29.85074627,,,,,,,,,,,,,,,,,,,,,,,,,,,,,,,705.3377,706.3358,706.336,4,706.8412,707.9408,0.005,708.082,0.1523,0.1267,0.1359,0.1441,0.1341,0.1426,0.1276,0.1328,,,,708.0821,708.8549,right,0.7356,,708.8552,709.5202,left,0.6195,,18,0,44,709.5202,710.5155,,,,,,1_AB,L1_T1P_T2P,1,1,1,5,6,4,3,9,cabbage,Did you see the cabbage,0.12,0,resources/,pics/match.jpg,pics/icecube01.jpg,pics/noparkingsign.jpg,pics/christmaslights.jpg,pics/cabbage.jpg,pics/stapler03a.jpg,pics/carrot01.jpg,pics/dustpan.jpg,pics/cannon.jpg,blankImage,blankImage,blankImage,blankImage,blankImage,blankImage,blankImage,blankImage,cabbage,14,,,,,,,,,,,,,,,,,,,,,,,,,,,,,,,,,,,,,,,,,0,21,21,13,1,,,,,,,,,,,,,,,,,,,,,,,,,,,,,,,,,,,,,,,,,,,,,,,,,,,,,,,
,,,,,659597ab573ada5debc6a899,6682b41eeb79ab8215dff63d,6682ba08572353c5e4e4ec9b,34,Female ,English ,2024-07-01_07h19.47.851,ABmemTask3,2023.2.3,Win32,29.85074627,,,,,,,,,,,,,,,,,,,,,,,,,,,,,,,710.5162,711.523,711.523,4,712.0284,713.3404,0.0037,713.4712,0.1305,0.148,0.1529,0.1614,0.1799,0.126,0.1496,0.1241,0.1368,,,713.4716,714.1143,right,0.5985,,714.1144,715.0171,right,0.8725,,20,0,46,715.0172,715.9943,,,,,,1_AB,L1_T1P_T2P,1,1,1,4,5,3,5,10,vacuum,Did you see the vacuum,0.12,0,resources/,pics/birdhouse.jpg,pics/floortile02.jpg,pics/toiletpaper01a.jpg,pics/vacuumcleaner01.jpg,pics/stapler02.jpg,pics/spoon01.jpg,pics/banjo.jpg,pics/binder03b.jpg,pics/leaf02a.jpg,pics/aquarium.jpg,blankImage,blankImage,blankImage,blankImage,blankImage,blankImage,blankImage,vacuumcleaner01,5,,,,,,,,,,,,,,,,,,,,,,,,,,,,,,,,,,,,,,,,,0,22,22,4,1,,,,,,,,,,,,,,,,,,,,,,,,,,,,,,,,,,,,,,,,,,,,,,,,,,,,,,,
,,,,,659597ab573ada5debc6a899,6682b41eeb79ab8215dff63d,6682ba08572353c5e4e4ec9b,34,Female ,English ,2024-07-01_07h19.47.851,ABmemTask3,2023.2.3,Win32,29.85074627,,,,,,,,,,,,,,,,,,,,,,,,,,,,,,,715.9951,716.9767,716.9768,4,717.4689,718.8249,0.002,718.9457,0.1301,0.1374,0.1402,0.1472,0.1268,0.1323,0.1339,0.1335,0.1331,0.1396,,718.946,719.6914,right,0.6901,,719.6917,720.4459,left,0.7102,,22,0,48,720.4464,721.4206,,,,,,1_AB,L1_T1P_T2A,1,1,0,7,8,6,3,11,Spear,Did you see the Spear,0.12,0,resources/,pics/butterfly.jpg,pics/banjo.jpg,pics/chainsaw.jpg,pics/christmaslights.jpg,pics/dustpan.jpg,pics/shovel01.jpg,pics/spear02.jpg,pics/table01.jpg,pics/starfish01.jpg,pics/bowlingpin.jpg,pics/carrot01.jpg,blankImage,blankImage,blankImage,blankImage,blankImage,blankImage,spear02,39,,,,,,,,,,,,,,,,,,,,,,,,,,,,,,,,,,,,,,,,,0,23,23,38,1,,,,,,,,,,,,,,,,,,,,,,,,,,,,,,,,,,,,,,,,,,,,,,,,,,,,,,,
,,,,,659597ab573ada5debc6a899,6682b41eeb79ab8215dff63d,6682ba08572353c5e4e4ec9b,34,Female ,English ,2024-07-01_07h19.47.851,ABmemTask3,2023.2.3,Win32,29.85074627,,,,,,,,,,,,,,,,,,,,,,,,,,,,,,,721.444,722.4539,722.4543,4,722.9468,724.3012,0.0049,724.4335,0.14,0.1261,0.134,0.1331,0.1328,0.1555,0.1275,0.136,0.1332,0.1325,,724.4339,725.1573,right,0.6779,,725.1577,725.6278,right,0.4189,,24,0,50,725.6279,726.597,,,,,,1_AB,L1_T1P_T2P,1,1,1,7,8,6,3,11,toothpick,Did you see the toothpick,0.12,0,resources/,pics/candleholder01.jpg,pics/blender.jpg,pics/siamesecat.jpg,pics/peanut01.jpg,pics/spiderweb.jpg,pics/football.jpg,pics/toothpick02.jpg,pics/stapler04b.jpg,pics/seagull.jpg,pics/pictureframe04.jpg,pics/shipinabottle.jpg,blankImage,blankImage,blankImage,blankImage,blankImage,blankImage,toothpick02,17,,,,,,,,,,,,,,,,,,,,,,,,,,,,,,,,,,,,,,,,,0,24,24,16,1,,,,,,,,,,,,,,,,,,,,,,,,,,,,,,,,,,,,,,,,,,,,,,,,,,,,,,,
,,,,,659597ab573ada5debc6a899,6682b41eeb79ab8215dff63d,6682ba08572353c5e4e4ec9b,34,Female ,English ,2024-07-01_07h19.47.851,ABmemTask3,2023.2.3,Win32,29.85074627,,,,,,,,,,,,,,,,,,,,,,,,,,,,,,,726.5998,727.6147,727.615,4,728.1004,729.0527,0.0038,729.1784,0.1225,0.1371,0.1521,0.1223,0.1375,0.1367,0.1401,,,,,729.1788,729.9883,right,0.7674,,729.9885,730.6785,right,0.6511,,26,0,52,730.6786,731.6657,,,,,,1_AB,L1_T1P_T2P,1,1,1,4,5,3,3,8,Recycling bin,Did you see the Recycling bin,0.12,0,resources/,pics/microscope.jpg,pics/dustpan.jpg,pics/seagull.jpg,pics/recyclingbin.jpg,pics/stapler06.jpg,pics/bowtie.jpg,pics/dromedary.jpg,pics/salmon.jpg,blankImage,blankImage,blankImage,blankImage,blankImage,blankImage,blankImage,blankImage,blankImage,recyclingbin,16,,,,,,,,,,,,,,,,,,,,,,,,,,,,,,,,,,,,,,,,,0,25,25,15,1,,,,,,,,,,,,,,,,,,,,,,,,,,,,,,,,,,,,,,,,,,,,,,,,,,,,,,,
,,,,,659597ab573ada5debc6a899,6682b41eeb79ab8215dff63d,6682ba08572353c5e4e4ec9b,34,Female ,English ,2024-07-01_07h19.47.851,ABmemTask3,2023.2.3,Win32,29.85074627,,,,,,,,,,,,,,,,,,,,,,,,,,,,,,,731.689,732.6857,732.686,4,733.1642,734.5277,0.0041,734.6633,0.1327,0.1538,0.1385,0.1322,0.1325,0.1421,0.1339,0.1276,0.1344,0.1329,,734.6636,735.4343,right,0.7122,,735.4347,735.8627,right,0.3741,,28,0,54,735.8629,736.8528,,,,,,1_AB,L1_T1P_T2P,1,1,1,7,8,6,3,11,bird,Did you see the bird,0.12,0,resources/,pics/sealion.jpg,pics/backpack01a.jpg,pics/hose.jpg,pics/table01.jpg,pics/wheel01.jpg,pics/seaturtle.jpg,pics/americangoldfinch.jpg,pics/stapler08.jpg,pics/siamesecat.jpg,pics/hammerheadshark.jpg,pics/ashtray01.jpg,blankImage,blankImage,blankImage,blankImage,blankImage,blankImage,americangoldfinch,23,,,,,,,,,,,,,,,,,,,,,,,,,,,,,,,,,,,,,,,,,0,26,26,22,1,,,,,,,,,,,,,,,,,,,,,,,,,,,,,,,,,,,,,,,,,,,,,,,,,,,,,,,
,,,,,659597ab573ada5debc6a899,6682b41eeb79ab8215dff63d,6682ba08572353c5e4e4ec9b,34,Female ,English ,2024-07-01_07h19.47.851,ABmemTask3,2023.2.3,Win32,29.85074627,,,,,,,,,,,,,,,,,,,,,,,,,,,,,,,736.8561,737.8478,737.8481,4,738.3458,740.1465,0.0016,740.267,0.1258,0.1413,0.1619,0.1388,0.1474,0.1283,0.1321,0.1349,0.1375,0.1309,0.1321,740.2678,740.6951,right,0.3753,,740.6954,741.1037,right,0.3667,,30,0,56,741.1039,742.1088,,,,,,1_AB,L5_T1P_T2P,5,1,1,4,9,3,5,14,asparagus,Did you see the asparagus,0.12,0,resources/,pics/siamesecat.jpg,pics/starfish01.jpg,pics/aquarium.jpg,pics/asparagus.jpg,pics/salmon.jpg,pics/binoculars01b.jpg,pics/ball02.jpg,pics/calendar.jpg,pics/stapler10.jpg,pics/giraffe.jpg,pics/dromedary.jpg,pics/seaturtle.jpg,pics/sandbarshark.jpg,pics/shipinabottle.jpg,blankImage,blankImage,blankImage,asparagus,44,0.1441,0.144,,,,,,,,,,,,,,,,,,,,,,,,,,,,,,,,,,,,,,,0,27,27,43,1,,,,,,,,,,,,,,,,,,,,,,,,,,,,,,,,,,,,,,,,,,,,,,,,,,,,,,,
,,,,,659597ab573ada5debc6a899,6682b41eeb79ab8215dff63d,6682ba08572353c5e4e4ec9b,34,Female ,English ,2024-07-01_07h19.47.851,ABmemTask3,2023.2.3,Win32,29.85074627,,,,,,,,,,,,,,,,,,,,,,,,,,,,,,,742.1115,743.1264,743.1264,4,743.6426,745.1551,0.0025,745.2871,0.1236,0.135,0.1432,0.1488,0.1608,0.1231,0.1352,0.14,0.1328,0.1417,0.1269,745.2875,746.213,left,0.8806,,746.2133,747.2294,right,0.9613,,32,0,58,747.2298,748.2548,,,,,,1_AB,L5_T1A_T2P,5,0,1,4,9,3,3,12,rooster,Did you see the rooster,0.12,0,resources/,pics/table01.jpg,pics/icecube01.jpg,pics/dustpan.jpg,pics/lock03a.jpg,pics/sailboat.jpg,pics/salmon.jpg,pics/banjo.jpg,pics/zebra.jpg,pics/stapler09.jpg,pics/peach01.jpg,pics/chainsaw.jpg,pics/football.jpg,blankImage,blankImage,blankImage,blankImage,blankImage,rooster,55,,,,,,,,,,,,,,,,,,,,,,,,,,,,,,,,,,,,,,,,,0,28,28,54,1,,,,,,,,,,,,,,,,,,,,,,,,,,,,,,,,,,,,,,,,,,,,,,,,,,,,,,,
,,,,,659597ab573ada5debc6a899,6682b41eeb79ab8215dff63d,6682ba08572353c5e4e4ec9b,34,Female ,English ,2024-07-01_07h19.47.851,ABmemTask3,2023.2.3,Win32,29.85074627,,,,,,,,,,,,,,,,,,,,,,,,,,,,,,,748.2799,749.2664,749.2668,4,749.7626,751.2529,0.0075,751.3949,0.1287,0.1608,0.1292,0.1316,0.1454,0.122,0.1329,0.1349,0.1336,0.1309,0.1335,751.395,751.9782,right,0.5436,,751.9793,752.3969,right,0.3676,,34,0,60,752.3969,753.3738,,,,,,1_AB,L1_T1P_T2P,1,1,1,6,7,5,5,12,rope,Did you see the rope,0.12,0,resources/,pics/toiletpaper01a.jpg,pics/sewingmachine01a.jpg,pics/birdhouse.jpg,pics/sealion.jpg,pics/safetypin.jpg,pics/rope03.jpg,pics/stapler04.jpg,pics/binder03b.jpg,pics/ashtray01.jpg,pics/sandbarshark.jpg,pics/chainsaw.jpg,pics/nutcracker01.jpg,blankImage,blankImage,blankImage,blankImage,blankImage,rope03,4,,,,,,,,,,,,,,,,,,,,,,,,,,,,,,,,,,,,,,,,,0,29,29,3,1,,,,,,,,,,,,,,,,,,,,,,,,,,,,,,,,,,,,,,,,,,,,,,,,,,,,,,,
,,,,,659597ab573ada5debc6a899,6682b41eeb79ab8215dff63d,6682ba08572353c5e4e4ec9b,34,Female ,English ,2024-07-01_07h19.47.851,ABmemTask3,2023.2.3,Win32,29.85074627,,,,,,,,,,,,,,,,,,,,,,,,,,,,,,,753.3762,754.3846,754.3848,4,754.8669,756.4682,0.0061,756.6102,0.1742,0.1446,0.1743,0.1449,0.1483,0.1579,0.1623,0.1469,0.1594,0.1824,,756.6108,757.5162,left,0.8486,,757.5166,758.1186,right,0.5498,,36,0,62,758.1189,759.1121,,,,,,1_AB,L1_T1A_T2P,1,0,1,7,8,6,3,11,turkey,Did you see the turkey,0.12,0,resources/,pics/proboscismonkey.jpg,pics/blender.jpg,pics/sealion.jpg,pics/snowshoe.jpg,pics/carrot01.jpg,pics/microscope.jpg,pics/piggybank.jpg,pics/stapler12.jpg,pics/peanut01.jpg,pics/dustpan.jpg,pics/footballhelmet.jpg,blankImage,blankImage,blankImage,blankImage,blankImage,blankImage,turkey,26,,,,,,,,,,,,,,,,,,,,,,,,,,,,,,,,,,,,,,,,,0,30,30,25,1,,,,,,,,,,,,,,,,,,,,,,,,,,,,,,,,,,,,,,,,,,,,,,,,,,,,,,,
,,,,,659597ab573ada5debc6a899,6682b41eeb79ab8215dff63d,6682ba08572353c5e4e4ec9b,34,Female ,English ,2024-07-01_07h19.47.851,ABmemTask3,2023.2.3,Win32,29.85074627,,,,,,,,,,,,,,,,,,,,,,,,,,,,,,,759.1127,760.0865,760.0865,4,760.5997,761.8174,0.0036,761.9489,0.1472,0.1241,0.1512,0.1232,0.1348,0.1324,0.133,0.134,0.1355,,,761.9492,763.1752,left,1.1833,,763.1753,763.8437,right,0.6344,,38,0,64,763.8441,764.8649,,,,,,1_AB,L1_T1A_T2P,1,0,1,5,6,4,4,10,Rabbit,Did you see the Rabbit,0.12,0,resources/,pics/cannon.jpg,pics/proboscismonkey.jpg,pics/salmon.jpg,pics/nutcracker01.jpg,pics/seagull.jpg,pics/stapler02.jpg,pics/table01.jpg,pics/laptop01a.jpg,pics/necklace.jpg,pics/pencilsharpener02a.jpg,blankImage,blankImage,blankImage,blankImage,blankImage,blankImage,blankImage,jackrabbit,31,,,,,,,,,,,,,,,,,,,,,,,,,,,,,,,,,,,,,,,,,0,31,31,30,1,,,,,,,,,,,,,,,,,,,,,,,,,,,,,,,,,,,,,,,,,,,,,,,,,,,,,,,
,,,,,659597ab573ada5debc6a899,6682b41eeb79ab8215dff63d,6682ba08572353c5e4e4ec9b,34,Female ,English ,2024-07-01_07h19.47.851,ABmemTask3,2023.2.3,Win32,29.85074627,,,,,,,,,,,,,,,,,,,,,,,,,,,,,,,764.8865,765.8801,765.8806,4,766.3985,768.0201,0.0018,768.1442,0.1324,0.1349,0.1438,0.1302,0.1432,0.1277,0.136,0.1335,0.1328,0.133,0.1347,768.1445,768.6043,right,0.4129,,768.6047,769.0111,right,0.3546,,40,0,66,769.0112,770.0153,,,,,,1_AB,L5_T1P_T2P,5,1,1,4,9,3,4,13,Forklift,Did you see the Forklift,0.12,0,resources/,pics/dustpan.jpg,pics/table01.jpg,pics/sink.jpg,pics/forklift.jpg,pics/dromedary.jpg,pics/proboscismonkey.jpg,pics/cymbal.jpg,pics/shovel01.jpg,pics/stapler10.jpg,pics/backpack01a.jpg,pics/binder03b.jpg,pics/banjo.jpg,pics/candleholder01.jpg,blankImage,blankImage,blankImage,blankImage,forklift,47,0.1376,,,,,,,,,,,,,,,,,,,,,,,,,,,,,,,,,,,,,,,,0,32,32,46,1,,,,,,,,,,,,,,,,,,,,,,,,,,,,,,,,,,,,,,,,,,,,,,,,,,,,,,,
,,,,,659597ab573ada5debc6a899,6682b41eeb79ab8215dff63d,6682ba08572353c5e4e4ec9b,34,Female ,English ,2024-07-01_07h19.47.851,ABmemTask3,2023.2.3,Win32,29.85074627,,,,,,,,,,,,,,,,,,,,,,,,,,,,,,,770.016,770.992,770.992,4,771.4782,773.092,0.0034,773.2266,0.1346,0.1403,0.1343,0.1459,0.1262,0.1315,0.1342,0.133,0.1352,0.1322,0.1354,773.2269,774.084,left,0.815,,774.0842,774.5713,right,0.4558,,38,0,68,774.5714,775.5736,,,,,,1_AB,L1_T1A_T2A,1,0,0,7,8,6,5,13,fan,Did you see the fan,0.12,0,resources/,pics/leaf02a.jpg,pics/dustpan.jpg,pics/pencil01.jpg,pics/kangaroo.jpg,pics/golfball.jpg,pics/lightswitch01.jpg,pics/nutcracker01.jpg,pics/calendar.jpg,pics/hose.jpg,pics/starfish01.jpg,pics/siamesecat.jpg,pics/bowlingpin.jpg,pics/necklace.jpg,blankImage,blankImage,blankImage,blankImage,fan,42,0.129,,,,,,,,,,,,,,,,,,,,,,,,,,,,,,,,,,,,,,,,0,33,33,41,1,,,,,,,,,,,,,,,,,,,,,,,,,,,,,,,,,,,,,,,,,,,,,,,,,,,,,,,
,,,,,659597ab573ada5debc6a899,6682b41eeb79ab8215dff63d,6682ba08572353c5e4e4ec9b,34,Female ,English ,2024-07-01_07h19.47.851,ABmemTask3,2023.2.3,Win32,29.85074627,,,,,,,,,,,,,,,,,,,,,,,,,,,,,,,775.5772,776.5931,776.5932,4,777.0651,778.4073,0.0025,778.54,0.1239,0.1369,0.1387,0.1469,0.1267,0.133,0.1397,0.1231,0.1393,0.1332,,778.5404,779.3937,right,0.8104,,779.3938,779.7528,left,0.3315,,40,0,70,779.7528,780.7478,,,,,,1_AB,L1_T1P_T2A,1,1,0,7,8,6,3,11,eggplant,Did you see the eggplant,0.12,0,resources/,pics/salmon.jpg,pics/fanblades.jpg,pics/hammerheadshark.jpg,pics/wheel01.jpg,pics/snowshoe.jpg,pics/birdhouse.jpg,pics/eggplant.jpg,pics/spiderweb.jpg,pics/zebra.jpg,pics/pencilsharpener02a.jpg,pics/backpack01a.jpg,blankImage,blankImage,blankImage,blankImage,blankImage,blankImage,eggplant,32,,,,,,,,,,,,,,,,,,,,,,,,,,,,,,,,,,,,,,,,,0,34,34,31,1,,,,,,,,,,,,,,,,,,,,,,,,,,,,,,,,,,,,,,,,,,,,,,,,,,,,,,,
,,,,,659597ab573ada5debc6a899,6682b41eeb79ab8215dff63d,6682ba08572353c5e4e4ec9b,34,Female ,English ,2024-07-01_07h19.47.851,ABmemTask3,2023.2.3,Win32,29.85074627,,,,,,,,,,,,,,,,,,,,,,,,,,,,,,,780.7504,781.7521,781.7524,4,782.259,783.6304,0.0076,783.7785,0.1473,0.1402,0.134,0.133,0.13,0.142,0.1341,0.131,0.1515,0.1228,,783.7786,784.5355,right,0.7191,,784.5359,784.9194,right,0.3378,,42,0,72,784.9195,785.8876,,,,,,1_AB,L1_T1P_T2P,1,1,1,7,8,6,3,11,sock,Did you see the sock,0.12,0,resources/,pics/hen.jpg,pics/christmaslights.jpg,pics/salmon.jpg,pics/sealion.jpg,pics/seaturtle.jpg,pics/giraffe.jpg,pics/athleticsock.jpg,pics/stapler01.jpg,pics/shovel01.jpg,pics/leaf02a.jpg,pics/backpack01a.jpg,blankImage,blankImage,blankImage,blankImage,blankImage,blankImage,athleticsock,11,,,,,,,,,,,,,,,,,,,,,,,,,,,,,,,,,,,,,,,,,0,35,35,10,1,,,,,,,,,,,,,,,,,,,,,,,,,,,,,,,,,,,,,,,,,,,,,,,,,,,,,,,
,,,,,659597ab573ada5debc6a899,6682b41eeb79ab8215dff63d,6682ba08572353c5e4e4ec9b,34,Female ,English ,2024-07-01_07h19.47.851,ABmemTask3,2023.2.3,Win32,29.85074627,,,,,,,,,,,,,,,,,,,,,,,,,,,,,,,785.8901,786.8665,786.8665,4,787.3484,788.4834,0.0055,788.6144,0.1509,0.1519,0.1377,0.1469,0.1481,0.1261,0.1355,0.1336,,,,788.6147,789.3778,right,0.7195,,789.3778,789.8531,left,0.4409,,42,0,74,789.8534,790.831,,,,,,1_AB,L1_T1P_T2P,1,1,1,4,5,3,4,9,Chefs hat,Did you see the Chefs hat,0.12,0,resources/,pics/sewingmachine01a.jpg,pics/icecube01.jpg,pics/fanblades.jpg,pics/chefshat.jpg,pics/stapler06.jpg,pics/ashtray01.jpg,pics/blender.jpg,pics/sandbarshark.jpg,pics/lock03a.jpg,blankImage,blankImage,blankImage,blankImage,blankImage,blankImage,blankImage,blankImage,chefshat,12,,,,,,,,,,,,,,,,,,,,,,,,,,,,,,,,,,,,,,,,,0,36,36,11,1,,,,,,,,,,,,,,,,,,,,,,,,,,,,,,,,,,,,,,,,,,,,,,,,,,,,,,,
,,,,,659597ab573ada5debc6a899,6682b41eeb79ab8215dff63d,6682ba08572353c5e4e4ec9b,34,Female ,English ,2024-07-01_07h19.47.851,ABmemTask3,2023.2.3,Win32,29.85074627,,,,,,,,,,,,,,,,,,,,,,,,,,,,,,,790.8523,791.8553,791.8555,4,792.3524,794.3042,0.0074,794.4468,0.1359,0.133,0.1326,0.1403,0.1377,0.1594,0.1586,0.1381,0.1355,0.1322,0.1337,794.4472,795.2898,left,0.7968,,795.2898,795.9239,right,0.5965,,44,0,76,795.924,796.9237,,,,,,1_AB,L5_T1A_T2P,5,0,1,5,10,4,5,15,scorpion,Did you see the scorpion,0.12,0,resources/,pics/pictureframe04.jpg,pics/binder03b.jpg,pics/pencil01.jpg,pics/leaf02a.jpg,pics/icecube01.jpg,pics/dromedary.jpg,pics/toiletpaper01a.jpg,pics/peanut01.jpg,pics/golfball.jpg,pics/stapler03.jpg,pics/carrot01.jpg,pics/peach01.jpg,pics/sealion.jpg,pics/football.jpg,pics/zebra.jpg,blankImage,blankImage,scorpion,54,0.1431,0.1365,0.1283,,,,,,,,,,,,,,,,,,,,,,,,,,,,,,,,,,,,,,0,37,37,53,1,,,,,,,,,,,,,,,,,,,,,,,,,,,,,,,,,,,,,,,,,,,,,,,,,,,,,,,
,,,,,659597ab573ada5debc6a899,6682b41eeb79ab8215dff63d,6682ba08572353c5e4e4ec9b,34,Female ,English ,2024-07-01_07h19.47.851,ABmemTask3,2023.2.3,Win32,29.85074627,,,,,,,,,,,,,,,,,,,,,,,,,,,,,,,796.9464,797.9468,797.9469,4,798.4285,800.4422,0.007,800.5911,0.1538,0.1481,0.1431,0.1551,0.1331,0.125,0.1354,0.1403,0.1238,0.1529,0.1527,800.5915,805.8289,left,5.1837,,805.8293,807.0284,right,1.1547,,46,0,78,807.0284,808.0295,,,,,,1_AB,L5_T1A_T2P,5,0,1,7,12,6,3,15,scissors,Did you see the scissors,0.12,0,resources/,pics/cannon.jpg,pics/mummy.jpg,pics/shovel01.jpg,pics/christmaslights.jpg,pics/snowshoe.jpg,pics/candle01.jpg,pics/bowtie.jpg,pics/giraffe.jpg,pics/carrot01.jpg,pics/spoon01.jpg,pics/seaturtle.jpg,pics/stapler10.jpg,pics/footballhelmet.jpg,pics/onion.jpg,pics/wheel01.jpg,blankImage,blankImage,scissors01,57,0.1427,0.1625,0.1402,,,,,,,,,,,,,,,,,,,,,,,,,,,,,,,,,,,,,,0,38,38,56,1,,,,,,,,,,,,,,,,,,,,,,,,,,,,,,,,,,,,,,,,,,,,,,,,,,,,,,,
,,,,,659597ab573ada5debc6a899,6682b41eeb79ab8215dff63d,6682ba08572353c5e4e4ec9b,34,Female ,English ,2024-07-01_07h19.47.851,ABmemTask3,2023.2.3,Win32,29.85074627,,,,,,,,,,,,,,,,,,,,,,,,,,,,,,,808.0481,809.0313,809.0314,4,809.5049,811.4137,0.0073,811.5574,0.1574,0.1368,0.1334,0.1411,0.1271,0.132,0.1357,0.1322,0.1331,0.1339,0.1424,811.5576,812.827,right,1.235,,812.827,813.7066,right,0.8484,,48,0,80,813.7067,814.7306,,,,,,1_AB,L5_T1P_T2P,5,1,1,5,10,4,5,15,dolphin,Did you see the dolphin,0.12,0,resources/,pics/banjo.jpg,pics/shipinabottle.jpg,pics/laptop01a.jpg,pics/onion.jpg,pics/dolphin01.jpg,pics/sink.jpg,pics/seaturtle.jpg,pics/butterfly.jpg,pics/hen.jpg,pics/stapler10.jpg,pics/proboscismonkey.jpg,pics/starfish01.jpg,pics/salmon.jpg,pics/spiderweb.jpg,pics/cymbal.jpg,blankImage,blankImage,dolphin01,49,0.1272,0.1341,0.136,,,,,,,,,,,,,,,,,,,,,,,,,,,,,,,,,,,,,,0,39,39,48,1,,,,,,,,,,,,,,,,,,,,,,,,,,,,,,,,,,,,,,,,,,,,,,,,,,,,,,,
,,,,,659597ab573ada5debc6a899,6682b41eeb79ab8215dff63d,6682ba08572353c5e4e4ec9b,34,Female ,English ,2024-07-01_07h19.47.851,ABmemTask3,2023.2.3,Win32,29.85074627,,,,,,,,,,,,,,,,,,,,,,,,,,,,,,,814.7313,815.7259,815.7261,4,816.2154,817.6953,0.0071,817.8341,0.1365,0.1349,0.1328,0.1333,0.1332,0.1412,0.1287,0.1327,0.1349,0.135,0.1317,817.8343,818.4497,right,0.5777,,818.45,818.8399,left,0.3467,,48,0,82,818.8402,819.8191,,,,,,1_AB,L1_T1P_T2P,1,1,1,6,7,5,5,12,Bear,Did you see the Bear,0.12,0,resources/,pics/necklace.jpg,pics/hen.jpg,pics/dromedary.jpg,pics/piggybank.jpg,pics/sandbarshark.jpg,pics/grizzly.jpg,pics/stapler12.jpg,pics/bowlingpin.jpg,pics/christmaslights.jpg,pics/icecube01.jpg,pics/match.jpg,pics/lock03a.jpg,blankImage,blankImage,blankImage,blankImage,blankImage,grizzly,18,,,,,,,,,,,,,,,,,,,,,,,,,,,,,,,,,,,,,,,,,0,40,40,17,1,,,,,,,,,,,,,,,,,,,,,,,,,,,,,,,,,,,,,,,,,,,,,,,,,,,,,,,
,,,,,659597ab573ada5debc6a899,6682b41eeb79ab8215dff63d,6682ba08572353c5e4e4ec9b,34,Female ,English ,2024-07-01_07h19.47.851,ABmemTask3,2023.2.3,Win32,29.85074627,,,,,,,,,,,,,,,,,,,,,,,,,,,,,,,819.822,820.8153,820.8156,4,821.303,822.7734,0.0046,822.9039,0.1329,0.1342,0.1341,0.133,0.1348,0.1314,0.1341,0.1344,0.1321,0.1326,0.1334,822.9042,823.5541,right,0.6034,,823.5544,823.9509,left,0.3469,,50,0,84,823.9515,824.9352,,,,,,1_AB,L1_T1P_T2A,1,1,0,7,8,6,4,12,Tennis racket,Did you see the Tennis racket,0.12,0,resources/,pics/banjo.jpg,pics/leaf02a.jpg,pics/shovel01.jpg,pics/microscope.jpg,pics/cork02.jpg,pics/seagull.jpg,pics/tennisracket.jpg,pics/binder03b.jpg,pics/floortile02.jpg,pics/carrot01.jpg,pics/candle01.jpg,pics/siamesecat.jpg,blankImage,blankImage,blankImage,blankImage,blankImage,tennisracket,38,,,,,,,,,,,,,,,,,,,,,,,,,,,,,,,,,,,,,,,,,0,41,41,37,1,,,,,,,,,,,,,,,,,,,,,,,,,,,,,,,,,,,,,,,,,,,,,,,,,,,,,,,
,,,,,659597ab573ada5debc6a899,6682b41eeb79ab8215dff63d,6682ba08572353c5e4e4ec9b,34,Female ,English ,2024-07-01_07h19.47.851,ABmemTask3,2023.2.3,Win32,29.85074627,,,,,,,,,,,,,,,,,,,,,,,,,,,,,,,824.9387,825.9587,825.9588,4,826.474,827.5383,0.0023,827.674,0.1316,0.1284,0.133,0.1437,0.1273,0.1314,0.1407,0.1276,,,,827.674,828.3834,right,0.6672,,828.3836,829.0143,right,0.5862,,52,0,86,829.0143,829.9975,,,,,,1_AB,L1_T1P_T2P,1,1,1,4,5,3,4,9,antenna,Did you see the antenna,0.12,0,resources/,pics/microscope.jpg,pics/spoon01.jpg,pics/dromedary.jpg,pics/antenna.jpg,pics/stapler03.jpg,pics/hen.jpg,pics/leaf02a.jpg,pics/candle01.jpg,pics/sealion.jpg,blankImage,blankImage,blankImage,blankImage,blankImage,blankImage,blankImage,blankImage,antenna,9,,,,,,,,,,,,,,,,,,,,,,,,,,,,,,,,,,,,,,,,,0,42,42,8,1,,,,,,,,,,,,,,,,,,,,,,,,,,,,,,,,,,,,,,,,,,,,,,,,,,,,,,,
,,,,,659597ab573ada5debc6a899,6682b41eeb79ab8215dff63d,6682ba08572353c5e4e4ec9b,34,Female ,English ,2024-07-01_07h19.47.851,ABmemTask3,2023.2.3,Win32,29.85074627,,,,,,,,,,,,,,,,,,,,,,,,,,,,,,,829.9982,830.994,830.9941,4,831.4755,832.834,0.0023,832.97,0.1279,0.1521,0.1263,0.1525,0.1226,0.1388,0.1341,0.1343,0.1375,0.1315,,832.9701,833.7137,right,0.702,,833.714,834.1043,left,0.3429,,54,0,88,834.1047,835.0757,,,,,,1_AB,L1_T1P_T2A,1,1,0,7,8,6,3,11,garlic,Did you see the garlic,0.12,0,resources/,pics/zebra.jpg,pics/banjo.jpg,pics/pencilsharpener02a.jpg,pics/football.jpg,pics/candle01.jpg,pics/footballhelmet.jpg,pics/garlic01a.jpg,pics/birdhouse.jpg,pics/peach01.jpg,pics/pictureframe04.jpg,pics/binder03b.jpg,blankImage,blankImage,blankImage,blankImage,blankImage,blankImage,garlic01a,33,,,,,,,,,,,,,,,,,,,,,,,,,,,,,,,,,,,,,,,,,0,43,43,32,1,,,,,,,,,,,,,,,,,,,,,,,,,,,,,,,,,,,,,,,,,,,,,,,,,,,,,,,
,,,,,659597ab573ada5debc6a899,6682b41eeb79ab8215dff63d,6682ba08572353c5e4e4ec9b,34,Female ,English ,2024-07-01_07h19.47.851,ABmemTask3,2023.2.3,Win32,29.85074627,,,,,,,,,,,,,,,,,,,,,,,,,,,,,,,835.0764,836.0689,836.0689,4,836.5706,838.5983,0.0031,838.7298,0.1385,0.142,0.1497,0.1248,0.1357,0.1353,0.1314,0.1336,0.1295,0.1359,0.1407,838.7304,839.3258,right,0.5535,,839.326,839.734,left,0.3729,,56,0,90,839.7343,840.7368,,,,,,1_AB,L5_T1P_T2A,5,1,0,6,11,5,5,16,belt,Did you see the belt,0.12,0,resources/,pics/banjo.jpg,pics/birdhouse.jpg,pics/spoon01.jpg,pics/table01.jpg,pics/candle01.jpg,pics/belt02a.jpg,pics/peach01.jpg,pics/chainsaw.jpg,pics/toiletpaper01a.jpg,pics/proboscismonkey.jpg,pics/cymbal.jpg,pics/binoculars01b.jpg,pics/cannon.jpg,pics/noparkingsign.jpg,pics/sailboat.jpg,pics/carrot01.jpg,blankImage,belt02a,61,0.1266,0.1291,0.1396,,,,,,,,,,,,,,,,,,,,,,,,,,,,,,,,,,,,,,0,44,44,60,1,0.1332,,,,,,,,,,,,,,,,,,,,,,,,,,,,,,,,,,,,,,,,,,,,,,,,,,,,,,
